loop.thisRepN,loop.thisTrialN,loop.thisN,loop.thisIndex,evaluate_all_emotions.thisRepN,evaluate_all_emotions.thisTrialN,evaluate_all_emotions.thisN,evaluate_all_emotions.thisIndex,sync_beep_1.started,p_port.started,p_port.stopped,sync_beep_2.started,sync_beep_2.stopped,sync_beep_3.started,sync_beep_3.stopped,sync_beep_4.started,sync_beep_4.stopped,baseline.started,p_port_2.started,p_port_2.stopped,baseline.stopped,p_port_3.started,Game_Start_Text.started,p_port_4.started,p_port_4.stopped,key_resp.started,key_resp.keys,key_resp.rt,fixation_cross.started,p_port_5.started,p_port_5.stopped,fixation_cross.stopped,p_port_6.started,player_image_intro.started,player_name_intro.started,p_port_7.started,p_port_7.stopped,p_port_8.started,player_image_offer.started,player_name_offer.started,proposed_split.started,p_port_9.started,p_port_9.stopped,proposed_split.stopped,accept_reject.started,p_port_15.started,p_port_15.stopped,accept_reject.stopped,p_port_10.started,arrow_instructions.started,offer_choice.started,p_port_11.started,p_port_11.stopped,offer_choice.keys,offer_choice.rt,Instructions_Affinity_Score.started,p_port_12.started,p_port_12.stopped,Instructions_Affinity_Score.stopped,Emotion_Image.started,AffinityScore.started,p_port_13.started,p_port_13.stopped,AffinityScore.response,AffinityScore.rt,Instruction.started,Moral_Disgust_Score.started,p_port_14.started,p_port_14.stopped,Moral_Disgust_Score.response,Moral_Disgust_Score.rt,player_image_intro.stopped,player_name_intro.stopped,player_image_offer.stopped,player_name_offer.stopped,p_port_6.stopped,p_port_8.stopped,p_port_10.stopped,participant,session,date,expName,psychopyVersion,frameRate,
,,,,,,,,16.694977699778974,0.0008141000289469957,0.10139389999676496,17.292016580002382,17.591991399996914,17.89232558000367,18.19176710001193,18.47511908004526,18.775000100024045,18.775000100024045,0.001494400086812675,0.1016830001026392,33.77511399996001,15.001678300090134,33.90844739996828,0.0018096000421792269,0.1016092001227662,34.391776200034656,space,1.0848793999757618,,,,,,,,,,,,,,,,,,,,,,,,,,,,,,,,,,,,,,,,,,,,,,,,,,,1094,Moral,2025-03-05_13h06.57.269,MoralCondition_v2,2022.2.5,29.99976000358494,
0,0,0,0,0,0,0,0,,,,,,,,,,,,,,,,,,,,,35.52523729996756,0.0014230000087991357,0.09838560002390295,41.541812299983576,6.0149762000655755,41.79179050005041,41.79179050005041,0.12501640000846237,0.26526750007178634,6.0316548000555485,47.84167170000728,47.84167170000728,47.84167170000728,0.08790810010395944,0.21507650008425117,53.54173079994507,53.70856299996376,6.015127300051972,6.115282400045544,59.70843140000943,12.014971300028265,59.84174389997497,59.84174389997497,0.015129400067962706,0.11493320006411523,up,1.395001700031571,61.291732399957255,8.499994874000549e-05,0.09777689992915839,67.3084551000502,67.3084551000502,67.3084551000502,0.010570699931122363,0.11450599995441735,5.0,6.504962399951182,,,,,,,,,,,,,,1094,Moral,2025-03-05_13h06.57.269,MoralCondition_v2,2022.2.5,29.99976000358494,
0,0,0,0,1,0,1,0,,,,,,,,,,,,,,,,,,,,,,,,,,,,,,,,,,,,,,,,,,,,,,,,,,,,73.8416158000473,73.8416158000473,0.00903620000462979,0.09915629995521158,2.0,5.507733999984339,,,,,,,,,,,,,,1094,Moral,2025-03-05_13h06.57.269,MoralCondition_v2,2022.2.5,29.99976000358494,
0,0,0,0,2,0,2,0,,,,,,,,,,,,,,,,,,,,,,,,,,,,,,,,,,,,,,,,,,,,,,,,,,,,79.40847280004527,79.40847280004527,0.009845699998550117,0.11461659998167306,2.0,3.5724219999974594,,,,,,,,,,,,,,1094,Moral,2025-03-05_13h06.57.269,MoralCondition_v2,2022.2.5,29.99976000358494,
0,0,0,0,3,0,3,0,,,,,,,,,,,,,,,,,,,,,,,,,,,,,,,,,,,,,,,,,,,,,,,,,,,,83.00824280001689,83.00824280001689,0.009699000045657158,0.09778350009582937,1.0,2.2224569000536576,,,,,,,,,,,,,,1094,Moral,2025-03-05_13h06.57.269,MoralCondition_v2,2022.2.5,29.99976000358494,
0,0,0,0,4,0,4,0,,,,,,,,,,,,,,,,,,,,,,,,,,,,,,,,,,,,,,,,,,,,,,,,,,,,85.27493650000542,85.27493650000542,0.008668599999509752,0.09925149998161942,6.0,2.7915546000003815,,,,,,,,,,,,,,1094,Moral,2025-03-05_13h06.57.269,MoralCondition_v2,2022.2.5,29.99976000358494,
0,0,0,0,5,0,5,0,,,,,,,,,,,,,,,,,,,,,,,,,,,,,,,,,,,,,,,,,,,,,,,,,,,,88.12514130002819,88.12514130002819,0.00917109998408705,0.11539699998684227,2.0,4.873841000022367,,,,,,,,,,,,,,1094,Moral,2025-03-05_13h06.57.269,MoralCondition_v2,2022.2.5,29.99976000358494,
0,0,0,0,6,0,6,0,,,,,,,,,,,,,,,,,,,,,,,,,,,,,,,,,,,,,,,,,,,,,,,,,,,,93.02511599997524,93.02511599997524,0.008958999998867512,0.09935459995176643,2.0,2.6916592000052333,,,,,,,,,,,,,,1094,Moral,2025-03-05_13h06.57.269,MoralCondition_v2,2022.2.5,29.99976000358494,
0,0,0,0,,,,,,,,,,,,,,,,,,,,,,,,,,,,,,,,,,,,,,,,,,,,,,,,,,,,,,,,,,,,,,95.75820120004937,95.75820120004937,0.002500699949450791,0.09752499999012798,7.0,6.929289299994707,,,,,,,,1094,Moral,2025-03-05_13h06.57.269,MoralCondition_v2,2022.2.5,29.99976000358494,
1,0,1,0,0,0,0,0,,,,,,,,,,,,,,,,,,,,,102.72531500004698,0.00026539992541074753,0.0977211999706924,108.72498109994922,6.031065099989064,108.92485810001381,108.92485810001381,0.09157309995498508,0.1980045000091195,6.030971999978647,115.0249789999798,115.0249789999798,115.0249789999798,0.09832680004183203,0.19785460003186017,120.72493659995962,120.92495300003793,6.031048799981363,6.130992899998091,126.92495749995578,12.031009700032882,127.05825060000643,127.05825060000643,0.031110400101169944,0.13095300004351884,down,2.1623075999086723,129.27503520005848,4.640000406652689e-05,0.09742370003368706,135.29154210002162,135.29154210002162,135.29154210002162,0.008381300023756921,0.11418789997696877,6.0,3.840363399940543,,,,,,,114.92496950004715,114.92496950004715,127.02491719997488,127.02491719997488,,,,1094,Moral,2025-03-05_13h06.57.269,MoralCondition_v2,2022.2.5,29.99976000358494,
1,0,1,0,1,0,1,0,,,,,,,,,,,,,,,,,,,,,,,,,,,,,,,,,,,,,,,,,,,,,,,,,,,,139.1749429999618,139.1749429999618,0.007923100027255714,0.11448129999917,6.0,2.307583100046031,,,,,,,,,,,,,,1094,Moral,2025-03-05_13h06.57.269,MoralCondition_v2,2022.2.5,29.99976000358494,
1,0,1,0,2,0,2,0,,,,,,,,,,,,,,,,,,,,,,,,,,,,,,,,,,,,,,,,,,,,,,,,,,,,141.50845329998992,141.50845329998992,0.007233500014990568,0.0977273000171408,5.0,3.6248984000412747,,,,,,,,,,,,,,1094,Moral,2025-03-05_13h06.57.269,MoralCondition_v2,2022.2.5,29.99976000358494,
1,0,1,0,3,0,3,0,,,,,,,,,,,,,,,,,,,,,,,,,,,,,,,,,,,,,,,,,,,,,,,,,,,,145.17545570002403,145.17545570002403,0.006720899953506887,0.0973736000014469,1.0,2.0915888999588788,,,,,,,,,,,,,,1094,Moral,2025-03-05_13h06.57.269,MoralCondition_v2,2022.2.5,29.99976000358494,
1,0,1,0,4,0,4,0,,,,,,,,,,,,,,,,,,,,,,,,,,,,,,,,,,,,,,,,,,,,,,,,,,,,147.3082027999917,147.3082027999917,0.006694299983792007,0.09909280005376786,6.0,2.6265865000896156,,,,,,,,,,,,,,1094,Moral,2025-03-05_13h06.57.269,MoralCondition_v2,2022.2.5,29.99976000358494,
1,0,1,0,5,0,5,0,,,,,,,,,,,,,,,,,,,,,,,,,,,,,,,,,,,,,,,,,,,,,,,,,,,,149.97519889997784,149.97519889997784,0.008787499973550439,0.09744449995923787,2.0,3.556061400100589,,,,,,,,,,,,,,1094,Moral,2025-03-05_13h06.57.269,MoralCondition_v2,2022.2.5,29.99976000358494,
1,0,1,0,6,0,6,0,,,,,,,,,,,,,,,,,,,,,,,,,,,,,,,,,,,,,,,,,,,,,,,,,,,,153.59185790002812,153.59185790002812,0.008095200057141483,0.11411590001080185,4.0,5.240351999993436,,,,,,,,,,,,,,1094,Moral,2025-03-05_13h06.57.269,MoralCondition_v2,2022.2.5,29.99976000358494,
1,0,1,0,,,,,,,,,,,,,,,,,,,,,,,,,,,,,,,,,,,,,,,,,,,,,,,,,,,,,,,,,,,,,,158.8582212999463,158.8582212999463,0.0014192999806255102,0.09760209999512881,2.0,5.530716400011443,,,,,,,,1094,Moral,2025-03-05_13h06.57.269,MoralCondition_v2,2022.2.5,29.99976000358494,
2,0,2,0,0,0,0,0,,,,,,,,,,,,,,,,,,,,,164.42505730001722,0.00014349992852658033,0.09943409997504205,170.44149340002332,6.015865899971686,170.60824860003777,170.60824860003777,0.07783009996637702,0.18270749994553626,6.015770499943756,176.70812650001608,176.70812650001608,176.70812650001608,0.07918480003718287,0.1823605999816209,182.40814059996046,182.60818580002524,6.0158361999783665,6.11587259999942,188.60813059995417,12.015812000026926,188.74165510002058,188.74165510002058,0.016019499977119267,0.11571669997647405,up,1.5990699999965727,190.37478740001097,5.3200055845081806e-05,0.09750739997252822,196.39149469998665,196.39149469998665,196.39149469998665,0.011187099968083203,0.1143451000098139,5.0,3.3709521999116987,,,,,,,176.6081941999728,176.6081941999728,188.7082201000303,188.7082201000303,,,,1094,Moral,2025-03-05_13h06.57.269,MoralCondition_v2,2022.2.5,29.99976000358494,
2,0,2,0,1,0,1,0,,,,,,,,,,,,,,,,,,,,,,,,,,,,,,,,,,,,,,,,,,,,,,,,,,,,199.79134999995586,199.79134999995586,0.00708060001488775,0.09905030007939786,3.0,2.85983520001173,,,,,,,,,,,,,,1094,Moral,2025-03-05_13h06.57.269,MoralCondition_v2,2022.2.5,29.99976000358494,
2,0,2,0,2,0,2,0,,,,,,,,,,,,,,,,,,,,,,,,,,,,,,,,,,,,,,,,,,,,,,,,,,,,202.69147209997755,202.69147209997755,0.007460099994204938,0.09784619999118149,3.0,2.191072899964638,,,,,,,,,,,,,,1094,Moral,2025-03-05_13h06.57.269,MoralCondition_v2,2022.2.5,29.99976000358494,
2,0,2,0,3,0,3,0,,,,,,,,,,,,,,,,,,,,,,,,,,,,,,,,,,,,,,,,,,,,,,,,,,,,204.9246360999532,204.9246360999532,0.006267599994316697,0.09911190008278936,1.0,2.060505700064823,,,,,,,,,,,,,,1094,Moral,2025-03-05_13h06.57.269,MoralCondition_v2,2022.2.5,29.99976000358494,
2,0,2,0,4,0,4,0,,,,,,,,,,,,,,,,,,,,,,,,,,,,,,,,,,,,,,,,,,,,,,,,,,,,207.04151620005723,207.04151620005723,0.009379500057548285,0.11558700003661215,5.0,2.040794000029564,,,,,,,,,,,,,,1094,Moral,2025-03-05_13h06.57.269,MoralCondition_v2,2022.2.5,29.99976000358494,
2,0,2,0,5,0,5,0,,,,,,,,,,,,,,,,,,,,,,,,,,,,,,,,,,,,,,,,,,,,,,,,,,,,209.12500710005406,209.12500710005406,0.007182099972851574,0.11384180001914501,4.0,1.9743140999926254,,,,,,,,,,,,,,1094,Moral,2025-03-05_13h06.57.269,MoralCondition_v2,2022.2.5,29.99976000358494,
2,0,2,0,6,0,6,0,,,,,,,,,,,,,,,,,,,,,,,,,,,,,,,,,,,,,,,,,,,,,,,,,,,,211.12464000005275,211.12464000005275,0.007931800093501806,0.09779340005479753,2.0,2.424284099950455,,,,,,,,,,,,,,1094,Moral,2025-03-05_13h06.57.269,MoralCondition_v2,2022.2.5,29.99976000358494,
2,0,2,0,,,,,,,,,,,,,,,,,,,,,,,,,,,,,,,,,,,,,,,,,,,,,,,,,,,,,,,,,,,,,,213.59126530005597,213.59126530005597,0.001954799983650446,0.09731499990448356,6.0,3.3300332999788225,,,,,,,,1094,Moral,2025-03-05_13h06.57.269,MoralCondition_v2,2022.2.5,29.99976000358494,
3,0,3,0,0,0,0,0,,,,,,,,,,,,,,,,,,,,,216.95812890003435,0.0002592999953776598,0.11464719998184592,222.95806710002944,6.031316399923526,223.1580030999612,223.1580030999612,0.08668519998900592,0.1981227999785915,6.031439399928786,229.25802119995933,229.25802119995933,229.25802119995933,0.08696949994191527,0.19812750001437962,234.95812379999552,235.15799360000528,6.031254500034265,6.131199699942954,241.1579956000205,12.031316100037657,241.29143159999512,241.29143159999512,0.03142490005120635,0.1312029999680817,up,1.97753539995756,243.30809059995227,4.819990135729313e-05,0.09798409999348223,,249.32480870001018,249.32480870001018,0.02602150000166148,0.1147967999568209,1.0,3.6230100999819115,,,,,,,229.158029000042,229.158029000042,241.2579864000436,241.2579864000436,,,,1094,Moral,2025-03-05_13h06.57.269,MoralCondition_v2,2022.2.5,29.99976000358494,
3,0,3,0,1,0,1,0,,,,,,,,,,,,,,,,,,,,,,,,,,,,,,,,,,,,,,,,,,,,,,,,,,,,252.99139310000464,252.99139310000464,0.005931499996222556,0.09899670002050698,5.0,2.560887399944477,,,,,,,,,,,,,,1094,Moral,2025-03-05_13h06.57.269,MoralCondition_v2,2022.2.5,29.99976000358494,
3,0,3,0,2,0,2,0,,,,,,,,,,,,,,,,,,,,,,,,,,,,,,,,,,,,,,,,,,,,,,,,,,,,255.59124510001857,255.59124510001857,0.006423400016501546,0.09895520005375147,3.0,1.7268177000805736,,,,,,,,,,,,,,1094,Moral,2025-03-05_13h06.57.269,MoralCondition_v2,2022.2.5,29.99976000358494,
3,0,3,0,3,0,3,0,,,,,,,,,,,,,,,,,,,,,,,,,,,,,,,,,,,,,,,,,,,,,,,,,,,,257.3579982999945,257.3579982999945,0.008350800024345517,0.09739340003579855,4.0,1.8566756999352947,,,,,,,,,,,,,,1094,Moral,2025-03-05_13h06.57.269,MoralCondition_v2,2022.2.5,29.99976000358494,
3,0,3,0,4,0,4,0,,,,,,,,,,,,,,,,,,,,,,,,,,,,,,,,,,,,,,,,,,,,,,,,,,,,259.25793479999993,259.25793479999993,0.007144899922423065,0.09814229991752654,5.0,4.425815600086935,,,,,,,,,,,,,,1094,Moral,2025-03-05_13h06.57.269,MoralCondition_v2,2022.2.5,29.99976000358494,
3,0,3,0,5,0,5,0,,,,,,,,,,,,,,,,,,,,,,,,,,,,,,,,,,,,,,,,,,,,,,,,,,,,263.7245070999488,263.7245070999488,0.00943490001372993,0.0979263000190258,3.0,2.1228284999961033,,,,,,,,,,,,,,1094,Moral,2025-03-05_13h06.57.269,MoralCondition_v2,2022.2.5,29.99976000358494,
3,0,3,0,6,0,6,0,,,,,,,,,,,,,,,,,,,,,,,,,,,,,,,,,,,,,,,,,,,,,,,,,,,,265.89130999997724,265.89130999997724,0.007344000041484833,0.09746329998597503,5.0,4.291364200063981,,,,,,,,,,,,,,1094,Moral,2025-03-05_13h06.57.269,MoralCondition_v2,2022.2.5,29.99976000358494,
3,0,3,0,,,,,,,,,,,,,,,,,,,,,,,,,,,,,,,,,,,,,,,,,,,,,,,,,,,,,,,,,,,,,,270.2245188000379,270.2245188000379,0.0009372999193146825,0.09864889993332326,6.0,1.9990152000682428,,,,,,,,1094,Moral,2025-03-05_13h06.57.269,MoralCondition_v2,2022.2.5,29.99976000358494,
4,0,4,0,0,0,0,0,,,,,,,,,,,,,,,,,,,,,272.2581449999707,0.00015590002294629812,0.09922069997992367,278.2745836999966,6.015892999945208,278.4745130999945,278.4745130999945,0.10899430001154542,0.21587489999365062,6.015850899973884,284.5412939999951,284.5412939999951,284.5412939999951,0.07185359997674823,0.1828084000153467,290.2412182999542,290.44124800001737,6.015952100045979,6.115839499980211,296.44114270003047,12.015896299970336,296.57451359997503,296.57451359997503,0.016098099993541837,0.11588430008850992,up,1.4943862999789417,298.1244963000063,4.809990059584379e-05,0.09780999994836748,304.1411441999953,304.1411441999953,304.1411441999953,0.011186599964275956,0.11452139995526522,3.0,2.3043626999715343,,,,,,,,,296.5411519999616,296.5411519999616,,,,1094,Moral,2025-03-05_13h06.57.269,MoralCondition_v2,2022.2.5,29.99976000358494,
4,0,4,0,1,0,1,0,,,,,,,,,,,,,,,,,,,,,,,,,,,,,,,,,,,,,,,,,,,,,,,,,,,,306.4744044999825,306.4744044999825,0.006919700070284307,0.0990557000041008,5.0,2.559958799974993,,,,,,,,,,,,,,1094,Moral,2025-03-05_13h06.57.269,MoralCondition_v2,2022.2.5,29.99976000358494,
4,0,4,0,2,0,2,0,,,,,,,,,,,,,,,,,,,,,,,,,,,,,,,,,,,,,,,,,,,,,,,,,,,,309.0743075000355,309.0743075000355,0.006408700020983815,0.09928860003128648,1.0,1.8938045999966562,,,,,,,,,,,,,,1094,Moral,2025-03-05_13h06.57.269,MoralCondition_v2,2022.2.5,29.99976000358494,
4,0,4,0,3,0,3,0,,,,,,,,,,,,,,,,,,,,,,,,,,,,,,,,,,,,,,,,,,,,,,,,,,,,311.0078230999643,311.0078230999643,0.008268999983556569,0.09807800000999123,3.0,2.4907163999741897,,,,,,,,,,,,,,1094,Moral,2025-03-05_13h06.57.269,MoralCondition_v2,2022.2.5,29.99976000358494,
4,0,4,0,4,0,4,0,,,,,,,,,,,,,,,,,,,,,,,,,,,,,,,,,,,,,,,,,,,,,,,,,,,,313.5410723000532,313.5410723000532,0.006870200042612851,0.0991884000832215,3.0,2.7267464000033215,,,,,,,,,,,,,,1094,Moral,2025-03-05_13h06.57.269,MoralCondition_v2,2022.2.5,29.99976000358494,
4,0,4,0,5,0,5,0,,,,,,,,,,,,,,,,,,,,,,,,,,,,,,,,,,,,,,,,,,,,,,,,,,,,316.307657700032,316.307657700032,0.007828400004655123,0.09800019999966025,5.0,2.4912679999833927,,,,,,,,,,,,,,1094,Moral,2025-03-05_13h06.57.269,MoralCondition_v2,2022.2.5,29.99976000358494,
4,0,4,0,6,0,6,0,,,,,,,,,,,,,,,,,,,,,,,,,,,,,,,,,,,,,,,,,,,,,,,,,,,,318.8416328000603,318.8416328000603,0.007569200010038912,0.09708029998000711,4.0,1.4905911999521777,,,,,,,,,,,,,,1094,Moral,2025-03-05_13h06.57.269,MoralCondition_v2,2022.2.5,29.99976000358494,
4,0,4,0,,,,,,,,,,,,,,,,,,,,,,,,,,,,,,,,,,,,,,,,,,,,,,,,,,,,,,,,,,,,,,320.3744543000357,320.3744543000357,0.0014750000555068254,0.09765580005478114,6.0,2.1642553999554366,,,,,,,,1094,Moral,2025-03-05_13h06.57.269,MoralCondition_v2,2022.2.5,29.99976000358494,
5,0,5,0,0,0,0,0,,,,,,,,,,,,,,,,,,,,,322.57444450003095,0.00033760000951588154,0.09725290001370013,328.5910499000456,6.014076800085604,328.757610199973,328.757610199973,0.06987430003937334,0.18069560010917485,6.014116900041699,334.8577672999818,334.8577672999818,334.8577672999818,0.07214190007653087,0.180731900036335,340.55772040004376,340.7576977000572,6.013913600123487,6.113851400092244,346.757689799997,12.014001600095071,346.89105149998795,346.89105149998795,0.014005200122483075,0.11388940014876425,down,1.5295768999494612,348.4576579000568,4.3100095354020596e-05,0.09752040007151663,354.4745105999755,354.4745105999755,354.4745105999755,0.008338900050148368,0.1141855000751093,5.0,3.4401775000151247,,,,,,,334.75769260001834,334.75769260001834,346.85764189995825,346.85764189995825,,,,1094,Moral,2025-03-05_13h06.57.269,MoralCondition_v2,2022.2.5,29.99976000358494,
5,0,5,0,1,0,1,0,,,,,,,,,,,,,,,,,,,,,,,,,,,,,,,,,,,,,,,,,,,,,,,,,,,,357.9408487000037,357.9408487000037,0.0072095999494194984,0.0978848000522703,5.0,4.4252487000776455,,,,,,,,,,,,,,1094,Moral,2025-03-05_13h06.57.269,MoralCondition_v2,2022.2.5,29.99976000358494,
5,0,5,0,2,0,2,0,,,,,,,,,,,,,,,,,,,,,,,,,,,,,,,,,,,,,,,,,,,,,,,,,,,,362.4074961000588,362.4074961000588,0.005888800020329654,0.09911000006832182,1.0,2.561320299981162,,,,,,,,,,,,,,1094,Moral,2025-03-05_13h06.57.269,MoralCondition_v2,2022.2.5,29.99976000358494,
5,0,5,0,3,0,3,0,,,,,,,,,,,,,,,,,,,,,,,,,,,,,,,,,,,,,,,,,,,,,,,,,,,,365.00751050002873,365.00751050002873,0.007570700021460652,0.0983718999195844,5.0,3.391639299923554,,,,,,,,,,,,,,1094,Moral,2025-03-05_13h06.57.269,MoralCondition_v2,2022.2.5,29.99976000358494,
5,0,5,0,4,0,4,0,,,,,,,,,,,,,,,,,,,,,,,,,,,,,,,,,,,,,,,,,,,,,,,,,,,,368.4410811000271,368.4410811000271,0.00692800001706928,0.09926940000150353,5.0,1.2936107000568882,,,,,,,,,,,,,,1094,Moral,2025-03-05_13h06.57.269,MoralCondition_v2,2022.2.5,29.99976000358494,
5,0,5,0,5,0,5,0,,,,,,,,,,,,,,,,,,,,,,,,,,,,,,,,,,,,,,,,,,,,,,,,,,,,369.7744601999875,369.7744601999875,0.007665899931453168,0.09744469996076077,4.0,2.9574385000159964,,,,,,,,,,,,,,1094,Moral,2025-03-05_13h06.57.269,MoralCondition_v2,2022.2.5,29.99976000358494,
5,0,5,0,6,0,6,0,,,,,,,,,,,,,,,,,,,,,,,,,,,,,,,,,,,,,,,,,,,,,,,,,,,,372.7745031999657,372.7745031999657,0.007986499927937984,0.09772419999353588,6.0,2.190699400031008,,,,,,,,,,,,,,1094,Moral,2025-03-05_13h06.57.269,MoralCondition_v2,2022.2.5,29.99976000358494,
5,0,5,0,,,,,,,,,,,,,,,,,,,,,,,,,,,,,,,,,,,,,,,,,,,,,,,,,,,,,,,,,,,,,,375.00762579997536,375.00762579997536,0.0007053998997434974,0.099390699993819,2.0,2.2996946000494063,,,,,,,,1094,Moral,2025-03-05_13h06.57.269,MoralCondition_v2,2022.2.5,29.99976000358494,
6,0,6,0,0,0,0,0,,,,,,,,,,,,,,,,,,,,,377.34125469997525,0.0002618000144138932,0.09844729991164058,383.35755109996535,6.01467699999921,383.524105999968,383.524105999968,0.07137859996873885,0.18143420002888888,6.014858899987303,389.6240338999778,389.6240338999778,389.6240338999778,0.07379649998620152,0.18130160006694496,395.3240496000508,395.52415920002386,6.0147077000001445,6.114778900053352,401.52396799996495,12.014431999996305,401.6575263000559,401.6575263000559,0.014771500020287931,0.11458850000053644,down,1.354958700016141,403.0741077000275,4.9299909733235836e-05,0.09805119992233813,,409.09067259996664,409.09067259996664,0.02446109999436885,0.11467939999420196,5.0,2.3577186999609694,,,,,,,389.5241683999775,389.5241683999775,401.6241017000284,401.6241017000284,,,,1094,Moral,2025-03-05_13h06.57.269,MoralCondition_v2,2022.2.5,29.99976000358494,
6,0,6,0,1,0,1,0,,,,,,,,,,,,,,,,,,,,,,,,,,,,,,,,,,,,,,,,,,,,,,,,,,,,411.4907804999966,411.4907804999966,0.006590700009837747,0.09919969993643463,5.0,1.4267344999825582,,,,,,,,,,,,,,1094,Moral,2025-03-05_13h06.57.269,MoralCondition_v2,2022.2.5,29.99976000358494,
6,0,6,0,2,0,2,0,,,,,,,,,,,,,,,,,,,,,,,,,,,,,,,,,,,,,,,,,,,,,,,,,,,,412.95766159996856,412.95766159996856,0.007060399977490306,0.09813569998368621,5.0,1.9928173000225797,,,,,,,,,,,,,,1094,Moral,2025-03-05_13h06.57.269,MoralCondition_v2,2022.2.5,29.99976000358494,
6,0,6,0,3,0,3,0,,,,,,,,,,,,,,,,,,,,,,,,,,,,,,,,,,,,,,,,,,,,,,,,,,,,414.9910658999579,414.9910658999579,0.0071452000411227345,0.09804680000524968,2.0,2.225192700047046,,,,,,,,,,,,,,1094,Moral,2025-03-05_13h06.57.269,MoralCondition_v2,2022.2.5,29.99976000358494,
6,0,6,0,4,0,4,0,,,,,,,,,,,,,,,,,,,,,,,,,,,,,,,,,,,,,,,,,,,,,,,,,,,,417.25735940004233,417.25735940004233,0.006859300076030195,0.0992372001055628,5.0,1.9600288000656292,,,,,,,,,,,,,,1094,Moral,2025-03-05_13h06.57.269,MoralCondition_v2,2022.2.5,29.99976000358494,
6,0,6,0,5,0,5,0,,,,,,,,,,,,,,,,,,,,,,,,,,,,,,,,,,,,,,,,,,,,,,,,,,,,419.2572137999814,419.2572137999814,0.007882699952460825,0.09782150003593415,3.0,2.7575652000959963,,,,,,,,,,,,,,1094,Moral,2025-03-05_13h06.57.269,MoralCondition_v2,2022.2.5,29.99976000358494,
6,0,6,0,6,0,6,0,,,,,,,,,,,,,,,,,,,,,,,,,,,,,,,,,,,,,,,,,,,,,,,,,,,,422.07422640000004,422.07422640000004,0.0076951999217271805,0.11421409994363785,6.0,3.0408759999554604,,,,,,,,,,,,,,1094,Moral,2025-03-05_13h06.57.269,MoralCondition_v2,2022.2.5,29.99976000358494,
6,0,6,0,,,,,,,,,,,,,,,,,,,,,,,,,,,,,,,,,,,,,,,,,,,,,,,,,,,,,,,,,,,,,,425.1408856000053,425.1408856000053,0.001370999962091446,0.09784950001630932,2.0,2.997654699953273,,,,,,,,1094,Moral,2025-03-05_13h06.57.269,MoralCondition_v2,2022.2.5,29.99976000358494,
7,0,7,0,0,0,0,0,,,,,,,,,,,,,,,,,,,,,428.1741234000074,0.00015009997878223658,0.09877949999645352,434.19065480004065,6.015533500001766,434.35728410002775,434.35728410002775,0.07604239997453988,0.18236949993297458,6.015764100011438,440.45733490004204,440.45733490004204,440.45733490004204,0.07544659997802228,0.18229569995310158,446.15725729998667,446.3572556000436,6.015423499979079,6.115395899978466,452.35725380002987,12.015426099998876,452.4905765999574,452.4905765999574,0.015634400071576238,0.11536210007034242,down,0.6334131000330672,453.1738480000058,4.910002462565899e-05,0.11428800004068762,459.17389760003425,459.17389760003425,459.17389760003425,0.008949800045229495,0.09750350005924702,5.0,4.689712899969891,,,,,,,440.35729469999205,440.35729469999205,452.4572735000402,452.4572735000402,,,,1094,Moral,2025-03-05_13h06.57.269,MoralCondition_v2,2022.2.5,29.99976000358494,
7,0,7,0,1,0,1,0,,,,,,,,,,,,,,,,,,,,,,,,,,,,,,,,,,,,,,,,,,,,,,,,,,,,463.907236799947,463.907236799947,0.007447100011631846,0.09777130000293255,5.0,1.4914515999844298,,,,,,,,,,,,,,1094,Moral,2025-03-05_13h06.57.269,MoralCondition_v2,2022.2.5,29.99976000358494,
7,0,7,0,2,0,2,0,,,,,,,,,,,,,,,,,,,,,,,,,,,,,,,,,,,,,,,,,,,,,,,,,,,,465.44063510000706,465.44063510000706,0.006588199990801513,0.09929679997731,5.0,1.7601367000024766,,,,,,,,,,,,,,1094,Moral,2025-03-05_13h06.57.269,MoralCondition_v2,2022.2.5,29.99976000358494,
7,0,7,0,3,0,3,0,,,,,,,,,,,,,,,,,,,,,,,,,,,,,,,,,,,,,,,,,,,,,,,,,,,,467.2404425999848,467.2404425999848,0.007183700101450086,0.09834560006856918,2.0,2.4253710999619216,,,,,,,,,,,,,,1094,Moral,2025-03-05_13h06.57.269,MoralCondition_v2,2022.2.5,29.99976000358494,
7,0,7,0,4,0,4,0,,,,,,,,,,,,,,,,,,,,,,,,,,,,,,,,,,,,,,,,,,,,,,,,,,,,469.70703140005935,469.70703140005935,0.007919600000604987,0.09868319996166974,3.0,2.2921332999831066,,,,,,,,,,,,,,1094,Moral,2025-03-05_13h06.57.269,MoralCondition_v2,2022.2.5,29.99976000358494,
7,0,7,0,5,0,5,0,,,,,,,,,,,,,,,,,,,,,,,,,,,,,,,,,,,,,,,,,,,,,,,,,,,,472.0575096999528,472.0575096999528,0.008819299982860684,0.1140267999144271,5.0,3.1395118000218645,,,,,,,,,,,,,,1094,Moral,2025-03-05_13h06.57.269,MoralCondition_v2,2022.2.5,29.99976000358494,
7,0,7,0,6,0,6,0,,,,,,,,,,,,,,,,,,,,,,,,,,,,,,,,,,,,,,,,,,,,,,,,,,,,475.2238567000022,475.2238567000022,0.006103100022301078,0.09853620000649244,5.0,1.0602046999847516,,,,,,,,,,,,,,1094,Moral,2025-03-05_13h06.57.269,MoralCondition_v2,2022.2.5,29.99976000358494,
7,0,7,0,,,,,,,,,,,,,,,,,,,,,,,,,,,,,,,,,,,,,,,,,,,,,,,,,,,,,,,,,,,,,,476.32406370004173,476.32406370004173,0.0013381000608205795,0.09755800000857562,2.0,1.6976380998967215,,,,,,,,1094,Moral,2025-03-05_13h06.57.269,MoralCondition_v2,2022.2.5,29.99976000358494,
8,0,8,0,0,0,0,0,,,,,,,,,,,,,,,,,,,,,478.05733310000505,0.0002704999642446637,0.09797130001243204,484.07377280003857,6.014752299990505,484.24029270000756,484.24029270000756,0.0744276000186801,0.18132209999021143,6.014591000042856,490.32383440004196,490.32383440004196,490.32383440004196,0.06330560008063912,0.1646290000062436,496.0237651000498,496.25716759997886,6.0313873999984935,6.13150380004663,502.25700330000836,12.031259100069292,502.39034080004785,502.39034080004785,0.03147380007430911,0.13123230007477105,down,1.1976205999962986,503.64047660003416,4.439998883754015e-05,0.09838460001628846,509.6403486999916,509.6403486999916,509.6403486999916,0.009122999967075884,0.09818219998851418,5.0,2.490030199987814,,,,,,,490.2236027000472,490.2236027000472,502.32372580002993,502.32372580002993,,,,1094,Moral,2025-03-05_13h06.57.269,MoralCondition_v2,2022.2.5,29.99976000358494,
8,0,8,0,1,0,1,0,,,,,,,,,,,,,,,,,,,,,,,,,,,,,,,,,,,,,,,,,,,,,,,,,,,,512.1906114000594,512.1906114000594,0.007787499926052988,0.11463610001374036,2.0,2.174381999997422,,,,,,,,,,,,,,1094,Moral,2025-03-05_13h06.57.269,MoralCondition_v2,2022.2.5,29.99976000358494,
8,0,8,0,2,0,2,0,,,,,,,,,,,,,,,,,,,,,,,,,,,,,,,,,,,,,,,,,,,,,,,,,,,,514.3903134999564,514.3903134999564,0.007929900079034269,0.09775020007509738,5.0,3.49060310004279,,,,,,,,,,,,,,1094,Moral,2025-03-05_13h06.57.269,MoralCondition_v2,2022.2.5,29.99976000358494,
8,0,8,0,3,0,3,0,,,,,,,,,,,,,,,,,,,,,,,,,,,,,,,,,,,,,,,,,,,,,,,,,,,,517.9237683999818,517.9237683999818,0.007473899982869625,0.09774549992289394,5.0,1.6250299999956042,,,,,,,,,,,,,,1094,Moral,2025-03-05_13h06.57.269,MoralCondition_v2,2022.2.5,29.99976000358494,
8,0,8,0,4,0,4,0,,,,,,,,,,,,,,,,,,,,,,,,,,,,,,,,,,,,,,,,,,,,,,,,,,,,519.5902060000226,519.5902060000226,0.006733599933795631,0.09946129994932562,5.0,0.993417700054124,,,,,,,,,,,,,,1094,Moral,2025-03-05_13h06.57.269,MoralCondition_v2,2022.2.5,29.99976000358494,
8,0,8,0,5,0,5,0,,,,,,,,,,,,,,,,,,,,,,,,,,,,,,,,,,,,,,,,,,,,,,,,,,,,520.6236030999571,520.6236030999571,0.007304499973542988,0.09806520002894104,4.0,2.0249692000215873,,,,,,,,,,,,,,1094,Moral,2025-03-05_13h06.57.269,MoralCondition_v2,2022.2.5,29.99976000358494,
8,0,8,0,6,0,6,0,,,,,,,,,,,,,,,,,,,,,,,,,,,,,,,,,,,,,,,,,,,,,,,,,,,,522.6902187999804,522.6902187999804,0.006992700044065714,0.09725640004035085,5.0,1.391369399963878,,,,,,,,,,,,,,1094,Moral,2025-03-05_13h06.57.269,MoralCondition_v2,2022.2.5,29.99976000358494,
8,0,8,0,,,,,,,,,,,,,,,,,,,,,,,,,,,,,,,,,,,,,,,,,,,,,,,,,,,,,,,,,,,,,,524.1237036000239,524.1237036000239,0.0007142000831663609,0.09912210004404187,2.0,2.8330686999252066,,,,,,,,1094,Moral,2025-03-05_13h06.57.269,MoralCondition_v2,2022.2.5,29.99976000358494,
9,0,9,0,0,0,0,0,,,,,,,,,,,,,,,,,,,,,526.990392299951,0.0002484000287950039,0.0978031000122428,533.006917300052,6.014713000040501,533.1734275999479,533.1734275999479,0.07718760007992387,0.18115990003570914,6.014480600017123,539.2734659999842,539.2734659999842,539.2734659999842,0.07721530005801469,0.18125580006744713,544.973714999971,545.1737167000538,6.014686700073071,6.114411700051278,551.1735961999511,12.014583700103685,551.3068270999938,551.3068270999938,0.014589700032956898,0.11459630005992949,up,8.473646700032987,559.840145300026,4.730001091957092e-05,0.09784429997671396,565.8406267999671,565.8406267999671,565.8406267999671,0.0060891000321134925,0.09787070006132126,3.0,2.292708400054835,,,,,,,539.1735121000092,539.1735121000092,551.2734798999736,551.2734798999736,,,,1094,Moral,2025-03-05_13h06.57.269,MoralCondition_v2,2022.2.5,29.99976000358494,
9,0,9,0,1,0,1,0,,,,,,,,,,,,,,,,,,,,,,,,,,,,,,,,,,,,,,,,,,,,,,,,,,,,568.1734729999444,568.1734729999444,0.009324999991804361,0.09745909995399415,5.0,1.7560830999864265,,,,,,,,,,,,,,1094,Moral,2025-03-05_13h06.57.269,MoralCondition_v2,2022.2.5,29.99976000358494,
9,0,9,0,2,0,2,0,,,,,,,,,,,,,,,,,,,,,,,,,,,,,,,,,,,,,,,,,,,,,,,,,,,,569.9900452999864,569.9900452999864,0.007383499993011355,0.11409879999700934,3.0,2.3076735000358894,,,,,,,,,,,,,,1094,Moral,2025-03-05_13h06.57.269,MoralCondition_v2,2022.2.5,29.99976000358494,
9,0,9,0,3,0,3,0,,,,,,,,,,,,,,,,,,,,,,,,,,,,,,,,,,,,,,,,,,,,,,,,,,,,572.3232917999849,572.3232917999849,0.0065351000521332026,0.09928450000006706,5.0,2.227010100032203,,,,,,,,,,,,,,1094,Moral,2025-03-05_13h06.57.269,MoralCondition_v2,2022.2.5,29.99976000358494,
9,0,9,0,4,0,4,0,,,,,,,,,,,,,,,,,,,,,,,,,,,,,,,,,,,,,,,,,,,,,,,,,,,,574.5900041999994,574.5900041999994,0.007181999972090125,0.09838420001324266,5.0,1.2924060999648646,,,,,,,,,,,,,,1094,Moral,2025-03-05_13h06.57.269,MoralCondition_v2,2022.2.5,29.99976000358494,
9,0,9,0,5,0,5,0,,,,,,,,,,,,,,,,,,,,,,,,,,,,,,,,,,,,,,,,,,,,,,,,,,,,575.9232385000214,575.9232385000214,0.007468299940228462,0.09821540000848472,4.0,2.5250043000560254,,,,,,,,,,,,,,1094,Moral,2025-03-05_13h06.57.269,MoralCondition_v2,2022.2.5,29.99976000358494,
9,0,9,0,6,0,6,0,,,,,,,,,,,,,,,,,,,,,,,,,,,,,,,,,,,,,,,,,,,,,,,,,,,,578.507127800025,578.507127800025,0.007722700014710426,0.11405790003482252,1.0,2.4072609998984262,,,,,,,,,,,,,,1094,Moral,2025-03-05_13h06.57.269,MoralCondition_v2,2022.2.5,29.99976000358494,
9,0,9,0,,,,,,,,,,,,,,,,,,,,,,,,,,,,,,,,,,,,,,,,,,,,,,,,,,,,,,,,,,,,,,580.9400075000012,580.9400075000012,0.000712099950760603,0.09929709997959435,6.0,2.633012800011784,,,,,,,,1094,Moral,2025-03-05_13h06.57.269,MoralCondition_v2,2022.2.5,29.99976000358494,
10,0,10,0,0,0,0,0,,,,,,,,,,,,,,,,,,,,,583.6068671999965,0.000305800000205636,0.09765540005173534,589.6232869999949,6.014156399993226,589.7900414000032,589.7900414000032,0.07656329998280853,0.18091470003128052,6.014370299992152,595.890021200059,595.890021200059,595.890021200059,0.07545670005492866,0.18110710009932518,601.5899200000567,601.7898594000144,6.014069400029257,6.114459100062959,607.7898801000556,12.014137500082143,607.9232507999986,607.9232507999986,0.014285200042650104,0.11445190012454987,up,0.49719899997580796,608.4565692000324,4.6200002543628216e-05,0.09805340005550534,,614.4734298000112,614.4734298000112,0.024127600016072392,0.11467520007863641,6.0,2.3582645000424236,,,,,,,595.7899054000154,595.7899054000154,607.8898796000285,607.8898796000285,,,,1094,Moral,2025-03-05_13h06.57.269,MoralCondition_v2,2022.2.5,29.99976000358494,
10,0,10,0,1,0,1,0,,,,,,,,,,,,,,,,,,,,,,,,,,,,,,,,,,,,,,,,,,,,,,,,,,,,616.8732321000425,616.8732321000425,0.008245800039730966,0.09691630001179874,5.0,3.05646400002297,,,,,,,,,,,,,,1094,Moral,2025-03-05_13h06.57.269,MoralCondition_v2,2022.2.5,29.99976000358494,
10,0,10,0,2,0,2,0,,,,,,,,,,,,,,,,,,,,,,,,,,,,,,,,,,,,,,,,,,,,,,,,,,,,619.9734932000283,619.9734932000283,0.007077099988237023,0.09755669999867678,3.0,2.0580245999153703,,,,,,,,,,,,,,1094,Moral,2025-03-05_13h06.57.269,MoralCondition_v2,2022.2.5,29.99976000358494,
10,0,10,0,3,0,3,0,,,,,,,,,,,,,,,,,,,,,,,,,,,,,,,,,,,,,,,,,,,,,,,,,,,,622.0733058999758,622.0733058999758,0.006652900017797947,0.09957680001389235,1.0,2.1267582000000402,,,,,,,,,,,,,,1094,Moral,2025-03-05_13h06.57.269,MoralCondition_v2,2022.2.5,29.99976000358494,
10,0,10,0,4,0,4,0,,,,,,,,,,,,,,,,,,,,,,,,,,,,,,,,,,,,,,,,,,,,,,,,,,,,624.2398633999983,624.2398633999983,0.0070862999418750405,0.09794110001530498,3.0,2.2587273000972345,,,,,,,,,,,,,,1094,Moral,2025-03-05_13h06.57.269,MoralCondition_v2,2022.2.5,29.99976000358494,
10,0,10,0,5,0,5,0,,,,,,,,,,,,,,,,,,,,,,,,,,,,,,,,,,,,,,,,,,,,,,,,,,,,626.539884799975,626.539884799975,0.006547000026330352,0.09937009995337576,3.0,1.1270856999326497,,,,,,,,,,,,,,1094,Moral,2025-03-05_13h06.57.269,MoralCondition_v2,2022.2.5,29.99976000358494,
10,0,10,0,6,0,6,0,,,,,,,,,,,,,,,,,,,,,,,,,,,,,,,,,,,,,,,,,,,,,,,,,,,,627.7063228000188,627.7063228000188,0.006540999980643392,0.09932180005125701,5.0,2.0607024000491947,,,,,,,,,,,,,,1094,Moral,2025-03-05_13h06.57.269,MoralCondition_v2,2022.2.5,29.99976000358494,
10,0,10,0,,,,,,,,,,,,,,,,,,,,,,,,,,,,,,,,,,,,,,,,,,,,,,,,,,,,,,,,,,,,,,629.8063849000027,629.8063849000027,0.0014152000658214092,0.09770929999649525,6.0,1.8309540000045672,,,,,,,,1094,Moral,2025-03-05_13h06.57.269,MoralCondition_v2,2022.2.5,29.99976000358494,
11,0,11,0,0,0,0,0,,,,,,,,,,,,,,,,,,,,,631.6734841000289,0.0001401000190526247,0.09921519993804395,637.6730836000061,5.9991947000380605,637.8397191000404,637.8397191000404,0.05424109997693449,0.16580830002203584,5.999520899960771,643.9400184999686,643.9400184999686,643.9400184999686,0.051113300025463104,0.1659676000708714,649.6396782000083,649.8397158000153,5.999164400040172,6.09912989998702,655.8396608999465,11.999105800059624,655.9731335999677,655.9731335999677,-4.369998350739479e-05,0.0990207000868395,up,0.5592966000549495,656.5729904000182,4.0499959141016006e-05,0.09789709991309792,662.5895582999801,662.5895582999801,662.5895582999801,0.008700699894689023,0.11475739988964051,5.0,1.9400643999688327,,,,,,,643.8397190000396,643.8397190000396,655.9396854999941,655.9396854999941,6.099364900030196,6.099161499994807,12.09913340001367,1094,Moral,2025-03-05_13h06.57.269,MoralCondition_v2,2022.2.5,29.99976000358494,
11,0,11,0,1,0,1,0,,,,,,,,,,,,,,,,,,,,,,,,,,,,,,,,,,,,,,,,,,,,,,,,,,,,664.5561972999712,664.5561972999712,0.0076367000583559275,0.09778900002129376,5.0,1.1908754999749362,,,,,,,,,,,,,,1094,Moral,2025-03-05_13h06.57.269,MoralCondition_v2,2022.2.5,29.99976000358494,
11,0,11,0,2,0,2,0,,,,,,,,,,,,,,,,,,,,,,,,,,,,,,,,,,,,,,,,,,,,,,,,,,,,665.8061079999898,665.8061079999898,0.008749200031161308,0.11610460001975298,3.0,2.2581274000694975,,,,,,,,,,,,,,1094,Moral,2025-03-05_13h06.57.269,MoralCondition_v2,2022.2.5,29.99976000358494,
11,0,11,0,3,0,3,0,,,,,,,,,,,,,,,,,,,,,,,,,,,,,,,,,,,,,,,,,,,,,,,,,,,,668.0895080999471,668.0895080999471,0.005705800023861229,0.09949549997691065,3.0,3.9114625999936834,,,,,,,,,,,,,,1094,Moral,2025-03-05_13h06.57.269,MoralCondition_v2,2022.2.5,29.99976000358494,
11,0,11,0,4,0,4,0,,,,,,,,,,,,,,,,,,,,,,,,,,,,,,,,,,,,,,,,,,,,,,,,,,,,672.0564453999978,672.0564453999978,0.007839500089176,0.11432330007664859,3.0,1.8407938999589533,,,,,,,,,,,,,,1094,Moral,2025-03-05_13h06.57.269,MoralCondition_v2,2022.2.5,29.99976000358494,
11,0,11,0,5,0,5,0,,,,,,,,,,,,,,,,,,,,,,,,,,,,,,,,,,,,,,,,,,,,,,,,,,,,673.9229279999854,673.9229279999854,0.007749699987471104,0.0978637000080198,1.0,2.0578379000071436,,,,,,,,,,,,,,1094,Moral,2025-03-05_13h06.57.269,MoralCondition_v2,2022.2.5,29.99976000358494,
11,0,11,0,6,0,6,0,,,,,,,,,,,,,,,,,,,,,,,,,,,,,,,,,,,,,,,,,,,,,,,,,,,,676.0229963000165,676.0229963000165,0.006079600076191127,0.09954590001143515,6.0,3.4277543000644073,,,,,,,,,,,,,,1094,Moral,2025-03-05_13h06.57.269,MoralCondition_v2,2022.2.5,29.99976000358494,
11,0,11,0,,,,,,,,,,,,,,,,,,,,,,,,,,,,,,,,,,,,,,,,,,,,,,,,,,,,,,,,,,,,,,679.489554699976,679.489554699976,0.0007078000344336033,0.09925550001207739,6.0,0.932950499933213,,,,,,,,1094,Moral,2025-03-05_13h06.57.269,MoralCondition_v2,2022.2.5,29.99976000358494,
12,0,12,0,0,0,0,0,,,,,,,,,,,,,,,,,,,,,680.4563929999713,0.00013639999087899923,0.09924580005463213,686.456044999999,6.015916600008495,686.6226861999603,686.6226861999603,0.053643599967472255,0.16563140007201582,5.999165800050832,692.7229493999621,692.7229493999621,692.7229493999621,0.05139660008717328,0.16583000007085502,698.4228984999936,698.6228155000135,5.999194400035776,6.0991169000044465,704.6227618999546,11.999159200000577,704.756096099969,704.756096099969,0.00012250011786818504,0.09901500004343688,up,0.5759707000106573,705.3894314999925,4.499999340623617e-05,0.09787800000049174,,711.4060640999814,711.4060640999814,0.02555340004619211,0.11455330008175224,3.0,2.5899406999815255,,,,,,,692.6228130999953,692.6228130999953,704.7229111000197,704.7229111000197,6.09907600004226,6.099207699997351,12.099305200041272,1094,Moral,2025-03-05_13h06.57.269,MoralCondition_v2,2022.2.5,29.99976000358494,
12,0,12,0,1,0,1,0,,,,,,,,,,,,,,,,,,,,,,,,,,,,,,,,,,,,,,,,,,,,,,,,,,,,714.0394606000045,714.0394606000045,0.006373099982738495,0.09896470000967383,5.0,1.526842699968256,,,,,,,,,,,,,,1094,Moral,2025-03-05_13h06.57.269,MoralCondition_v2,2022.2.5,29.99976000358494,
12,0,12,0,2,0,2,0,,,,,,,,,,,,,,,,,,,,,,,,,,,,,,,,,,,,,,,,,,,,,,,,,,,,715.6058892000001,715.6058892000001,0.006291500059887767,0.09901250002440065,3.0,1.427142900065519,,,,,,,,,,,,,,1094,Moral,2025-03-05_13h06.57.269,MoralCondition_v2,2022.2.5,29.99976000358494,
12,0,12,0,3,0,3,0,,,,,,,,,,,,,,,,,,,,,,,,,,,,,,,,,,,,,,,,,,,,,,,,,,,,717.0727523999522,717.0727523999522,0.007318899966776371,0.09741899999789894,1.0,1.857965699979104,,,,,,,,,,,,,,1094,Moral,2025-03-05_13h06.57.269,MoralCondition_v2,2022.2.5,29.99976000358494,
12,0,12,0,4,0,4,0,,,,,,,,,,,,,,,,,,,,,,,,,,,,,,,,,,,,,,,,,,,,,,,,,,,,718.9726745999651,718.9726745999651,0.006939099985174835,0.09851809998508543,6.0,1.792557300068438,,,,,,,,,,,,,,1094,Moral,2025-03-05_13h06.57.269,MoralCondition_v2,2022.2.5,29.99976000358494,
12,0,12,0,5,0,5,0,,,,,,,,,,,,,,,,,,,,,,,,,,,,,,,,,,,,,,,,,,,,,,,,,,,,720.8226679000072,720.8226679000072,0.009801900014281273,0.11584680003579706,3.0,1.4735958999954164,,,,,,,,,,,,,,1094,Moral,2025-03-05_13h06.57.269,MoralCondition_v2,2022.2.5,29.99976000358494,
12,0,12,0,6,0,6,0,,,,,,,,,,,,,,,,,,,,,,,,,,,,,,,,,,,,,,,,,,,,,,,,,,,,722.3225594999967,722.3225594999967,0.006815799977630377,0.09842779999598861,5.0,1.5595922999782488,,,,,,,,,,,,,,1094,Moral,2025-03-05_13h06.57.269,MoralCondition_v2,2022.2.5,29.99976000358494,
12,0,12,0,,,,,,,,,,,,,,,,,,,,,,,,,,,,,,,,,,,,,,,,,,,,,,,,,,,,,,,,,,,,,,723.9229148000013,723.9229148000013,0.0006885000038892031,0.09900960000231862,6.0,1.4996692999266088,,,,,,,,1094,Moral,2025-03-05_13h06.57.269,MoralCondition_v2,2022.2.5,29.99976000358494,
13,0,13,0,0,0,0,0,,,,,,,,,,,,,,,,,,,,,725.4562838999555,0.00016059994231909513,0.09910120000131428,731.4726808000123,6.015611400012858,731.6393985999748,731.6393985999748,0.06952430005185306,0.18252679996658117,6.015753000043333,737.7391506000422,737.7391506000422,737.7391506000422,0.0684004999930039,0.1823075000429526,743.4395681000315,743.6392804000061,6.015647400054149,6.115619800053537,749.639318499947,12.015688500017859,749.7727172999876,749.7727172999876,0.015733800013549626,0.11577090003993362,up,1.111483099986799,750.9225620999932,4.700000863522291e-05,0.09772419999353588,756.9228614999447,756.9228614999447,756.9228614999447,0.008611099910922348,0.09765559993684292,3.0,2.1899380000540987,,,,,,,737.6392665000167,737.6392665000167,749.7392148999497,749.7392148999497,,,,1094,Moral,2025-03-05_13h06.57.269,MoralCondition_v2,2022.2.5,29.99976000358494,
13,0,13,0,1,0,1,0,,,,,,,,,,,,,,,,,,,,,,,,,,,,,,,,,,,,,,,,,,,,,,,,,,,,759.1560071000131,759.1560071000131,0.007535299984738231,0.09748080000281334,6.0,1.4578969000140205,,,,,,,,,,,,,,1094,Moral,2025-03-05_13h06.57.269,MoralCondition_v2,2022.2.5,29.99976000358494,
13,0,13,0,2,0,2,0,,,,,,,,,,,,,,,,,,,,,,,,,,,,,,,,,,,,,,,,,,,,,,,,,,,,760.6558490999741,760.6558490999741,0.006606800016015768,0.09911259997170419,3.0,1.593471199972555,,,,,,,,,,,,,,1094,Moral,2025-03-05_13h06.57.269,MoralCondition_v2,2022.2.5,29.99976000358494,
13,0,13,0,3,0,3,0,,,,,,,,,,,,,,,,,,,,,,,,,,,,,,,,,,,,,,,,,,,,,,,,,,,,762.2891238000011,762.2891238000011,0.0065200000535696745,0.09922630002256483,5.0,1.4268790000351146,,,,,,,,,,,,,,1094,Moral,2025-03-05_13h06.57.269,MoralCondition_v2,2022.2.5,29.99976000358494,
13,0,13,0,4,0,4,0,,,,,,,,,,,,,,,,,,,,,,,,,,,,,,,,,,,,,,,,,,,,,,,,,,,,763.7727748999605,763.7727748999605,0.0077624000841751695,0.11402790003921837,1.0,1.407707699923776,,,,,,,,,,,,,,1094,Moral,2025-03-05_13h06.57.269,MoralCondition_v2,2022.2.5,29.99976000358494,
13,0,13,0,5,0,5,0,,,,,,,,,,,,,,,,,,,,,,,,,,,,,,,,,,,,,,,,,,,,,,,,,,,,765.2058878999669,765.2058878999669,0.008831600076518953,0.09922490001190454,5.0,2.1247838999843225,,,,,,,,,,,,,,1094,Moral,2025-03-05_13h06.57.269,MoralCondition_v2,2022.2.5,29.99976000358494,
13,0,13,0,6,0,6,0,,,,,,,,,,,,,,,,,,,,,,,,,,,,,,,,,,,,,,,,,,,,,,,,,,,,767.389360900037,767.389360900037,0.009031099965795875,0.11398149991873652,3.0,1.8063497999683022,,,,,,,,,,,,,,1094,Moral,2025-03-05_13h06.57.269,MoralCondition_v2,2022.2.5,29.99976000358494,
13,0,13,0,,,,,,,,,,,,,,,,,,,,,,,,,,,,,,,,,,,,,,,,,,,,,,,,,,,,,,,,,,,,,,769.2226719999453,769.2226719999453,0.0010790000669658184,0.09821280010510236,6.0,1.4652559000533074,,,,,,,,1094,Moral,2025-03-05_13h06.57.269,MoralCondition_v2,2022.2.5,29.99976000358494,
14,0,14,0,0,0,0,0,,,,,,,,,,,,,,,,,,,,,770.722532200045,0.00015050009824335575,0.09926779998932034,776.7390699000098,6.01586300006602,776.9057479000185,776.9057479000185,0.0697370000416413,0.1828057001112029,6.015838700113818,783.0059264999582,783.0059264999582,783.0059264999582,0.06835950014647096,0.18267410004045814,788.7057615000522,788.9057511000428,6.015877000056207,6.115826900117099,794.9058042999823,12.015951300039887,795.039177000057,795.039177000057,0.016069100121967494,0.11580000014510006,up,0.5813975000055507,795.6723679000279,5.0699920393526554e-05,0.09792540001217276,,801.7059302000562,801.7059302000562,0.025451299967244267,0.13126609998289496,5.0,1.7066760000307113,,,,,,,782.9060800999869,782.9060800999869,795.0057428999571,795.0057428999571,,,,1094,Moral,2025-03-05_13h06.57.269,MoralCondition_v2,2022.2.5,29.99976000358494,
14,0,14,0,1,0,1,0,,,,,,,,,,,,,,,,,,,,,,,,,,,,,,,,,,,,,,,,,,,,,,,,,,,,803.4389215999981,803.4389215999981,0.007496900041587651,0.09805750008672476,3.0,1.7251800000667572,,,,,,,,,,,,,,1094,Moral,2025-03-05_13h06.57.269,MoralCondition_v2,2022.2.5,29.99976000358494,
14,0,14,0,2,0,2,0,,,,,,,,,,,,,,,,,,,,,,,,,,,,,,,,,,,,,,,,,,,,,,,,,,,,805.2226271999534,805.2226271999534,0.010119499987922609,0.11375569994561374,3.0,1.004615299985744,,,,,,,,,,,,,,1094,Moral,2025-03-05_13h06.57.269,MoralCondition_v2,2022.2.5,29.99976000358494,
14,0,14,0,3,0,3,0,,,,,,,,,,,,,,,,,,,,,,,,,,,,,,,,,,,,,,,,,,,,,,,,,,,,806.2557535000378,806.2557535000378,0.008103800006210804,0.09789699991233647,6.0,1.957354599959217,,,,,,,,,,,,,,1094,Moral,2025-03-05_13h06.57.269,MoralCondition_v2,2022.2.5,29.99976000358494,
14,0,14,0,4,0,4,0,,,,,,,,,,,,,,,,,,,,,,,,,,,,,,,,,,,,,,,,,,,,,,,,,,,,808.255762899993,808.255762899993,0.008972699986770749,0.09730739996302873,1.0,1.8558919000206515,,,,,,,,,,,,,,1094,Moral,2025-03-05_13h06.57.269,MoralCondition_v2,2022.2.5,29.99976000358494,
14,0,14,0,5,0,5,0,,,,,,,,,,,,,,,,,,,,,,,,,,,,,,,,,,,,,,,,,,,,,,,,,,,,810.1725831000367,810.1725831000367,0.008238499984145164,0.11443539999891073,3.0,5.440504599944688,,,,,,,,,,,,,,1094,Moral,2025-03-05_13h06.57.269,MoralCondition_v2,2022.2.5,29.99976000358494,
14,0,14,0,6,0,6,0,,,,,,,,,,,,,,,,,,,,,,,,,,,,,,,,,,,,,,,,,,,,,,,,,,,,815.638856900041,815.638856900041,0.007098800037056208,0.09802649996709079,5.0,1.692481099977158,,,,,,,,,,,,,,1094,Moral,2025-03-05_13h06.57.269,MoralCondition_v2,2022.2.5,29.99976000358494,
14,0,14,0,,,,,,,,,,,,,,,,,,,,,,,,,,,,,,,,,,,,,,,,,,,,,,,,,,,,,,,,,,,,,,817.3723971999716,817.3723971999716,0.0007252000505104661,0.09902189997956157,6.0,1.2996662999503314,,,,,,,,1094,Moral,2025-03-05_13h06.57.269,MoralCondition_v2,2022.2.5,29.99976000358494,
15,0,15,0,0,0,0,0,,,,,,,,,,,,,,,,,,,,,818.705947099952,0.00023380003403872252,0.09910820005461574,824.6888270999771,5.9991542000789195,824.8554645000258,824.8554645000258,0.04362890007905662,0.14919890009332448,6.015606800094247,830.9888918000506,830.9888918000506,830.9888918000506,0.07579060003627092,0.18257940013427287,836.688792000059,836.8889129000017,6.0157521000364795,6.115575700066984,842.8888083000202,12.015684400103055,843.0221173999598,843.0221173999598,0.015773800085298717,0.11573250009678304,up,0.518567500053905,843.5888005000306,4.529999569058418e-05,0.0980324000120163,849.5886678999523,849.5886678999523,849.5886678999523,0.009368699975311756,0.09798429999500513,6.0,2.2562809999799356,,,,,,,830.8555123000406,830.8555123000406,842.9888021999504,842.9888021999504,6.082227500039153,,,1094,Moral,2025-03-05_13h06.57.269,MoralCondition_v2,2022.2.5,29.99976000358494,
15,0,15,0,1,0,1,0,,,,,,,,,,,,,,,,,,,,,,,,,,,,,,,,,,,,,,,,,,,,,,,,,,,,851.8886747000506,851.8886747000506,0.006591800018213689,0.09892770007718354,2.0,3.526869200053625,,,,,,,,,,,,,,1094,Moral,2025-03-05_13h06.57.269,MoralCondition_v2,2022.2.5,29.99976000358494,
15,0,15,0,2,0,2,0,,,,,,,,,,,,,,,,,,,,,,,,,,,,,,,,,,,,,,,,,,,,,,,,,,,,855.4554413000587,855.4554413000587,0.007005400024354458,0.09837240003980696,5.0,1.6923691000556573,,,,,,,,,,,,,,1094,Moral,2025-03-05_13h06.57.269,MoralCondition_v2,2022.2.5,29.99976000358494,
15,0,15,0,3,0,3,0,,,,,,,,,,,,,,,,,,,,,,,,,,,,,,,,,,,,,,,,,,,,,,,,,,,,857.2054560000543,857.2054560000543,0.008783199940808117,0.11440929991658777,3.0,1.7397614000365138,,,,,,,,,,,,,,1094,Moral,2025-03-05_13h06.57.269,MoralCondition_v2,2022.2.5,29.99976000358494,
15,0,15,0,4,0,4,0,,,,,,,,,,,,,,,,,,,,,,,,,,,,,,,,,,,,,,,,,,,,,,,,,,,,858.9889817000367,858.9889817000367,0.009152199956588447,0.11440940003376454,5.0,1.8392726999009028,,,,,,,,,,,,,,1094,Moral,2025-03-05_13h06.57.269,MoralCondition_v2,2022.2.5,29.99976000358494,
15,0,15,0,5,0,5,0,,,,,,,,,,,,,,,,,,,,,,,,,,,,,,,,,,,,,,,,,,,,,,,,,,,,860.8724104999565,860.8724104999565,0.0075261000311002135,0.11410950007848442,3.0,2.1406911000376567,,,,,,,,,,,,,,1094,Moral,2025-03-05_13h06.57.269,MoralCondition_v2,2022.2.5,29.99976000358494,
15,0,15,0,6,0,6,0,,,,,,,,,,,,,,,,,,,,,,,,,,,,,,,,,,,,,,,,,,,,,,,,,,,,863.0387897000182,863.0387897000182,0.007728500058874488,0.09766190010122955,1.0,1.6907928000437096,,,,,,,,,,,,,,1094,Moral,2025-03-05_13h06.57.269,MoralCondition_v2,2022.2.5,29.99976000358494,
15,0,15,0,,,,,,,,,,,,,,,,,,,,,,,,,,,,,,,,,,,,,,,,,,,,,,,,,,,,,,,,,,,,,,864.7719504999695,864.7719504999695,0.0007020999910309911,0.09919800003990531,6.0,1.7661261999746785,,,,,,,,1094,Moral,2025-03-05_13h06.57.269,MoralCondition_v2,2022.2.5,29.99976000358494,
16,0,16,0,0,0,0,0,,,,,,,,,,,,,,,,,,,,,866.5724085000111,0.00013129995204508305,0.09936589992139488,872.5886701999698,6.015777799999341,872.7556871999986,872.7556871999986,0.07157559995539486,0.18244640005286783,6.015874000033364,878.8388508999487,878.8388508999487,878.8388508999487,0.0670549999922514,0.16604190005455166,884.5385915000224,884.7719649999635,5.999059200054035,6.0991001999937,890.7720308999997,11.999000400071964,890.8719617000315,890.8719617000315,5.1600043661892414e-05,0.09901590005028993,down,0.5240180999971926,891.4554319999879,5.440006498247385e-05,0.09783290000632405,897.4553474000422,897.4553474000422,897.4553474000422,0.008825400029309094,0.09790559997782111,6.0,2.856939399964176,,,,,,,878.73851559998,878.73851559998,890.8386664000573,890.8386664000573,,,12.099155500065535,1094,Moral,2025-03-05_13h06.57.269,MoralCondition_v2,2022.2.5,29.99976000358494,
16,0,16,0,1,0,1,0,,,,,,,,,,,,,,,,,,,,,,,,,,,,,,,,,,,,,,,,,,,,,,,,,,,,900.3550727999536,900.3550727999536,0.009034199989400804,0.09921929996926337,6.0,1.2579190999967977,,,,,,,,,,,,,,1094,Moral,2025-03-05_13h06.57.269,MoralCondition_v2,2022.2.5,29.99976000358494,
16,0,16,0,2,0,2,0,,,,,,,,,,,,,,,,,,,,,,,,,,,,,,,,,,,,,,,,,,,,,,,,,,,,901.672308200039,901.672308200039,0.008690699934959412,0.11396969994530082,5.0,3.773541899980046,,,,,,,,,,,,,,1094,Moral,2025-03-05_13h06.57.269,MoralCondition_v2,2022.2.5,29.99976000358494,
16,0,16,0,3,0,3,0,,,,,,,,,,,,,,,,,,,,,,,,,,,,,,,,,,,,,,,,,,,,,,,,,,,,905.4720119000413,905.4720119000413,0.0074430000968277454,0.09757940005511045,5.0,1.8911905999993905,,,,,,,,,,,,,,1094,Moral,2025-03-05_13h06.57.269,MoralCondition_v2,2022.2.5,29.99976000358494,
16,0,16,0,4,0,4,0,,,,,,,,,,,,,,,,,,,,,,,,,,,,,,,,,,,,,,,,,,,,,,,,,,,,907.4050409999909,907.4050409999909,0.006706000072881579,0.09920400008559227,4.0,2.49351140006911,,,,,,,,,,,,,,1094,Moral,2025-03-05_13h06.57.269,MoralCondition_v2,2022.2.5,29.99976000358494,
16,0,16,0,5,0,5,0,,,,,,,,,,,,,,,,,,,,,,,,,,,,,,,,,,,,,,,,,,,,,,,,,,,,909.938972700038,909.938972700038,0.008134300005622208,0.09788020001724362,1.0,1.8909247999545187,,,,,,,,,,,,,,1094,Moral,2025-03-05_13h06.57.269,MoralCondition_v2,2022.2.5,29.99976000358494,
16,0,16,0,6,0,6,0,,,,,,,,,,,,,,,,,,,,,,,,,,,,,,,,,,,,,,,,,,,,,,,,,,,,911.8719256999902,911.8719256999902,0.006599700078368187,0.09932290005963296,5.0,3.360370299895294,,,,,,,,,,,,,,1094,Moral,2025-03-05_13h06.57.269,MoralCondition_v2,2022.2.5,29.99976000358494,
16,0,16,0,,,,,,,,,,,,,,,,,,,,,,,,,,,,,,,,,,,,,,,,,,,,,,,,,,,,,,,,,,,,,,915.2720056000398,915.2720056000398,0.0015143000055104494,0.09814000001642853,1.0,2.9973184999544173,,,,,,,,1094,Moral,2025-03-05_13h06.57.269,MoralCondition_v2,2022.2.5,29.99976000358494,
17,0,17,0,0,0,0,0,,,,,,,,,,,,,,,,,,,,,918.3049885999644,0.00019100005738437176,0.09830730000976473,924.3216995999683,6.015132499975152,924.4882874999894,924.4882874999894,0.07574820006266236,0.18178930005524307,6.014967700000852,930.588557500043,930.588557500043,930.588557500043,0.07248600001912564,0.18182400008663535,936.2884030999849,936.488417900051,6.015173300052993,6.115077100112103,942.488298799959,12.01505360007286,942.6216595000587,942.6216595000587,0.01523850008379668,0.1150846000527963,up,0.566395299974829,943.221679899958,8.809997234493494e-05,0.09746550000272691,,949.2549882000312,949.2549882000312,0.025264599942602217,0.13087699993047863,5.0,1.8730870001018047,,,,,,,930.4884108999977,930.4884108999977,942.5883346999763,942.5883346999763,,,,1094,Moral,2025-03-05_13h06.57.269,MoralCondition_v2,2022.2.5,29.99976000358494,
17,0,17,0,1,0,1,0,,,,,,,,,,,,,,,,,,,,,,,,,,,,,,,,,,,,,,,,,,,,,,,,,,,,951.1718414999777,951.1718414999777,0.009001300088129938,0.11424180003814399,2.0,2.1063466999912634,,,,,,,,,,,,,,1094,Moral,2025-03-05_13h06.57.269,MoralCondition_v2,2022.2.5,29.99976000358494,
17,0,17,0,2,0,2,0,,,,,,,,,,,,,,,,,,,,,,,,,,,,,,,,,,,,,,,,,,,,,,,,,,,,953.3048938000575,953.3048938000575,0.008752799942158163,0.09919029998127371,5.0,1.8579490000847727,,,,,,,,,,,,,,1094,Moral,2025-03-05_13h06.57.269,MoralCondition_v2,2022.2.5,29.99976000358494,
17,0,17,0,3,0,3,0,,,,,,,,,,,,,,,,,,,,,,,,,,,,,,,,,,,,,,,,,,,,,,,,,,,,955.2048643999733,955.2048643999733,0.007894300040788949,0.0977093999972567,6.0,2.7576221999479458,,,,,,,,,,,,,,1094,Moral,2025-03-05_13h06.57.269,MoralCondition_v2,2022.2.5,29.99976000358494,
17,0,17,0,4,0,4,0,,,,,,,,,,,,,,,,,,,,,,,,,,,,,,,,,,,,,,,,,,,,,,,,,,,,958.0050108999712,958.0050108999712,0.006614799960516393,0.09923069993965328,3.0,1.5602700000163168,,,,,,,,,,,,,,1094,Moral,2025-03-05_13h06.57.269,MoralCondition_v2,2022.2.5,29.99976000358494,
17,0,17,0,5,0,5,0,,,,,,,,,,,,,,,,,,,,,,,,,,,,,,,,,,,,,,,,,,,,,,,,,,,,959.6050019999966,959.6050019999966,0.006677600089460611,0.09927190002053976,1.0,2.060091199935414,,,,,,,,,,,,,,1094,Moral,2025-03-05_13h06.57.269,MoralCondition_v2,2022.2.5,29.99976000358494,
17,0,17,0,6,0,6,0,,,,,,,,,,,,,,,,,,,,,,,,,,,,,,,,,,,,,,,,,,,,,,,,,,,,961.7047512000427,961.7047512000427,0.0068125000689178705,0.09930190001614392,3.0,1.5268039000220597,,,,,,,,,,,,,,1094,Moral,2025-03-05_13h06.57.269,MoralCondition_v2,2022.2.5,29.99976000358494,
17,0,17,0,,,,,,,,,,,,,,,,,,,,,,,,,,,,,,,,,,,,,,,,,,,,,,,,,,,,,,,,,,,,,,963.2716342000058,963.2716342000058,0.0012323000701144338,0.09779909998178482,6.0,2.4309587000170723,,,,,,,,1094,Moral,2025-03-05_13h06.57.269,MoralCondition_v2,2022.2.5,29.99976000358494,
18,0,18,0,0,0,0,0,,,,,,,,,,,,,,,,,,,,,965.7384263999993,0.0001404000213369727,0.09933830006048083,971.7382797000464,5.999033999978565,971.9049571000505,971.9049571000505,0.062306700041517615,0.16564510005991906,5.999109400087036,978.0048627000069,978.0048627000069,978.0048627000069,0.059613200020976365,0.16600180009845644,983.7048199999845,983.9382777999854,6.032424000091851,6.13221550011076,989.9381290000165,12.032274800003506,990.0714402999729,990.0714402999729,0.032497000065632164,0.13220980006735772,down,0.5406215001130477,990.671434000018,4.7699897550046444e-05,0.09785039990674704,996.6883699999889,996.6883699999889,996.6883699999889,0.009122899966314435,0.11446429998613894,5.0,4.0062932999571785,,,,,,,977.904946399969,977.904946399969,990.0047949999571,990.0047949999571,6.09898760006763,6.099106200039387,,1094,Moral,2025-03-05_13h06.57.269,MoralCondition_v2,2022.2.5,29.99976000358494,
18,0,18,0,1,0,1,0,,,,,,,,,,,,,,,,,,,,,,,,,,,,,,,,,,,,,,,,,,,,,,,,,,,,1000.7214408,1000.7214408,0.006573399994522333,0.0990918999304995,5.0,2.260188299929723,,,,,,,,,,,,,,1094,Moral,2025-03-05_13h06.57.269,MoralCondition_v2,2022.2.5,29.99976000358494,
18,0,18,0,2,0,2,0,,,,,,,,,,,,,,,,,,,,,,,,,,,,,,,,,,,,,,,,,,,,,,,,,,,,1003.0384150999598,1003.0384150999598,0.008334600017406046,0.11446870001964271,5.0,1.5074883999768645,,,,,,,,,,,,,,1094,Moral,2025-03-05_13h06.57.269,MoralCondition_v2,2022.2.5,29.99976000358494,
18,0,18,0,3,0,3,0,,,,,,,,,,,,,,,,,,,,,,,,,,,,,,,,,,,,,,,,,,,,,,,,,,,,1004.5712564999703,1004.5712564999703,0.007442299975082278,0.09831989998929203,1.0,1.7916805999120697,,,,,,,,,,,,,,1094,Moral,2025-03-05_13h06.57.269,MoralCondition_v2,2022.2.5,29.99976000358494,
18,0,18,0,4,0,4,0,,,,,,,,,,,,,,,,,,,,,,,,,,,,,,,,,,,,,,,,,,,,,,,,,,,,1006.4048255999805,1006.4048255999805,0.007043299963697791,0.09934139996767044,6.0,1.7599975999910384,,,,,,,,,,,,,,1094,Moral,2025-03-05_13h06.57.269,MoralCondition_v2,2022.2.5,29.99976000358494,
18,0,18,0,5,0,5,0,,,,,,,,,,,,,,,,,,,,,,,,,,,,,,,,,,,,,,,,,,,,,,,,,,,,1008.2046146000503,1008.2046146000503,0.006495400099083781,0.09927750006318092,6.0,1.0940981999738142,,,,,,,,,,,,,,1094,Moral,2025-03-05_13h06.57.269,MoralCondition_v2,2022.2.5,29.99976000358494,
18,0,18,0,6,0,6,0,,,,,,,,,,,,,,,,,,,,,,,,,,,,,,,,,,,,,,,,,,,,,,,,,,,,1009.3379923000466,1009.3379923000466,0.006523500080220401,0.09917210007552058,5.0,1.7937917999224737,,,,,,,,,,,,,,1094,Moral,2025-03-05_13h06.57.269,MoralCondition_v2,2022.2.5,29.99976000358494,
18,0,18,0,,,,,,,,,,,,,,,,,,,,,,,,,,,,,,,,,,,,,,,,,,,,,,,,,,,,,,,,,,,,,,1011.1715283000376,1011.1715283000376,0.0015697999624535441,0.09743409999646246,2.0,2.4971163000445813,,,,,,,,1094,Moral,2025-03-05_13h06.57.269,MoralCondition_v2,2022.2.5,29.99976000358494,
19,0,19,0,0,0,0,0,,,,,,,,,,,,,,,,,,,,,1013.7048987000016,0.0002994999522343278,0.09811829996760935,1019.7046446000459,6.031373799894936,1019.9048123999964,1019.9048123999964,0.08981259993743151,0.19829929992556572,6.031293699983507,1026.004705999978,1026.004705999978,1026.004705999978,0.08799839997664094,0.19806660001631826,1031.7045839000493,1031.904690299998,6.031444299966097,6.131254300009459,1037.9045571000315,12.031305099953897,1038.0378629999468,1038.0378629999468,0.031478999997489154,0.1312354999827221,up,1.2303841999964789,1039.3045186999952,3.300001844763756e-05,0.09772070008330047,,1045.3211084000068,1045.3211084000068,0.02527159999590367,0.11443850002251565,6.0,2.2234309000195935,,,,,,,1025.9046121999854,1025.9046121999854,1038.004558900022,1038.004558900022,,,,1094,Moral,2025-03-05_13h06.57.269,MoralCondition_v2,2022.2.5,29.99976000358494,
19,0,19,0,1,0,1,0,,,,,,,,,,,,,,,,,,,,,,,,,,,,,,,,,,,,,,,,,,,,,,,,,,,,1047.5879288000287,1047.5879288000287,0.006531200022436678,0.09908319998066872,1.0,2.1268644999945536,,,,,,,,,,,,,,1094,Moral,2025-03-05_13h06.57.269,MoralCondition_v2,2022.2.5,29.99976000358494,
19,0,19,0,2,0,2,0,,,,,,,,,,,,,,,,,,,,,,,,,,,,,,,,,,,,,,,,,,,,,,,,,,,,1049.7544829000253,1049.7544829000253,0.0066532999044284225,0.0991967999143526,1.0,1.5273412000387907,,,,,,,,,,,,,,1094,Moral,2025-03-05_13h06.57.269,MoralCondition_v2,2022.2.5,29.99976000358494,
19,0,19,0,3,0,3,0,,,,,,,,,,,,,,,,,,,,,,,,,,,,,,,,,,,,,,,,,,,,,,,,,,,,1051.3211182999657,1051.3211182999657,0.006763899931684136,0.09855739993508905,4.0,3.426083799917251,,,,,,,,,,,,,,1094,Moral,2025-03-05_13h06.57.269,MoralCondition_v2,2022.2.5,29.99976000358494,
19,0,19,0,4,0,4,0,,,,,,,,,,,,,,,,,,,,,,,,,,,,,,,,,,,,,,,,,,,,,,,,,,,,1054.7877885999624,1054.7877885999624,0.007621400058269501,0.09764090005774051,3.0,2.3242115000030026,,,,,,,,,,,,,,1094,Moral,2025-03-05_13h06.57.269,MoralCondition_v2,2022.2.5,29.99976000358494,
19,0,19,0,5,0,5,0,,,,,,,,,,,,,,,,,,,,,,,,,,,,,,,,,,,,,,,,,,,,,,,,,,,,1057.1545966999838,1057.1545966999838,0.006479099974967539,0.0992270999122411,5.0,2.594267199980095,,,,,,,,,,,,,,1094,Moral,2025-03-05_13h06.57.269,MoralCondition_v2,2022.2.5,29.99976000358494,
19,0,19,0,6,0,6,0,,,,,,,,,,,,,,,,,,,,,,,,,,,,,,,,,,,,,,,,,,,,,,,,,,,,1059.787876300048,1059.787876300048,0.0064845000160858035,0.09948930004611611,3.0,1.4606704000616446,,,,,,,,,,,,,,1094,Moral,2025-03-05_13h06.57.269,MoralCondition_v2,2022.2.5,29.99976000358494,
19,0,19,0,,,,,,,,,,,,,,,,,,,,,,,,,,,,,,,,,,,,,,,,,,,,,,,,,,,,,,,,,,,,,,1061.2878569000168,1061.2878569000168,0.0006650000577792525,0.09928229998331517,6.0,1.7997715999372303,,,,,,,,1094,Moral,2025-03-05_13h06.57.269,MoralCondition_v2,2022.2.5,29.99976000358494,
