loop.thisRepN,loop.thisTrialN,loop.thisN,loop.thisIndex,evaluate_all_emotions.thisRepN,evaluate_all_emotions.thisTrialN,evaluate_all_emotions.thisN,evaluate_all_emotions.thisIndex,sync_beep_1.started,p_port.started,p_port.stopped,sync_beep_1.stopped,sync_beep_2.started,sync_beep_3.started,sync_beep_3.stopped,sync_beep_4.started,sync_beep_4.stopped,baseline.started,p_port_2.started,p_port_2.stopped,baseline.stopped,p_port_3.started,Game_Start_Text.started,p_port_4.started,p_port_4.stopped,key_resp.started,key_resp.keys,key_resp.rt,fixation_cross.started,p_port_5.started,p_port_5.stopped,fixation_cross.stopped,p_port_6.started,player_image_intro.started,player_name_intro.started,p_port_7.started,p_port_7.stopped,p_port_8.started,player_image_offer.started,player_name_offer.started,proposed_split.started,p_port_9.started,p_port_9.stopped,proposed_split.stopped,accept_reject.started,p_port_15.started,p_port_15.stopped,accept_reject.stopped,p_port_10.started,arrow_instructions.started,offer_choice.started,p_port_11.started,p_port_11.stopped,offer_choice.keys,offer_choice.rt,Instructions_Affinity_Score.started,p_port_12.started,p_port_12.stopped,Emotion_Image.started,AffinityScore.started,p_port_13.started,p_port_13.stopped,AffinityScore.response,AffinityScore.rt,Instruction.started,Moral_Disgust_Score.started,p_port_14.started,p_port_14.stopped,Moral_Disgust_Score.response,Moral_Disgust_Score.rt,player_image_offer.stopped,player_name_offer.stopped,player_image_intro.stopped,player_name_intro.stopped,Instructions_Affinity_Score.stopped,p_port_6.stopped,p_port_8.stopped,p_port_10.stopped,participant,session,date,expName,psychopyVersion,frameRate,
,,,,,,,,16.11412339983508,0.0008153999224305153,0.12507650000043213,16.4304144999478,16.696976600098424,17.313832400017418,17.630529399961233,17.897116599953733,18.23026810004376,18.23026810004376,0.04137329990044236,0.14153029979206622,33.24704589997418,15.02481979993172,33.34697960014455,0.024704199749976397,0.12503309966996312,33.81378010008484,space,1.8477455000393093,,,,,,,,,,,,,,,,,,,,,,,,,,,,,,,,,,,,,,,,,,,,,,,,,,,1550,Moral,2025-03-11_12h52.28.438,MoralCondition_v2,2022.2.5,30.026468327136392,
0,0,0,0,0,0,0,0,,,,,,,,,,,,,,,,,,,,,35.7137267999351,0.003288199892267585,0.0983330998569727,41.713816799921915,6.0318068999331445,42.163604100001976,42.163604100001976,0.28142779995687306,0.44829839980229735,6.0150160999037325,48.030321000143886,48.030321000143886,48.030321000143886,0.07685269974172115,0.2149109998717904,53.73038990003988,53.89709400013089,6.0150915996637195,6.115138999884948,59.89706679992378,12.015038899844512,60.03040980012156,60.03040980012156,0.015283099608495831,0.11497329967096448,down,10.687749999808148,70.76379230013117,8.240016177296638e-05,0.09542770008556545,76.81359170004725,76.81359170004725,0.03561420016922057,0.14553880016319454,6.0,5.177437799982727,,,,,,,,,,,,,,,1550,Moral,2025-03-11_12h52.28.438,MoralCondition_v2,2022.2.5,30.026468327136392,
0,0,0,0,1,0,1,0,,,,,,,,,,,,,,,,,,,,,,,,,,,,,,,,,,,,,,,,,,,,,,,,,,,82.01361100003123,82.01361100003123,0.00945089990273118,0.0990827998612076,6.0,4.457347700139508,,,,,,,,,,,,,,,1550,Moral,2025-03-11_12h52.28.438,MoralCondition_v2,2022.2.5,30.026468327136392,
0,0,0,0,2,0,2,0,,,,,,,,,,,,,,,,,,,,,,,,,,,,,,,,,,,,,,,,,,,,,,,,,,,86.5136494000908,86.5136494000908,0.007883799960836768,0.09941809996962547,6.0,2.9925506999716163,,,,,,,,,,,,,,,1550,Moral,2025-03-11_12h52.28.438,MoralCondition_v2,2022.2.5,30.026468327136392,
0,0,0,0,3,0,3,0,,,,,,,,,,,,,,,,,,,,,,,,,,,,,,,,,,,,,,,,,,,,,,,,,,,89.56385280005634,89.56385280005634,0.01009150012396276,0.11434420011937618,6.0,2.3049509001430124,,,,,,,,,,,,,,,1550,Moral,2025-03-11_12h52.28.438,MoralCondition_v2,2022.2.5,30.026468327136392,
0,0,0,0,4,0,4,0,,,,,,,,,,,,,,,,,,,,,,,,,,,,,,,,,,,,,,,,,,,,,,,,,,,91.91393720009364,91.91393720009364,0.01212550001218915,0.11416989983990788,1.0,3.3699463999364525,,,,,,,,,,,,,,,1550,Moral,2025-03-11_12h52.28.438,MoralCondition_v2,2022.2.5,30.026468327136392,
0,0,0,0,5,0,5,0,,,,,,,,,,,,,,,,,,,,,,,,,,,,,,,,,,,,,,,,,,,,,,,,,,,95.3306132000871,95.3306132000871,0.009108100086450577,0.1150766999926418,1.0,1.7067192001268268,,,,,,,,,,,,,,,1550,Moral,2025-03-11_12h52.28.438,MoralCondition_v2,2022.2.5,30.026468327136392,
0,0,0,0,6,0,6,0,,,,,,,,,,,,,,,,,,,,,,,,,,,,,,,,,,,,,,,,,,,,,,,,,,,97.0805027000606,97.0805027000606,0.00983919994905591,0.11422819993458688,7.0,3.005262800026685,,,,,,,,,,,,,,,1550,Moral,2025-03-11_12h52.28.438,MoralCondition_v2,2022.2.5,30.026468327136392,
0,0,0,0,,,,,,,,,,,,,,,,,,,,,,,,,,,,,,,,,,,,,,,,,,,,,,,,,,,,,,,,,,,,,100.11370340012945,100.11370340012945,0.0013069999404251575,0.09754560003057122,2.0,7.164049800019711,,,,,,,,,1550,Moral,2025-03-11_12h52.28.438,MoralCondition_v2,2022.2.5,30.026468327136392,
1,0,1,0,0,0,0,0,,,,,,,,,,,,,,,,,,,,,107.31409470015205,0.00031029991805553436,0.09791969996877015,113.3303859999869,6.014385299989954,113.56385149993002,113.56385149993002,0.13601689995266497,0.2481083997990936,6.014260399853811,119.61382089997642,119.61382089997642,119.61382089997642,0.09257029974833131,0.197951499838382,125.31370209995657,125.51367740007117,6.031058699823916,6.131195399910212,131.5137072999496,12.031107999850065,131.64723320002668,131.64723320002668,0.03139739972539246,0.1310249997768551,down,1.0540160997770727,132.7637557000853,4.850002005696297e-05,0.09812550013884902,138.79699880001135,138.79699880001135,0.026154899969697,0.13118440005928278,2.0,2.405953000066802,,,,,,,131.6138562001288,131.6138562001288,,,,,,,1550,Moral,2025-03-11_12h52.28.438,MoralCondition_v2,2022.2.5,30.026468327136392,
1,0,1,0,1,0,1,0,,,,,,,,,,,,,,,,,,,,,,,,,,,,,,,,,,,,,,,,,,,,,,,,,,,141.2472314001061,141.2472314001061,0.007744200062006712,0.11439660005271435,6.0,2.607609299942851,,,,,,,,,,,,,,,1550,Moral,2025-03-11_12h52.28.438,MoralCondition_v2,2022.2.5,30.026468327136392,
1,0,1,0,2,0,2,0,,,,,,,,,,,,,,,,,,,,,,,,,,,,,,,,,,,,,,,,,,,,,,,,,,,143.8803280000575,143.8803280000575,0.007091499865055084,0.09832179988734424,7.0,1.7921056998893619,,,,,,,,,,,,,,,1550,Moral,2025-03-11_12h52.28.438,MoralCondition_v2,2022.2.5,30.026468327136392,
1,0,1,0,3,0,3,0,,,,,,,,,,,,,,,,,,,,,,,,,,,,,,,,,,,,,,,,,,,,,,,,,,,145.73053620010614,145.73053620010614,0.008586500072851777,0.11502860020846128,7.0,1.7739576001185924,,,,,,,,,,,,,,,1550,Moral,2025-03-11_12h52.28.438,MoralCondition_v2,2022.2.5,30.026468327136392,
1,0,1,0,4,0,4,0,,,,,,,,,,,,,,,,,,,,,,,,,,,,,,,,,,,,,,,,,,,,,,,,,,,147.53011670010164,147.53011670010164,0.007156700128689408,0.098198699997738,1.0,2.259356099879369,,,,,,,,,,,,,,,1550,Moral,2025-03-11_12h52.28.438,MoralCondition_v2,2022.2.5,30.026468327136392,
1,0,1,0,5,0,5,0,,,,,,,,,,,,,,,,,,,,,,,,,,,,,,,,,,,,,,,,,,,,,,,,,,,149.83013819996268,149.83013819996268,0.007342800032347441,0.09833960002288222,6.0,2.558429599972442,,,,,,,,,,,,,,,1550,Moral,2025-03-11_12h52.28.438,MoralCondition_v2,2022.2.5,30.026468327136392,
1,0,1,0,6,0,6,0,,,,,,,,,,,,,,,,,,,,,,,,,,,,,,,,,,,,,,,,,,,,,,,,,,,152.4473311000038,152.4473311000038,0.007827800000086427,0.11430510017089546,7.0,2.1743494998663664,,,,,,,,,,,,,,,1550,Moral,2025-03-11_12h52.28.438,MoralCondition_v2,2022.2.5,30.026468327136392,
1,0,1,0,,,,,,,,,,,,,,,,,,,,,,,,,,,,,,,,,,,,,,,,,,,,,,,,,,,,,,,,,,,,,154.64718249998987,154.64718249998987,0.0007266001775860786,0.09918970009312034,2.0,4.033014399930835,,,,,,,,,1550,Moral,2025-03-11_12h52.28.438,MoralCondition_v2,2022.2.5,30.026468327136392,
2,0,2,0,0,0,0,0,,,,,,,,,,,,,,,,,,,,,158.713968800148,0.00028089992702007294,0.0979120999109,164.7303738000337,6.014576999936253,164.91375460010022,164.91375460010022,0.08051919983699918,0.1979770998004824,6.031207099789754,171.01386320008896,171.01386320008896,171.01386320008896,0.08438469981774688,0.19819729984737933,176.71381400013342,176.91382080013864,6.031410799827427,6.131215599831194,182.91386259999126,12.031452499795705,183.04701280011795,183.04701280011795,0.03141549974679947,0.13119349954649806,down,0.8542327999603003,183.96370940003544,4.37998678535223e-05,0.09808319993317127,189.96390990004875,189.96390990004875,0.006774599896743894,0.0981326000764966,6.0,2.625673299888149,,,,,,,183.0136816999875,183.0136816999875,170.9136632999871,170.9136632999871,189.96390990004875,,,,1550,Moral,2025-03-11_12h52.28.438,MoralCondition_v2,2022.2.5,30.026468327136392,
2,0,2,0,1,0,1,0,,,,,,,,,,,,,,,,,,,,,,,,,,,,,,,,,,,,,,,,,,,,,,,,,,,192.630294600036,192.630294600036,0.006947499932721257,0.09696939983405173,2.0,1.7242559001315385,,,,,,,,,,,,,,,1550,Moral,2025-03-11_12h52.28.438,MoralCondition_v2,2022.2.5,30.026468327136392,
2,0,2,0,2,0,2,0,,,,,,,,,,,,,,,,,,,,,,,,,,,,,,,,,,,,,,,,,,,,,,,,,,,194.39694530004635,194.39694530004635,0.006785099860280752,0.09922909992747009,7.0,2.893469899892807,,,,,,,,,,,,,,,1550,Moral,2025-03-11_12h52.28.438,MoralCondition_v2,2022.2.5,30.026468327136392,
2,0,2,0,3,0,3,0,,,,,,,,,,,,,,,,,,,,,,,,,,,,,,,,,,,,,,,,,,,,,,,,,,,197.3305123001337,197.3305123001337,0.0071992999874055386,0.09876290010288358,7.0,1.5923935999162495,,,,,,,,,,,,,,,1550,Moral,2025-03-11_12h52.28.438,MoralCondition_v2,2022.2.5,30.026468327136392,
2,0,2,0,4,0,4,0,,,,,,,,,,,,,,,,,,,,,,,,,,,,,,,,,,,,,,,,,,,,,,,,,,,198.980651400052,198.980651400052,0.007994499988853931,0.11399690015241504,1.0,1.8403985002078116,,,,,,,,,,,,,,,1550,Moral,2025-03-11_12h52.28.438,MoralCondition_v2,2022.2.5,30.026468327136392,
2,0,2,0,5,0,5,0,,,,,,,,,,,,,,,,,,,,,,,,,,,,,,,,,,,,,,,,,,,,,,,,,,,200.84682919993065,200.84682919993065,0.006920399842783809,0.09935320005752146,7.0,1.9932709999848157,,,,,,,,,,,,,,,1550,Moral,2025-03-11_12h52.28.438,MoralCondition_v2,2022.2.5,30.026468327136392,
2,0,2,0,6,0,6,0,,,,,,,,,,,,,,,,,,,,,,,,,,,,,,,,,,,,,,,,,,,,,,,,,,,202.88039040006697,202.88039040006697,0.007315899943932891,0.09918930009007454,7.0,1.2929641001392156,,,,,,,,,,,,,,,1550,Moral,2025-03-11_12h52.28.438,MoralCondition_v2,2022.2.5,30.026468327136392,
2,0,2,0,,,,,,,,,,,,,,,,,,,,,,,,,,,,,,,,,,,,,,,,,,,,,,,,,,,,,,,,,,,,,204.21383080002852,204.21383080002852,0.0012270999141037464,0.09837100002914667,2.0,2.397673800121993,,,,,,,,,1550,Moral,2025-03-11_12h52.28.438,MoralCondition_v2,2022.2.5,30.026468327136392,
3,0,3,0,0,0,0,0,,,,,,,,,,,,,,,,,,,,,206.64739420008846,0.00031700008548796177,0.09793390007689595,212.6470774000045,6.0145250000059605,212.8635255000554,212.8635255000554,0.10559640009887516,0.21424499992281199,6.014468400040641,218.93034450011328,218.93034450011328,218.93034450011328,0.07027459982782602,0.18143569980747998,224.63030480011366,224.83048760006204,6.014652199810371,6.114437900017947,230.83033309993334,12.01449429988861,230.96366619993933,230.96366619993933,0.014706899877637625,0.11456329980865121,down,0.7624582999851555,231.76368269999512,3.6800047382712364e-05,0.09799570008181036,237.7970032999292,237.7970032999292,0.026861999882385135,0.13128139986656606,7.0,2.2387374001555145,,,,,,,230.93032020004466,230.93032020004466,,,,6.097752300091088,,,1550,Moral,2025-03-11_12h52.28.438,MoralCondition_v2,2022.2.5,30.026468327136392,
3,0,3,0,1,0,1,0,,,,,,,,,,,,,,,,,,,,,,,,,,,,,,,,,,,,,,,,,,,,,,,,,,,240.06348380004056,240.06348380004056,0.007615900132805109,0.09748440003022552,2.0,1.8241596999578178,,,,,,,,,,,,,,,1550,Moral,2025-03-11_12h52.28.438,MoralCondition_v2,2022.2.5,30.026468327136392,
3,0,3,0,2,0,2,0,,,,,,,,,,,,,,,,,,,,,,,,,,,,,,,,,,,,,,,,,,,,,,,,,,,241.93018199992366,241.93018199992366,0.007645600009709597,0.09794800006784499,7.0,1.6580100001301616,,,,,,,,,,,,,,,1550,Moral,2025-03-11_12h52.28.438,MoralCondition_v2,2022.2.5,30.026468327136392,
3,0,3,0,3,0,3,0,,,,,,,,,,,,,,,,,,,,,,,,,,,,,,,,,,,,,,,,,,,,,,,,,,,243.63032080000266,243.63032080000266,0.008173699956387281,0.09745089989155531,7.0,1.3236632000189275,,,,,,,,,,,,,,,1550,Moral,2025-03-11_12h52.28.438,MoralCondition_v2,2022.2.5,30.026468327136392,
3,0,3,0,4,0,4,0,,,,,,,,,,,,,,,,,,,,,,,,,,,,,,,,,,,,,,,,,,,,,,,,,,,244.9969582001213,244.9969582001213,0.00761239998973906,0.09765180014073849,7.0,1.0578560000285506,,,,,,,,,,,,,,,1550,Moral,2025-03-11_12h52.28.438,MoralCondition_v2,2022.2.5,30.026468327136392,
3,0,3,0,5,0,5,0,,,,,,,,,,,,,,,,,,,,,,,,,,,,,,,,,,,,,,,,,,,,,,,,,,,246.0969010000117,246.0969010000117,0.0065293998923152685,0.09919780003838241,2.0,1.9937342999037355,,,,,,,,,,,,,,,1550,Moral,2025-03-11_12h52.28.438,MoralCondition_v2,2022.2.5,30.026468327136392,
3,0,3,0,6,0,6,0,,,,,,,,,,,,,,,,,,,,,,,,,,,,,,,,,,,,,,,,,,,,,,,,,,,248.13031210005283,248.13031210005283,0.00757410004734993,0.0978256999514997,7.0,1.6912404999602586,,,,,,,,,,,,,,,1550,Moral,2025-03-11_12h52.28.438,MoralCondition_v2,2022.2.5,30.026468327136392,
3,0,3,0,,,,,,,,,,,,,,,,,,,,,,,,,,,,,,,,,,,,,,,,,,,,,,,,,,,,,,,,,,,,,249.86396130011417,249.86396130011417,0.000690600136294961,0.09922059997916222,2.0,3.4995238000992686,,,,,,,,,1550,Moral,2025-03-11_12h52.28.438,MoralCondition_v2,2022.2.5,30.026468327136392,
4,0,4,0,0,0,0,0,,,,,,,,,,,,,,,,,,,,,253.3971992000006,0.000367600005120039,0.09772499999962747,259.41365720005706,6.0142683000303805,259.6303058001213,259.6303058001213,0.12419689982198179,0.23083629994653165,6.030913799768314,265.69711309997365,265.69711309997365,265.69711309997365,0.09206989989615977,0.1976166998501867,271.39720380003564,271.596928199986,6.030884299892932,6.130931899882853,277.59688520012423,12.030863099731505,277.73028440005146,277.73028440005146,0.03117529978044331,0.13095109979622066,up,0.5710348999127746,278.36375789996237,4.519987851381302e-05,0.1123422000091523,284.3803809999954,284.3803809999954,0.009468700038269162,0.11446619988419116,6.0,2.1725707000587136,,,,,,,277.6969824000262,277.6969824000262,,,284.3803809999954,,,,1550,Moral,2025-03-11_12h52.28.438,MoralCondition_v2,2022.2.5,30.026468327136392,
4,0,4,0,1,0,1,0,,,,,,,,,,,,,,,,,,,,,,,,,,,,,,,,,,,,,,,,,,,,,,,,,,,286.580250200117,286.580250200117,0.007069700164720416,0.09801520011387765,6.0,1.992068300023675,,,,,,,,,,,,,,,1550,Moral,2025-03-11_12h52.28.438,MoralCondition_v2,2022.2.5,30.026468327136392,
4,0,4,0,2,0,2,0,,,,,,,,,,,,,,,,,,,,,,,,,,,,,,,,,,,,,,,,,,,,,,,,,,,288.6138977999799,288.6138977999799,0.007845500018447638,0.09739249991253018,2.0,2.2905645999126136,,,,,,,,,,,,,,,1550,Moral,2025-03-11_12h52.28.438,MoralCondition_v2,2022.2.5,30.026468327136392,
4,0,4,0,3,0,3,0,,,,,,,,,,,,,,,,,,,,,,,,,,,,,,,,,,,,,,,,,,,,,,,,,,,290.9469254000578,290.9469254000578,0.007183199981227517,0.09791789995506406,2.0,1.525160799967125,,,,,,,,,,,,,,,1550,Moral,2025-03-11_12h52.28.438,MoralCondition_v2,2022.2.5,30.026468327136392,
4,0,4,0,4,0,4,0,,,,,,,,,,,,,,,,,,,,,,,,,,,,,,,,,,,,,,,,,,,,,,,,,,,292.53060390008613,292.53060390008613,0.007347499951720238,0.1138474999461323,2.0,1.4075140000786632,,,,,,,,,,,,,,,1550,Moral,2025-03-11_12h52.28.438,MoralCondition_v2,2022.2.5,30.026468327136392,
4,0,4,0,5,0,5,0,,,,,,,,,,,,,,,,,,,,,,,,,,,,,,,,,,,,,,,,,,,,,,,,,,,293.9635525001213,293.9635525001213,0.006587800104171038,0.09924340015277267,2.0,0.9936404000036418,,,,,,,,,,,,,,,1550,Moral,2025-03-11_12h52.28.438,MoralCondition_v2,2022.2.5,30.026468327136392,
4,0,4,0,6,0,6,0,,,,,,,,,,,,,,,,,,,,,,,,,,,,,,,,,,,,,,,,,,,,,,,,,,,295.0139240999706,295.0139240999706,0.008565800031647086,0.11367350001819432,2.0,0.8730233998503536,,,,,,,,,,,,,,,1550,Moral,2025-03-11_12h52.28.438,MoralCondition_v2,2022.2.5,30.026468327136392,
4,0,4,0,,,,,,,,,,,,,,,,,,,,,,,,,,,,,,,,,,,,,,,,,,,,,,,,,,,,,,,,,,,,,295.91370150004514,295.91370150004514,0.0015740999951958656,0.09818560001440346,6.0,3.9976574999745935,,,,,,,,,1550,Moral,2025-03-11_12h52.28.438,MoralCondition_v2,2022.2.5,30.026468327136392,
5,0,5,0,0,0,0,0,,,,,,,,,,,,,,,,,,,,,299.947346100118,0.00040520005859434605,0.09776939987204969,305.94706059992313,6.03141409996897,306.14694579993375,306.14694579993375,0.09015419986099005,0.19771619979292154,6.03117679990828,312.2304454999976,312.2304454999976,312.2304454999976,0.08576369984075427,0.181102599715814,317.9302733000368,318.13030980015174,6.01443969970569,6.114446099847555,324.13025930011645,12.01438989979215,324.2637289999984,324.2637289999984,0.014636499574407935,0.11434539966285229,down,1.5416373999323696,325.86378960008733,6.029987707734108e-05,0.09777310001663864,331.88091669999994,331.88091669999994,0.009066300000995398,0.11437539989128709,2.0,2.7727292000781745,,,,,,,324.2302660001442,324.2302660001442,312.14695019996725,312.14695019996725,331.88091669999994,,,,1550,Moral,2025-03-11_12h52.28.438,MoralCondition_v2,2022.2.5,30.026468327136392,
5,0,5,0,1,0,1,0,,,,,,,,,,,,,,,,,,,,,,,,,,,,,,,,,,,,,,,,,,,,,,,,,,,334.68019840004854,334.68019840004854,0.006849100114777684,0.09873010008595884,6.0,2.2597393000032753,,,,,,,,,,,,,,,1550,Moral,2025-03-11_12h52.28.438,MoralCondition_v2,2022.2.5,30.026468327136392,
5,0,5,0,2,0,2,0,,,,,,,,,,,,,,,,,,,,,,,,,,,,,,,,,,,,,,,,,,,,,,,,,,,336.98034440004267,336.98034440004267,0.007033099886029959,0.09794829995371401,6.0,1.225213099969551,,,,,,,,,,,,,,,1550,Moral,2025-03-11_12h52.28.438,MoralCondition_v2,2022.2.5,30.026468327136392,
5,0,5,0,3,0,3,0,,,,,,,,,,,,,,,,,,,,,,,,,,,,,,,,,,,,,,,,,,,,,,,,,,,338.246908799978,338.246908799978,0.006796600064262748,0.09915190003812313,6.0,1.5267968999687582,,,,,,,,,,,,,,,1550,Moral,2025-03-11_12h52.28.438,MoralCondition_v2,2022.2.5,30.026468327136392,
5,0,5,0,4,0,4,0,,,,,,,,,,,,,,,,,,,,,,,,,,,,,,,,,,,,,,,,,,,,,,,,,,,339.8136030000169,339.8136030000169,0.007091599982231855,0.09839989989995956,2.0,1.9588478999212384,,,,,,,,,,,,,,,1550,Moral,2025-03-11_12h52.28.438,MoralCondition_v2,2022.2.5,30.026468327136392,
5,0,5,0,5,0,5,0,,,,,,,,,,,,,,,,,,,,,,,,,,,,,,,,,,,,,,,,,,,,,,,,,,,341.8138002001215,341.8138002001215,0.007422899827361107,0.09781969990581274,6.0,1.7912087000440806,,,,,,,,,,,,,,,1550,Moral,2025-03-11_12h52.28.438,MoralCondition_v2,2022.2.5,30.026468327136392,
5,0,5,0,6,0,6,0,,,,,,,,,,,,,,,,,,,,,,,,,,,,,,,,,,,,,,,,,,,,,,,,,,,343.6468098999467,343.6468098999467,0.00823370018042624,0.09934620000422001,6.0,1.2920764998998493,,,,,,,,,,,,,,,1550,Moral,2025-03-11_12h52.28.438,MoralCondition_v2,2022.2.5,30.026468327136392,
5,0,5,0,,,,,,,,,,,,,,,,,,,,,,,,,,,,,,,,,,,,,,,,,,,,,,,,,,,,,,,,,,,,,344.9803559000138,344.9803559000138,0.001253599999472499,0.09852760005742311,2.0,3.598344000056386,,,,,,,,,1550,Moral,2025-03-11_12h52.28.438,MoralCondition_v2,2022.2.5,30.026468327136392,
6,0,6,0,0,0,0,0,,,,,,,,,,,,,,,,,,,,,348.614004699979,0.00016930000856518745,0.09916070010513067,354.630271299975,6.015809900127351,354.81382889999077,354.81382889999077,0.08458029991015792,0.1992585000116378,5.9991506999358535,360.8800542000681,360.8800542000681,360.8800542000681,0.0614649998024106,0.1657378999516368,366.58030860009603,366.7802444000263,5.999179799808189,6.0990806999616325,372.780245100148,11.999237299896777,372.913590000011,372.913590000011,2.4199718609452248e-05,0.09916429966688156,down,0.6360571999102831,373.61367830005474,4.770001396536827e-05,0.09751680004410446,379.6470683000516,379.6470683000516,0.02622259990312159,0.1308657000772655,6.0,1.939091800013557,,,,,,,372.880242299987,372.880242299987,360.8800542000681,360.8800542000681,,,6.099148100009188,12.099114699987695,1550,Moral,2025-03-11_12h52.28.438,MoralCondition_v2,2022.2.5,30.026468327136392,
6,0,6,0,1,0,1,0,,,,,,,,,,,,,,,,,,,,,,,,,,,,,,,,,,,,,,,,,,,,,,,,,,,381.6133787999861,381.6133787999861,0.007848899811506271,0.09784069983288646,6.0,1.324435899965465,,,,,,,,,,,,,,,1550,Moral,2025-03-11_12h52.28.438,MoralCondition_v2,2022.2.5,30.026468327136392,
6,0,6,0,2,0,2,0,,,,,,,,,,,,,,,,,,,,,,,,,,,,,,,,,,,,,,,,,,,,,,,,,,,382.9802807001397,382.9802807001397,0.007630699779838324,0.09828849998302758,6.0,1.2585323001258075,,,,,,,,,,,,,,,1550,Moral,2025-03-11_12h52.28.438,MoralCondition_v2,2022.2.5,30.026468327136392,
6,0,6,0,3,0,3,0,,,,,,,,,,,,,,,,,,,,,,,,,,,,,,,,,,,,,,,,,,,,,,,,,,,384.28034980013035,384.28034980013035,0.006901800166815519,0.09768959996290505,2.0,1.9933950998820364,,,,,,,,,,,,,,,1550,Moral,2025-03-11_12h52.28.438,MoralCondition_v2,2022.2.5,30.026468327136392,
6,0,6,0,4,0,4,0,,,,,,,,,,,,,,,,,,,,,,,,,,,,,,,,,,,,,,,,,,,,,,,,,,,386.31352260010317,386.31352260010317,0.006057200022041798,0.09881550003774464,6.0,2.2271871000993997,,,,,,,,,,,,,,,1550,Moral,2025-03-11_12h52.28.438,MoralCondition_v2,2022.2.5,30.026468327136392,
6,0,6,0,5,0,5,0,,,,,,,,,,,,,,,,,,,,,,,,,,,,,,,,,,,,,,,,,,,,,,,,,,,388.58009509998374,388.58009509998374,0.006620700005441904,0.09929769998416305,2.0,1.9602107000537217,,,,,,,,,,,,,,,1550,Moral,2025-03-11_12h52.28.438,MoralCondition_v2,2022.2.5,30.026468327136392,
6,0,6,0,6,0,6,0,,,,,,,,,,,,,,,,,,,,,,,,,,,,,,,,,,,,,,,,,,,,,,,,,,,390.5973189000506,390.5973189000506,0.008174800081178546,0.11423619999550283,6.0,1.840406599920243,,,,,,,,,,,,,,,1550,Moral,2025-03-11_12h52.28.438,MoralCondition_v2,2022.2.5,30.026468327136392,
6,0,6,0,,,,,,,,,,,,,,,,,,,,,,,,,,,,,,,,,,,,,,,,,,,,,,,,,,,,,,,,,,,,,392.46368429996073,392.46368429996073,0.0010196000803261995,0.09843420004472136,2.0,2.5650403001345694,,,,,,,,,1550,Moral,2025-03-11_12h52.28.438,MoralCondition_v2,2022.2.5,30.026468327136392,
7,0,7,0,0,0,0,0,,,,,,,,,,,,,,,,,,,,,395.06353859999217,0.00047389999963343143,0.09736949997022748,401.08020610013045,6.013992599910125,401.2470865000505,401.2470865000505,0.07751269987784326,0.1808114997111261,6.014155399752781,407.3471077999566,407.3471077999566,407.3471077999566,0.06928029982373118,0.1808232998009771,413.0468616001308,413.2470839000307,6.014250299660489,6.113940399605781,419.2468553001527,12.013947499683127,419.3802108000964,419.3802108000964,0.014108099741861224,0.11387259955517948,down,0.8253852999769151,420.2468183999881,5.449983291327953e-05,0.09786189999431372,426.2467827000655,426.2467827000655,0.010069399839267135,0.0980130999814719,6.0,2.18891130015254,,,,,,,419.3468705001287,419.3468705001287,407.2468527001329,407.2468527001329,426.2467827000655,,,,1550,Moral,2025-03-11_12h52.28.438,MoralCondition_v2,2022.2.5,30.026468327136392,
7,0,7,0,1,0,1,0,,,,,,,,,,,,,,,,,,,,,,,,,,,,,,,,,,,,,,,,,,,,,,,,,,,428.48007980012335,428.48007980012335,0.007575599942356348,0.09782089991495013,6.0,1.0911107000429183,,,,,,,,,,,,,,,1550,Moral,2025-03-11_12h52.28.438,MoralCondition_v2,2022.2.5,30.026468327136392,
7,0,7,0,2,0,2,0,,,,,,,,,,,,,,,,,,,,,,,,,,,,,,,,,,,,,,,,,,,,,,,,,,,429.6305329001043,429.6305329001043,0.008020399836823344,0.11456319992430508,6.0,1.5741101000458002,,,,,,,,,,,,,,,1550,Moral,2025-03-11_12h52.28.438,MoralCondition_v2,2022.2.5,30.026468327136392,
7,0,7,0,3,0,3,0,,,,,,,,,,,,,,,,,,,,,,,,,,,,,,,,,,,,,,,,,,,,,,,,,,,431.230216300115,431.230216300115,0.007450199918821454,0.097762499935925,2.0,2.024568800115958,,,,,,,,,,,,,,,1550,Moral,2025-03-11_12h52.28.438,MoralCondition_v2,2022.2.5,30.026468327136392,
7,0,7,0,4,0,4,0,,,,,,,,,,,,,,,,,,,,,,,,,,,,,,,,,,,,,,,,,,,,,,,,,,,433.29682240006514,433.29682240006514,0.007450200151652098,0.09793650009669363,6.0,1.9251262999605387,,,,,,,,,,,,,,,1550,Moral,2025-03-11_12h52.28.438,MoralCondition_v2,2022.2.5,30.026468327136392,
7,0,7,0,5,0,5,0,,,,,,,,,,,,,,,,,,,,,,,,,,,,,,,,,,,,,,,,,,,,,,,,,,,435.26379880006425,435.26379880006425,0.007360799936577678,0.09803980006836355,2.0,1.8248793999664485,,,,,,,,,,,,,,,1550,Moral,2025-03-11_12h52.28.438,MoralCondition_v2,2022.2.5,30.026468327136392,
7,0,7,0,6,0,6,0,,,,,,,,,,,,,,,,,,,,,,,,,,,,,,,,,,,,,,,,,,,,,,,,,,,437.13039409997873,437.13039409997873,0.007138000102713704,0.09791349992156029,6.0,1.5919264999683946,,,,,,,,,,,,,,,1550,Moral,2025-03-11_12h52.28.438,MoralCondition_v2,2022.2.5,30.026468327136392,
7,0,7,0,,,,,,,,,,,,,,,,,,,,,,,,,,,,,,,,,,,,,,,,,,,,,,,,,,,,,,,,,,,,,438.76364589994773,438.76364589994773,0.0016980001237243414,0.09745510015636683,2.0,2.4635206998791546,,,,,,,,,1550,Moral,2025-03-11_12h52.28.438,MoralCondition_v2,2022.2.5,30.026468327136392,
8,0,8,0,0,0,0,0,,,,,,,,,,,,,,,,,,,,,441.2637148001231,0.00030339998193085194,0.097521300194785,447.2801372001413,6.014114100020379,447.4638163000345,447.4638163000345,0.08336489996872842,0.197680699871853,6.030760299880058,453.56359070003964,453.56359070003964,453.56359070003964,0.09147339989431202,0.19764239992946386,459.26343209994957,459.4634364999365,6.030789299868047,6.130761799868196,465.46344979992136,12.03081879997626,465.59699510014616,465.59699510014616,0.030986999860033393,0.13055999972857535,up,0.7043288999702781,466.36341410013847,5.550007335841656e-05,0.09784059994854033,472.39683039998636,472.39683039998636,0.025686000008136034,0.13131819991394877,4.0,4.640130399959162,,,,,,,465.5634027000051,465.5634027000051,453.46349200000986,453.46349200000986,,,,,1550,Moral,2025-03-11_12h52.28.438,MoralCondition_v2,2022.2.5,30.026468327136392,
8,0,8,0,1,0,1,0,,,,,,,,,,,,,,,,,,,,,,,,,,,,,,,,,,,,,,,,,,,,,,,,,,,477.0633251001127,477.0633251001127,0.0072438998613506556,0.09787800000049174,4.0,1.9584433999843895,,,,,,,,,,,,,,,1550,Moral,2025-03-11_12h52.28.438,MoralCondition_v2,2022.2.5,30.026468327136392,
8,0,8,0,2,0,2,0,,,,,,,,,,,,,,,,,,,,,,,,,,,,,,,,,,,,,,,,,,,,,,,,,,,479.0634914000984,479.0634914000984,0.008419699966907501,0.09785709995776415,2.0,3.723877500044182,,,,,,,,,,,,,,,1550,Moral,2025-03-11_12h52.28.438,MoralCondition_v2,2022.2.5,30.026468327136392,
8,0,8,0,3,0,3,0,,,,,,,,,,,,,,,,,,,,,,,,,,,,,,,,,,,,,,,,,,,,,,,,,,,482.83015180006623,482.83015180006623,0.0075171999633312225,0.09777210000902414,4.0,4.558060699841008,,,,,,,,,,,,,,,1550,Moral,2025-03-11_12h52.28.438,MoralCondition_v2,2022.2.5,30.026468327136392,
8,0,8,0,4,0,4,0,,,,,,,,,,,,,,,,,,,,,,,,,,,,,,,,,,,,,,,,,,,,,,,,,,,487.4467210001312,487.4467210001312,0.008877600077539682,0.11425210000015795,4.0,1.6728553001303226,,,,,,,,,,,,,,,1550,Moral,2025-03-11_12h52.28.438,MoralCondition_v2,2022.2.5,30.026468327136392,
8,0,8,0,5,0,5,0,,,,,,,,,,,,,,,,,,,,,,,,,,,,,,,,,,,,,,,,,,,,,,,,,,,489.1467303999234,489.1467303999234,0.006742900004610419,0.09922800003550947,4.0,1.5600801000837237,,,,,,,,,,,,,,,1550,Moral,2025-03-11_12h52.28.438,MoralCondition_v2,2022.2.5,30.026468327136392,
8,0,8,0,6,0,6,0,,,,,,,,,,,,,,,,,,,,,,,,,,,,,,,,,,,,,,,,,,,,,,,,,,,490.7635782000143,490.7635782000143,0.008188899839296937,0.11455910000950098,2.0,2.4740925000514835,,,,,,,,,,,,,,,1550,Moral,2025-03-11_12h52.28.438,MoralCondition_v2,2022.2.5,30.026468327136392,
8,0,8,0,,,,,,,,,,,,,,,,,,,,,,,,,,,,,,,,,,,,,,,,,,,,,,,,,,,,,,,,,,,,,493.26372479996644,493.26372479996644,0.0015481999143958092,0.09765079990029335,5.0,4.830850400030613,,,,,,,,,1550,Moral,2025-03-11_12h52.28.438,MoralCondition_v2,2022.2.5,30.026468327136392,
9,0,9,0,0,0,0,0,,,,,,,,,,,,,,,,,,,,,498.1303060001228,0.0002723999787122011,0.09787559998221695,504.1466717000585,6.014572400134057,504.3134200000204,504.3134200000204,0.08093610010109842,0.1809459999203682,6.01455399999395,510.41342440014705,510.41342440014705,510.41342440014705,0.07126919995062053,0.18122489983215928,516.1134895000141,516.3133467000443,6.014552399981767,6.1145399999804795,522.3135190000758,12.014750699978322,522.4467778000981,522.4467778000981,0.014904399868100882,0.1145055997185409,up,0.7823042999953032,523.2798651000485,4.2800093069672585e-05,0.09799499996006489,529.2967103000265,529.2967103000265,0.008874600054696202,0.11471810005605221,4.0,2.040115499868989,,,,,,,522.4135501000565,522.4135501000565,510.3133122001309,510.3133122001309,529.2967103000265,,,,1550,Moral,2025-03-11_12h52.28.438,MoralCondition_v2,2022.2.5,30.026468327136392,
9,0,9,0,1,0,1,0,,,,,,,,,,,,,,,,,,,,,,,,,,,,,,,,,,,,,,,,,,,,,,,,,,,531.3633286999539,531.3633286999539,0.006957900011911988,0.09793849987909198,2.0,2.8250665001105517,,,,,,,,,,,,,,,1550,Moral,2025-03-11_12h52.28.438,MoralCondition_v2,2022.2.5,30.026468327136392,
9,0,9,0,2,0,2,0,,,,,,,,,,,,,,,,,,,,,,,,,,,,,,,,,,,,,,,,,,,,,,,,,,,534.2468741999473,534.2468741999473,0.008370399940758944,0.11419769981876016,2.0,1.3734738000202924,,,,,,,,,,,,,,,1550,Moral,2025-03-11_12h52.28.438,MoralCondition_v2,2022.2.5,30.026468327136392,
9,0,9,0,3,0,3,0,,,,,,,,,,,,,,,,,,,,,,,,,,,,,,,,,,,,,,,,,,,,,,,,,,,535.6637115001213,535.6637115001213,0.010277600027620792,0.113902100129053,1.0,2.238073900109157,,,,,,,,,,,,,,,1550,Moral,2025-03-11_12h52.28.438,MoralCondition_v2,2022.2.5,30.026468327136392,
9,0,9,0,4,0,4,0,,,,,,,,,,,,,,,,,,,,,,,,,,,,,,,,,,,,,,,,,,,,,,,,,,,537.929985200055,537.929985200055,0.007465700153261423,0.09768740017898381,4.0,2.091448999941349,,,,,,,,,,,,,,,1550,Moral,2025-03-11_12h52.28.438,MoralCondition_v2,2022.2.5,30.026468327136392,
9,0,9,0,5,0,5,0,,,,,,,,,,,,,,,,,,,,,,,,,,,,,,,,,,,,,,,,,,,,,,,,,,,540.0634278999642,540.0634278999642,0.007596899988129735,0.09801100008189678,2.0,2.057795900152996,,,,,,,,,,,,,,,1550,Moral,2025-03-11_12h52.28.438,MoralCondition_v2,2022.2.5,30.026468327136392,
9,0,9,0,6,0,6,0,,,,,,,,,,,,,,,,,,,,,,,,,,,,,,,,,,,,,,,,,,,,,,,,,,,542.163400700083,542.163400700083,0.007081199903041124,0.09747899998910725,4.0,2.2250643000006676,,,,,,,,,,,,,,,1550,Moral,2025-03-11_12h52.28.438,MoralCondition_v2,2022.2.5,30.026468327136392,
9,0,9,0,,,,,,,,,,,,,,,,,,,,,,,,,,,,,,,,,,,,,,,,,,,,,,,,,,,,,,,,,,,,,544.4301191000268,544.4301191000268,0.0006899998988956213,0.09923269995488226,5.0,2.599443099927157,,,,,,,,,1550,Moral,2025-03-11_12h52.28.438,MoralCondition_v2,2022.2.5,30.026468327136392,
10,0,10,0,0,0,0,0,,,,,,,,,,,,,,,,,,,,,547.0634689999279,0.00013620010577142239,0.09928330010734499,553.0633511000779,5.99902190011926,553.2298554000445,553.2298554000445,0.06663100002333522,0.16597329988144338,5.999053600011393,559.3466874000151,559.3466874000151,559.3466874000151,0.07091359980404377,0.1827055998146534,565.0465150000528,565.2466953999829,6.015853999881074,6.115724699804559,571.2465111000929,12.015705599915236,571.3798432999756,571.3798432999756,0.015983899822458625,0.11568189971148968,up,0.7456492998171598,572.1631662000436,3.9400067180395126e-05,0.09780450002290308,578.1798630999401,578.1798630999401,0.009000800084322691,0.11434229998849332,6.0,1.7398530000355095,,,,,,,571.3465219000354,571.3465219000354,559.2301306999288,559.2301306999288,578.1798630999401,6.099066399969161,6.099458799930289,,1550,Moral,2025-03-11_12h52.28.438,MoralCondition_v2,2022.2.5,30.026468327136392,
10,0,10,0,1,0,1,0,,,,,,,,,,,,,,,,,,,,,,,,,,,,,,,,,,,,,,,,,,,,,,,,,,,579.9465562000405,579.9465562000405,0.006923899985849857,0.0992087998893112,2.0,1.759913600049913,,,,,,,,,,,,,,,1550,Moral,2025-03-11_12h52.28.438,MoralCondition_v2,2022.2.5,30.026468327136392,
10,0,10,0,2,0,2,0,,,,,,,,,,,,,,,,,,,,,,,,,,,,,,,,,,,,,,,,,,,,,,,,,,,581.7464254000224,581.7464254000224,0.006719000171869993,0.09917840012349188,2.0,1.3934164000675082,,,,,,,,,,,,,,,1550,Moral,2025-03-11_12h52.28.438,MoralCondition_v2,2022.2.5,30.026468327136392,
10,0,10,0,3,0,3,0,,,,,,,,,,,,,,,,,,,,,,,,,,,,,,,,,,,,,,,,,,,,,,,,,,,583.196714400081,583.196714400081,0.007709600031375885,0.11439460003748536,2.0,1.207688600057736,,,,,,,,,,,,,,,1550,Moral,2025-03-11_12h52.28.438,MoralCondition_v2,2022.2.5,30.026468327136392,
10,0,10,0,4,0,4,0,,,,,,,,,,,,,,,,,,,,,,,,,,,,,,,,,,,,,,,,,,,,,,,,,,,584.4297126000747,584.4297126000747,0.007843300001695752,0.09817659994587302,2.0,1.4245558998081833,,,,,,,,,,,,,,,1550,Moral,2025-03-11_12h52.28.438,MoralCondition_v2,2022.2.5,30.026468327136392,
10,0,10,0,5,0,5,0,,,,,,,,,,,,,,,,,,,,,,,,,,,,,,,,,,,,,,,,,,,,,,,,,,,585.8964716000482,585.8964716000482,0.006826200056821108,0.09908529999665916,6.0,2.2269392998423427,,,,,,,,,,,,,,,1550,Moral,2025-03-11_12h52.28.438,MoralCondition_v2,2022.2.5,30.026468327136392,
10,0,10,0,6,0,6,0,,,,,,,,,,,,,,,,,,,,,,,,,,,,,,,,,,,,,,,,,,,,,,,,,,,588.1801285000984,588.1801285000984,0.007721700007095933,0.11392739997245371,2.0,1.7739659999497235,,,,,,,,,,,,,,,1550,Moral,2025-03-11_12h52.28.438,MoralCondition_v2,2022.2.5,30.026468327136392,
10,0,10,0,,,,,,,,,,,,,,,,,,,,,,,,,,,,,,,,,,,,,,,,,,,,,,,,,,,,,,,,,,,,,589.9798833001405,589.9798833001405,0.0013805998023599386,0.09944009990431368,6.0,3.09921110002324,,,,,,,,,1550,Moral,2025-03-11_12h52.28.438,MoralCondition_v2,2022.2.5,30.026468327136392,
11,0,11,0,0,0,0,0,,,,,,,,,,,,,,,,,,,,,593.1131081001367,0.0004453998990356922,0.09721529996022582,599.1130647000391,6.0304954999592155,599.329841400031,599.329841400031,0.10855239978991449,0.21400429983623326,6.01377459987998,605.3962477999739,605.3962477999739,605.3962477999739,0.0767941998783499,0.18048179987818003,611.0964367999695,611.2963894000277,6.0138851997908205,6.113766599679366,617.2963461000472,12.013731999788433,617.4296951999422,617.4296951999422,0.014255199581384659,0.1137406995985657,up,0.6321007998194546,618.0965605000965,4.419987089931965e-05,0.09788629994727671,624.1128052999265,624.1128052999265,0.027615099912509322,0.11458809999749064,2.0,2.2545990999788046,,,,,,,617.3966713999398,617.3966713999398,,,,,,,1550,Moral,2025-03-11_12h52.28.438,MoralCondition_v2,2022.2.5,30.026468327136392,
11,0,11,0,1,0,1,0,,,,,,,,,,,,,,,,,,,,,,,,,,,,,,,,,,,,,,,,,,,,,,,,,,,626.4130899999291,626.4130899999291,0.007687999866902828,0.09756159991957247,2.0,1.2912753999698907,,,,,,,,,,,,,,,1550,Moral,2025-03-11_12h52.28.438,MoralCondition_v2,2022.2.5,30.026468327136392,
11,0,11,0,2,0,2,0,,,,,,,,,,,,,,,,,,,,,,,,,,,,,,,,,,,,,,,,,,,,,,,,,,,627.7464718001429,627.7464718001429,0.006810900056734681,0.09922349988482893,6.0,2.0934919000137597,,,,,,,,,,,,,,,1550,Moral,2025-03-11_12h52.28.438,MoralCondition_v2,2022.2.5,30.026468327136392,
11,0,11,0,3,0,3,0,,,,,,,,,,,,,,,,,,,,,,,,,,,,,,,,,,,,,,,,,,,,,,,,,,,629.8795302000362,629.8795302000362,0.007983200019225478,0.09919210011139512,6.0,0.9257292000111192,,,,,,,,,,,,,,,1550,Moral,2025-03-11_12h52.28.438,MoralCondition_v2,2022.2.5,30.026468327136392,
11,0,11,0,4,0,4,0,,,,,,,,,,,,,,,,,,,,,,,,,,,,,,,,,,,,,,,,,,,,,,,,,,,630.8463999999221,630.8463999999221,0.007679899921640754,0.09750259993597865,2.0,2.1575075001455843,,,,,,,,,,,,,,,1550,Moral,2025-03-11_12h52.28.438,MoralCondition_v2,2022.2.5,30.026468327136392,
11,0,11,0,5,0,5,0,,,,,,,,,,,,,,,,,,,,,,,,,,,,,,,,,,,,,,,,,,,,,,,,,,,633.0463809999637,633.0463809999637,0.006557399872690439,0.09909769985824823,2.0,1.0603381998371333,,,,,,,,,,,,,,,1550,Moral,2025-03-11_12h52.28.438,MoralCondition_v2,2022.2.5,30.026468327136392,
11,0,11,0,6,0,6,0,,,,,,,,,,,,,,,,,,,,,,,,,,,,,,,,,,,,,,,,,,,,,,,,,,,634.1461358000524,634.1461358000524,0.006819999776780605,0.09723559999838471,2.0,1.1915751001797616,,,,,,,,,,,,,,,1550,Moral,2025-03-11_12h52.28.438,MoralCondition_v2,2022.2.5,30.026468327136392,
11,0,11,0,,,,,,,,,,,,,,,,,,,,,,,,,,,,,,,,,,,,,,,,,,,,,,,,,,,,,,,,,,,,,635.3797798000742,635.3797798000742,0.00135709997266531,0.09763980004936457,6.0,2.6976938999723643,,,,,,,,,1550,Moral,2025-03-11_12h52.28.438,MoralCondition_v2,2022.2.5,30.026468327136392,
12,0,12,0,0,0,0,0,,,,,,,,,,,,,,,,,,,,,638.1131772999652,0.00025209994055330753,0.09779280005022883,644.1129507999867,6.031193899922073,644.3297435999848,644.3297435999848,0.10207789996638894,0.21456589992158115,6.014392399927601,650.3964524001349,650.3964524001349,650.3964524001349,0.0705353997182101,0.18129239976406097,656.0962460001465,656.296232300112,6.0144347997847944,6.114450599765405,662.296290300088,12.014462999766693,662.4297303999774,662.4297303999774,0.01500799972563982,0.11436409968882799,up,0.6718185998033732,663.162914799992,4.429998807609081e-05,0.09806140000000596,669.1795663000084,669.1795663000084,0.026368599850684404,0.11467169993557036,2.0,2.022647100035101,,,,,,,662.3964691001456,662.3964691001456,,,,,,,1550,Moral,2025-03-11_12h52.28.438,MoralCondition_v2,2022.2.5,30.026468327136392,
12,0,12,0,1,0,1,0,,,,,,,,,,,,,,,,,,,,,,,,,,,,,,,,,,,,,,,,,,,,,,,,,,,671.2461435999721,671.2461435999721,0.007756599923595786,0.09941619983874261,2.0,1.2259577999357134,,,,,,,,,,,,,,,1550,Moral,2025-03-11_12h52.28.438,MoralCondition_v2,2022.2.5,30.026468327136392,
12,0,12,0,2,0,2,0,,,,,,,,,,,,,,,,,,,,,,,,,,,,,,,,,,,,,,,,,,,,,,,,,,,672.512831200147,672.512831200147,0.007168800104409456,0.09779609995894134,2.0,1.4250574000179768,,,,,,,,,,,,,,,1550,Moral,2025-03-11_12h52.28.438,MoralCondition_v2,2022.2.5,30.026468327136392,
12,0,12,0,3,0,3,0,,,,,,,,,,,,,,,,,,,,,,,,,,,,,,,,,,,,,,,,,,,,,,,,,,,673.979494499974,673.979494499974,0.008236599853262305,0.09894669987261295,6.0,2.0917586002033204,,,,,,,,,,,,,,,1550,Moral,2025-03-11_12h52.28.438,MoralCondition_v2,2022.2.5,30.026468327136392,
12,0,12,0,4,0,4,0,,,,,,,,,,,,,,,,,,,,,,,,,,,,,,,,,,,,,,,,,,,,,,,,,,,676.1297428000253,676.1297428000253,0.008056299993768334,0.11421009991317987,6.0,1.0738872999791056,,,,,,,,,,,,,,,1550,Moral,2025-03-11_12h52.28.438,MoralCondition_v2,2022.2.5,30.026468327136392,
12,0,12,0,5,0,5,0,,,,,,,,,,,,,,,,,,,,,,,,,,,,,,,,,,,,,,,,,,,,,,,,,,,677.2295844999608,677.2295844999608,0.007580999983474612,0.09774219989776611,2.0,1.7910007000900805,,,,,,,,,,,,,,,1550,Moral,2025-03-11_12h52.28.438,MoralCondition_v2,2022.2.5,30.026468327136392,
12,0,12,0,6,0,6,0,,,,,,,,,,,,,,,,,,,,,,,,,,,,,,,,,,,,,,,,,,,,,,,,,,,679.0628410000354,679.0628410000354,0.0075419999193400145,0.09800540003925562,2.0,1.3579985001124442,,,,,,,,,,,,,,,1550,Moral,2025-03-11_12h52.28.438,MoralCondition_v2,2022.2.5,30.026468327136392,
12,0,12,0,,,,,,,,,,,,,,,,,,,,,,,,,,,,,,,,,,,,,,,,,,,,,,,,,,,,,,,,,,,,,680.4629281000234,680.4629281000234,0.001244999933987856,0.09827189985662699,6.0,2.46475200005807,,,,,,,,,1550,Moral,2025-03-11_12h52.28.438,MoralCondition_v2,2022.2.5,30.026468327136392,
13,0,13,0,0,0,0,0,,,,,,,,,,,,,,,,,,,,,682.9631223001052,0.00013739988207817078,0.0993286999873817,688.9795165001415,6.0159958999138325,689.1631549999584,689.1631549999584,0.08581999992020428,0.19962869980372488,5.999274799833074,695.2295324001461,695.2295324001461,695.2295324001461,0.05612229974940419,0.1661851997487247,700.929444400128,701.1292411000468,5.999058299697936,6.098992299754173,707.1295382000972,11.999408399919048,707.2629194001202,707.2629194001202,0.0003975997678935528,0.09926089970394969,up,0.7188855998683721,708.0294057999272,4.290021024644375e-05,0.0976453002076596,714.0460771999788,714.0460771999788,0.011659900192171335,0.11412880010902882,5.0,3.7702784999273717,,,,,,,707.2295715000946,707.2295715000946,695.2295324001461,695.2295324001461,714.0460771999788,,6.099364899797365,12.099524299846962,1550,Moral,2025-03-11_12h52.28.438,MoralCondition_v2,2022.2.5,30.026468327136392,
13,0,13,0,1,0,1,0,,,,,,,,,,,,,,,,,,,,,,,,,,,,,,,,,,,,,,,,,,,,,,,,,,,717.8459406001493,717.8459406001493,0.007072200067341328,0.09798149997368455,2.0,4.258498800219968,,,,,,,,,,,,,,,1550,Moral,2025-03-11_12h52.28.438,MoralCondition_v2,2022.2.5,30.026468327136392,
13,0,13,0,2,0,2,0,,,,,,,,,,,,,,,,,,,,,,,,,,,,,,,,,,,,,,,,,,,,,,,,,,,722.1459820000455,722.1459820000455,0.006695499876514077,0.09912659996189177,2.0,1.2268087998963892,,,,,,,,,,,,,,,1550,Moral,2025-03-11_12h52.28.438,MoralCondition_v2,2022.2.5,30.026468327136392,
13,0,13,0,3,0,3,0,,,,,,,,,,,,,,,,,,,,,,,,,,,,,,,,,,,,,,,,,,,,,,,,,,,723.4128173999488,723.4128173999488,0.006642700172960758,0.09901470015756786,2.0,1.160232000052929,,,,,,,,,,,,,,,1550,Moral,2025-03-11_12h52.28.438,MoralCondition_v2,2022.2.5,30.026468327136392,
13,0,13,0,4,0,4,0,,,,,,,,,,,,,,,,,,,,,,,,,,,,,,,,,,,,,,,,,,,,,,,,,,,724.6127623999491,724.6127623999491,0.0066460000816732645,0.09929100004956126,2.0,1.5603126999922097,,,,,,,,,,,,,,,1550,Moral,2025-03-11_12h52.28.438,MoralCondition_v2,2022.2.5,30.026468327136392,
13,0,13,0,5,0,5,0,,,,,,,,,,,,,,,,,,,,,,,,,,,,,,,,,,,,,,,,,,,,,,,,,,,726.212547800038,726.212547800038,0.007757300045341253,0.09802519995719194,5.0,3.7912427000701427,,,,,,,,,,,,,,,1550,Moral,2025-03-11_12h52.28.438,MoralCondition_v2,2022.2.5,30.026468327136392,
13,0,13,0,6,0,6,0,,,,,,,,,,,,,,,,,,,,,,,,,,,,,,,,,,,,,,,,,,,,,,,,,,,730.045894500101,730.045894500101,0.006698100129142404,0.09926040004938841,2.0,1.7601350999902934,,,,,,,,,,,,,,,1550,Moral,2025-03-11_12h52.28.438,MoralCondition_v2,2022.2.5,30.026468327136392,
13,0,13,0,,,,,,,,,,,,,,,,,,,,,,,,,,,,,,,,,,,,,,,,,,,,,,,,,,,,,,,,,,,,,731.8459695000201,731.8459695000201,0.001475699944421649,0.09768289979547262,5.0,2.497404299909249,,,,,,,,,1550,Moral,2025-03-11_12h52.28.438,MoralCondition_v2,2022.2.5,30.026468327136392,
14,0,14,0,0,0,0,0,,,,,,,,,,,,,,,,,,,,,734.3796596999746,0.0002965000458061695,0.09796170005574822,740.3793383000884,6.031346500152722,740.6628533999901,740.6628533999901,0.17541010002605617,0.281167299952358,6.01457199989818,746.6625989000313,746.6625989000313,746.6625989000313,0.06950909993611276,0.181366799864918,752.3626051000319,752.5625933001284,6.014513399917632,6.114553399849683,758.5625873000827,12.01450079982169,758.6957960999571,758.6957960999571,0.014677399769425392,0.11446119984611869,down,0.7579354997724295,759.4959019999951,5.0999922677874565e-05,0.09797949995845556,765.5290701999329,765.5290701999329,0.02623019996099174,0.13102219998836517,3.0,3.1061523999087512,,,,,,,758.6625489001162,758.6625489001162,,,,,,,1550,Moral,2025-03-11_12h52.28.438,MoralCondition_v2,2022.2.5,30.026468327136392,
14,0,14,0,1,0,1,0,,,,,,,,,,,,,,,,,,,,,,,,,,,,,,,,,,,,,,,,,,,,,,,,,,,768.6625574000645,768.6625574000645,0.0074112000875175,0.09781100018881261,3.0,2.55810540006496,,,,,,,,,,,,,,,1550,Moral,2025-03-11_12h52.28.438,MoralCondition_v2,2022.2.5,30.026468327136392,
14,0,14,0,2,0,2,0,,,,,,,,,,,,,,,,,,,,,,,,,,,,,,,,,,,,,,,,,,,,,,,,,,,771.262392600067,771.262392600067,0.006519000045955181,0.09916049987077713,4.0,2.593948299996555,,,,,,,,,,,,,,,1550,Moral,2025-03-11_12h52.28.438,MoralCondition_v2,2022.2.5,30.026468327136392,
14,0,14,0,3,0,3,0,,,,,,,,,,,,,,,,,,,,,,,,,,,,,,,,,,,,,,,,,,,,,,,,,,,773.8958068001084,773.8958068001084,0.007444899994879961,0.09826600016094744,2.0,2.2918132999911904,,,,,,,,,,,,,,,1550,Moral,2025-03-11_12h52.28.438,MoralCondition_v2,2022.2.5,30.026468327136392,
14,0,14,0,4,0,4,0,,,,,,,,,,,,,,,,,,,,,,,,,,,,,,,,,,,,,,,,,,,,,,,,,,,776.2291791001335,776.2291791001335,0.0066812001168727875,0.09894659998826683,2.0,1.7600903999991715,,,,,,,,,,,,,,,1550,Moral,2025-03-11_12h52.28.438,MoralCondition_v2,2022.2.5,30.026468327136392,
14,0,14,0,5,0,5,0,,,,,,,,,,,,,,,,,,,,,,,,,,,,,,,,,,,,,,,,,,,,,,,,,,,778.0297402001452,778.0297402001452,0.007058300077915192,0.09818900004029274,3.0,2.158643800066784,,,,,,,,,,,,,,,1550,Moral,2025-03-11_12h52.28.438,MoralCondition_v2,2022.2.5,30.026468327136392,
14,0,14,0,6,0,6,0,,,,,,,,,,,,,,,,,,,,,,,,,,,,,,,,,,,,,,,,,,,,,,,,,,,780.2294063000008,780.2294063000008,0.007110999897122383,0.09922420000657439,4.0,2.126311599975452,,,,,,,,,,,,,,,1550,Moral,2025-03-11_12h52.28.438,MoralCondition_v2,2022.2.5,30.026468327136392,
14,0,14,0,,,,,,,,,,,,,,,,,,,,,,,,,,,,,,,,,,,,,,,,,,,,,,,,,,,,,,,,,,,,,782.3959512999281,782.3959512999281,0.0007263000588864088,0.09944989997893572,3.0,3.2332061000633985,,,,,,,,,1550,Moral,2025-03-11_12h52.28.438,MoralCondition_v2,2022.2.5,30.026468327136392,
15,0,15,0,0,0,0,0,,,,,,,,,,,,,,,,,,,,,785.6625787999947,0.00013539986684918404,0.09896599990315735,791.6792077000719,6.015895499847829,791.9125026001129,791.9125026001129,0.1407115999609232,0.2492560998070985,6.016154899960384,797.9458842999302,797.9458842999302,797.9458842999302,0.0748372997622937,0.18282659980468452,803.6458580000326,803.8457396000158,6.015887999674305,6.115880299825221,809.8457411001436,12.015868599759415,809.9791240000632,809.9791240000632,0.016119599575176835,0.11588669964112341,up,0.610151199856773,810.6457231000531,4.0599843487143517e-05,0.09815079998224974,816.6792550000828,816.6792550000828,0.02511139982379973,0.13145039998926222,1.0,3.073956099804491,,,,,,,809.9457727000117,809.9457727000117,,,,,,,1550,Moral,2025-03-11_12h52.28.438,MoralCondition_v2,2022.2.5,30.026468327136392,
15,0,15,0,1,0,1,0,,,,,,,,,,,,,,,,,,,,,,,,,,,,,,,,,,,,,,,,,,,,,,,,,,,819.7790304999799,819.7790304999799,0.007681200047954917,0.0994988998863846,7.0,2.659720600116998,,,,,,,,,,,,,,,1550,Moral,2025-03-11_12h52.28.438,MoralCondition_v2,2022.2.5,30.026468327136392,
15,0,15,0,2,0,2,0,,,,,,,,,,,,,,,,,,,,,,,,,,,,,,,,,,,,,,,,,,,,,,,,,,,822.4791713000741,822.4791713000741,0.006916099926456809,0.09907809994183481,2.0,2.159897099947557,,,,,,,,,,,,,,,1550,Moral,2025-03-11_12h52.28.438,MoralCondition_v2,2022.2.5,30.026468327136392,
15,0,15,0,3,0,3,0,,,,,,,,,,,,,,,,,,,,,,,,,,,,,,,,,,,,,,,,,,,,,,,,,,,824.6789754999336,824.6789754999336,0.007643899880349636,0.09763239999301732,1.0,2.3911387000698596,,,,,,,,,,,,,,,1550,Moral,2025-03-11_12h52.28.438,MoralCondition_v2,2022.2.5,30.026468327136392,
15,0,15,0,4,0,4,0,,,,,,,,,,,,,,,,,,,,,,,,,,,,,,,,,,,,,,,,,,,,,,,,,,,827.1122612000909,827.1122612000909,0.0070003001019358635,0.09824150009080768,1.0,1.5588621001224965,,,,,,,,,,,,,,,1550,Moral,2025-03-11_12h52.28.438,MoralCondition_v2,2022.2.5,30.026468327136392,
15,0,15,0,5,0,5,0,,,,,,,,,,,,,,,,,,,,,,,,,,,,,,,,,,,,,,,,,,,,,,,,,,,828.7123394999653,828.7123394999653,0.006345999892801046,0.09939650003798306,6.0,2.194001300027594,,,,,,,,,,,,,,,1550,Moral,2025-03-11_12h52.28.438,MoralCondition_v2,2022.2.5,30.026468327136392,
15,0,15,0,6,0,6,0,,,,,,,,,,,,,,,,,,,,,,,,,,,,,,,,,,,,,,,,,,,,,,,,,,,830.945669000037,830.945669000037,0.007816600147634745,0.09798820014111698,2.0,2.890982000157237,,,,,,,,,,,,,,,1550,Moral,2025-03-11_12h52.28.438,MoralCondition_v2,2022.2.5,30.026468327136392,
15,0,15,0,,,,,,,,,,,,,,,,,,,,,,,,,,,,,,,,,,,,,,,,,,,,,,,,,,,,,,,,,,,,,833.8791688999627,833.8791688999627,0.0013643000274896622,0.09758349996991456,6.0,3.0306873000226915,,,,,,,,,1550,Moral,2025-03-11_12h52.28.438,MoralCondition_v2,2022.2.5,30.026468327136392,
16,0,16,0,0,0,0,0,,,,,,,,,,,,,,,,,,,,,836.9459280001465,0.00023620016872882843,0.09822480008006096,842.9623857999686,6.014735800214112,843.1454952999484,843.1454952999484,0.08473260002210736,0.1979390000924468,6.031364100053906,849.2455666000023,849.2455666000023,849.2455666000023,0.09059899998828769,0.1980333998799324,854.9456474999897,855.1456526999827,6.031391900032759,6.131392899900675,861.1456518000923,12.031446399865672,861.2789330000523,861.2789330000523,0.03175669978372753,0.13154069986194372,down,0.8786476999521255,862.212297799997,5.0999922677874565e-05,0.09790849988348782,868.2121443999931,868.2121443999931,0.009605699917301536,0.09773460007272661,6.0,3.556079499889165,,,,,,,861.2457940001041,861.2457940001041,849.1456510000862,849.1456510000862,868.2121443999931,,,,1550,Moral,2025-03-11_12h52.28.438,MoralCondition_v2,2022.2.5,30.026468327136392,
16,0,16,0,1,0,1,0,,,,,,,,,,,,,,,,,,,,,,,,,,,,,,,,,,,,,,,,,,,,,,,,,,,871.8124353999738,871.8124353999738,0.007021400146186352,0.09801910002715886,3.0,4.2255615999456495,,,,,,,,,,,,,,,1550,Moral,2025-03-11_12h52.28.438,MoralCondition_v2,2022.2.5,30.026468327136392,
16,0,16,0,2,0,2,0,,,,,,,,,,,,,,,,,,,,,,,,,,,,,,,,,,,,,,,,,,,,,,,,,,,876.0958241999615,876.0958241999615,0.007768800016492605,0.11439419980160892,3.0,2.8742174999788404,,,,,,,,,,,,,,,1550,Moral,2025-03-11_12h52.28.438,MoralCondition_v2,2022.2.5,30.026468327136392,
16,0,16,0,3,0,3,0,,,,,,,,,,,,,,,,,,,,,,,,,,,,,,,,,,,,,,,,,,,,,,,,,,,878.995664200047,878.995664200047,0.006856299936771393,0.09921550005674362,5.0,2.3264023000374436,,,,,,,,,,,,,,,1550,Moral,2025-03-11_12h52.28.438,MoralCondition_v2,2022.2.5,30.026468327136392,
16,0,16,0,4,0,4,0,,,,,,,,,,,,,,,,,,,,,,,,,,,,,,,,,,,,,,,,,,,,,,,,,,,881.3622254000511,881.3622254000511,0.006697499891743064,0.09906630008481443,4.0,2.56019280012697,,,,,,,,,,,,,,,1550,Moral,2025-03-11_12h52.28.438,MoralCondition_v2,2022.2.5,30.026468327136392,
16,0,16,0,5,0,5,0,,,,,,,,,,,,,,,,,,,,,,,,,,,,,,,,,,,,,,,,,,,,,,,,,,,883.9792679999955,883.9792679999955,0.00911800004541874,0.1141875998582691,5.0,2.8059388999827206,,,,,,,,,,,,,,,1550,Moral,2025-03-11_12h52.28.438,MoralCondition_v2,2022.2.5,30.026468327136392,
16,0,16,0,6,0,6,0,,,,,,,,,,,,,,,,,,,,,,,,,,,,,,,,,,,,,,,,,,,,,,,,,,,886.8122890000232,886.8122890000232,0.0071482001803815365,0.09768440015614033,4.0,2.091848300071433,,,,,,,,,,,,,,,1550,Moral,2025-03-11_12h52.28.438,MoralCondition_v2,2022.2.5,30.026468327136392,
16,0,16,0,,,,,,,,,,,,,,,,,,,,,,,,,,,,,,,,,,,,,,,,,,,,,,,,,,,,,,,,,,,,,888.9458131999709,888.9458131999709,0.0006568001117557287,0.09914920013397932,3.0,4.166548399953172,,,,,,,,,1550,Moral,2025-03-11_12h52.28.438,MoralCondition_v2,2022.2.5,30.026468327136392,
17,0,17,0,0,0,0,0,,,,,,,,,,,,,,,,,,,,,893.1456146000419,0.00038330000825226307,0.09724420006386936,899.1455141000915,6.030759100103751,899.3455288999248,899.3455288999248,0.08856239984743297,0.19766169996000826,6.030887800035998,905.4456193000078,905.4456193000078,905.4456193000078,0.08299749973230064,0.19775529974140227,911.1454133000225,911.3456030001398,6.030872199917212,6.130620799958706,917.345442000078,12.030690599931404,917.4788963000756,917.4788963000756,0.03087789984419942,0.1307202996686101,down,0.6150022998917848,918.128780900035,4.079984501004219e-05,0.09785739984363317,924.1622031000443,924.1622031000443,0.02563029993325472,0.13134029996581376,5.0,2.7735149001237005,,,,,,,917.4454250000417,917.4454250000417,905.345452999929,905.345452999929,,,,,1550,Moral,2025-03-11_12h52.28.438,MoralCondition_v2,2022.2.5,30.026468327136392,
17,0,17,0,1,0,1,0,,,,,,,,,,,,,,,,,,,,,,,,,,,,,,,,,,,,,,,,,,,,,,,,,,,926.9619247000664,926.9619247000664,0.00665819994173944,0.09944289992563426,3.0,2.5270849999506027,,,,,,,,,,,,,,,1550,Moral,2025-03-11_12h52.28.438,MoralCondition_v2,2022.2.5,30.026468327136392,
17,0,17,0,2,0,2,0,,,,,,,,,,,,,,,,,,,,,,,,,,,,,,,,,,,,,,,,,,,,,,,,,,,929.5456185999792,929.5456185999792,0.007862600032240152,0.11410900019109249,3.0,2.7742794000077993,,,,,,,,,,,,,,,1550,Moral,2025-03-11_12h52.28.438,MoralCondition_v2,2022.2.5,30.026468327136392,
17,0,17,0,3,0,3,0,,,,,,,,,,,,,,,,,,,,,,,,,,,,,,,,,,,,,,,,,,,,,,,,,,,932.3623212999664,932.3623212999664,0.008114500204101205,0.11436740006320179,4.0,1.6072891000658274,,,,,,,,,,,,,,,1550,Moral,2025-03-11_12h52.28.438,MoralCondition_v2,2022.2.5,30.026468327136392,
17,0,17,0,4,0,4,0,,,,,,,,,,,,,,,,,,,,,,,,,,,,,,,,,,,,,,,,,,,,,,,,,,,934.0122076000553,934.0122076000553,0.007646200014278293,0.11419910006225109,5.0,2.6077372999861836,,,,,,,,,,,,,,,1550,Moral,2025-03-11_12h52.28.438,MoralCondition_v2,2022.2.5,30.026468327136392,
17,0,17,0,5,0,5,0,,,,,,,,,,,,,,,,,,,,,,,,,,,,,,,,,,,,,,,,,,,,,,,,,,,936.645382600138,936.645382600138,0.005552900023758411,0.0991368000395596,4.0,2.561379599850625,,,,,,,,,,,,,,,1550,Moral,2025-03-11_12h52.28.438,MoralCondition_v2,2022.2.5,30.026468327136392,
17,0,17,0,6,0,6,0,,,,,,,,,,,,,,,,,,,,,,,,,,,,,,,,,,,,,,,,,,,,,,,,,,,939.2454123999923,939.2454123999923,0.007383599877357483,0.09792930004186928,5.0,2.2582379998639226,,,,,,,,,,,,,,,1550,Moral,2025-03-11_12h52.28.438,MoralCondition_v2,2022.2.5,30.026468327136392,
17,0,17,0,,,,,,,,,,,,,,,,,,,,,,,,,,,,,,,,,,,,,,,,,,,,,,,,,,,,,,,,,,,,,941.5453520000447,941.5453520000447,0.0013025000225752592,0.09779969998635352,3.0,3.0644018000457436,,,,,,,,,1550,Moral,2025-03-11_12h52.28.438,MoralCondition_v2,2022.2.5,30.026468327136392,
18,0,18,0,0,0,0,0,,,,,,,,,,,,,,,,,,,,,944.645453199977,0.00028319982811808586,0.09805779997259378,950.6619726000354,6.014828099869192,950.828471200075,950.828471200075,0.08217409974895418,0.18156399973668158,6.014896399807185,956.9286569999531,956.9286569999531,956.9286569999531,0.07439689966849983,0.18158139963634312,962.6286156999413,962.8285954000894,6.014688599621877,6.114695799769834,968.8286113999784,12.014732599724084,968.961930599995,968.961930599995,0.014909799676388502,0.1146360996644944,up,0.715177099686116,969.711963100126,7.71000050008297e-05,0.09749670000746846,975.7117399999406,975.7117399999406,0.009956799913197756,0.09757129987701774,2.0,2.888776599895209,,,,,,,968.9285961000714,968.9285961000714,956.8286552999634,956.8286552999634,975.7117399999406,,,,1550,Moral,2025-03-11_12h52.28.438,MoralCondition_v2,2022.2.5,30.026468327136392,
18,0,18,0,1,0,1,0,,,,,,,,,,,,,,,,,,,,,,,,,,,,,,,,,,,,,,,,,,,,,,,,,,,978.6622816000599,978.6622816000599,0.008514899993315339,0.11420389986597002,2.0,1.2730181999504566,,,,,,,,,,,,,,,1550,Moral,2025-03-11_12h52.28.438,MoralCondition_v2,2022.2.5,30.026468327136392,
18,0,18,0,2,0,2,0,,,,,,,,,,,,,,,,,,,,,,,,,,,,,,,,,,,,,,,,,,,,,,,,,,,979.9788051000796,979.9788051000796,0.008017200045287609,0.11456540017388761,2.0,1.440776500152424,,,,,,,,,,,,,,,1550,Moral,2025-03-11_12h52.28.438,MoralCondition_v2,2022.2.5,30.026468327136392,
18,0,18,0,3,0,3,0,,,,,,,,,,,,,,,,,,,,,,,,,,,,,,,,,,,,,,,,,,,,,,,,,,,981.4452234001365,981.4452234001365,0.0068599998485296965,0.09931949991732836,7.0,3.5933897998183966,,,,,,,,,,,,,,,1550,Moral,2025-03-11_12h52.28.438,MoralCondition_v2,2022.2.5,30.026468327136392,
18,0,18,0,4,0,4,0,,,,,,,,,,,,,,,,,,,,,,,,,,,,,,,,,,,,,,,,,,,,,,,,,,,985.0956022001337,985.0956022001337,0.00942320004105568,0.11362039996311069,6.0,1.8053254999686033,,,,,,,,,,,,,,,1550,Moral,2025-03-11_12h52.28.438,MoralCondition_v2,2022.2.5,30.026468327136392,
18,0,18,0,5,0,5,0,,,,,,,,,,,,,,,,,,,,,,,,,,,,,,,,,,,,,,,,,,,,,,,,,,,986.9284976001363,986.9284976001363,0.007535699987784028,0.09757009986788034,1.0,2.524556500138715,,,,,,,,,,,,,,,1550,Moral,2025-03-11_12h52.28.438,MoralCondition_v2,2022.2.5,30.026468327136392,
18,0,18,0,6,0,6,0,,,,,,,,,,,,,,,,,,,,,,,,,,,,,,,,,,,,,,,,,,,,,,,,,,,989.4951599000487,989.4951599000487,0.007555500138550997,0.09772219997830689,1.0,1.1584189999848604,,,,,,,,,,,,,,,1550,Moral,2025-03-11_12h52.28.438,MoralCondition_v2,2022.2.5,30.026468327136392,
18,0,18,0,,,,,,,,,,,,,,,,,,,,,,,,,,,,,,,,,,,,,,,,,,,,,,,,,,,,,,,,,,,,,990.6950743000489,990.6950743000489,0.0011745002120733261,0.0977396999951452,6.0,2.83100189990364,,,,,,,,,1550,Moral,2025-03-11_12h52.28.438,MoralCondition_v2,2022.2.5,30.026468327136392,
19,0,19,0,0,0,0,0,,,,,,,,,,,,,,,,,,,,,993.5621452000923,0.00016559986397624016,0.09916049987077713,999.5784801000264,6.0157514999154955,999.7620240000542,999.7620240000542,0.08375279977917671,0.19928419985808432,5.999096899759024,1005.8286198999267,1005.8286198999267,1005.8286198999267,0.05615229974500835,0.16587569960393012,1011.5284164999612,1011.761799500091,5.999083099653944,6.098831399809569,1017.7617737001274,11.999048199737445,1017.861707800068,1017.861707800068,-1.820037141442299e-05,0.09904329967685044,up,0.6635833997279406,1018.56183780008,4.000007174909115e-05,0.09811200015246868,1024.5785004999489,1024.5785004999489,0.008889000164344907,0.1143461000174284,6.0,2.3064341999124736,,,,,,,1017.8284310000017,1017.8284310000017,1005.8286198999267,1005.8286198999267,1024.5785004999489,,6.099164199782535,12.099141199607402,1550,Moral,2025-03-11_12h52.28.438,MoralCondition_v2,2022.2.5,30.026468327136392,
19,0,19,0,1,0,1,0,,,,,,,,,,,,,,,,,,,,,,,,,,,,,,,,,,,,,,,,,,,,,,,,,,,1026.9120547000784,1026.9120547000784,0.0071240998804569244,0.09848859999328852,1.0,1.4923215000890195,,,,,,,,,,,,,,,1550,Moral,2025-03-11_12h52.28.438,MoralCondition_v2,2022.2.5,30.026468327136392,
19,0,19,0,2,0,2,0,,,,,,,,,,,,,,,,,,,,,,,,,,,,,,,,,,,,,,,,,,,,,,,,,,,1028.4450932000764,1028.4450932000764,0.0071524998638778925,0.0980350999161601,2.0,2.325285099912435,,,,,,,,,,,,,,,1550,Moral,2025-03-11_12h52.28.438,MoralCondition_v2,2022.2.5,30.026468327136392,
19,0,19,0,3,0,3,0,,,,,,,,,,,,,,,,,,,,,,,,,,,,,,,,,,,,,,,,,,,,,,,,,,,1030.8117571000475,1030.8117571000475,0.007689000107347965,0.09773040004074574,1.0,1.7909875998739153,,,,,,,,,,,,,,,1550,Moral,2025-03-11_12h52.28.438,MoralCondition_v2,2022.2.5,30.026468327136392,
19,0,19,0,4,0,4,0,,,,,,,,,,,,,,,,,,,,,,,,,,,,,,,,,,,,,,,,,,,,,,,,,,,1032.6449492000975,1032.6449492000975,0.00789689994417131,0.09746039984747767,2.0,1.7241082999389619,,,,,,,,,,,,,,,1550,Moral,2025-03-11_12h52.28.438,MoralCondition_v2,2022.2.5,30.026468327136392,
19,0,19,0,5,0,5,0,,,,,,,,,,,,,,,,,,,,,,,,,,,,,,,,,,,,,,,,,,,,,,,,,,,1034.4116326000076,1034.4116326000076,0.008330399869009852,0.09794820006936789,2.0,1.9573951000347733,,,,,,,,,,,,,,,1550,Moral,2025-03-11_12h52.28.438,MoralCondition_v2,2022.2.5,30.026468327136392,
19,0,19,0,6,0,6,0,,,,,,,,,,,,,,,,,,,,,,,,,,,,,,,,,,,,,,,,,,,,,,,,,,,1036.4114817001391,1036.4114817001391,0.008312000194564462,0.09820580016821623,6.0,2.1240366001147777,,,,,,,,,,,,,,,1550,Moral,2025-03-11_12h52.28.438,MoralCondition_v2,2022.2.5,30.026468327136392,
19,0,19,0,,,,,,,,,,,,,,,,,,,,,,,,,,,,,,,,,,,,,,,,,,,,,,,,,,,,,,,,,,,,,1038.5784833000507,1038.5784833000507,0.001543999882414937,0.09804619988426566,6.0,1.9644391001202166,,,,,,,,,1550,Moral,2025-03-11_12h52.28.438,MoralCondition_v2,2022.2.5,30.026468327136392,
