loop.thisRepN,loop.thisTrialN,loop.thisN,loop.thisIndex,evaluate_all_emotions.thisRepN,evaluate_all_emotions.thisTrialN,evaluate_all_emotions.thisN,evaluate_all_emotions.thisIndex,sync_beep_1.started,p_port.started,p_port.stopped,sync_beep_2.started,sync_beep_2.stopped,sync_beep_3.started,sync_beep_3.stopped,sync_beep_4.started,sync_beep_4.stopped,baseline.started,p_port_2.started,p_port_2.stopped,baseline.stopped,p_port_3.started,Game_Start_Text.started,p_port_4.started,p_port_4.stopped,key_resp.started,key_resp.keys,key_resp.rt,fixation_cross.started,p_port_5.started,p_port_5.stopped,fixation_cross.stopped,p_port_6.started,player_image_intro.started,player_name_intro.started,p_port_7.started,p_port_7.stopped,p_port_8.started,player_image_offer.started,player_name_offer.started,proposed_split.started,p_port_9.started,p_port_9.stopped,proposed_split.stopped,accept_reject.started,p_port_15.started,p_port_15.stopped,accept_reject.stopped,p_port_10.started,player_image_offer.stopped,player_name_offer.stopped,arrow_instructions.started,offer_choice.started,p_port_11.started,p_port_11.stopped,offer_choice.keys,offer_choice.rt,Instructions_Affinity_Score.started,p_port_12.started,p_port_12.stopped,Instructions_Affinity_Score.stopped,Emotion_Image.started,AffinityScore.started,p_port_13.started,p_port_13.stopped,AffinityScore.response,AffinityScore.rt,Instruction.started,Moral_Disgust_Score.started,p_port_14.started,p_port_14.stopped,Moral_Disgust_Score.response,Moral_Disgust_Score.rt,player_image_intro.stopped,player_name_intro.stopped,p_port_8.stopped,p_port_10.stopped,p_port_6.stopped,participant,session,date,expName,psychopyVersion,frameRate,
,,,,,,,,22.085449159378186,0.0008574000094085932,0.10104059998411685,22.667709469911642,22.967757000005804,23.267753969994374,23.567757299984805,23.867701569921337,24.20113419997506,24.20113419997506,0.0020886000711470842,0.10124510002788156,39.20117829996161,15.00129000004381,39.30118439998478,0.0012621000641956925,0.10118970007169992,39.76787239999976,space,1.3475275000091642,,,,,,,,,,,,,,,,,,,,,,,,,,,,,,,,,,,,,,,,,,,,,,,,,,,1660,Moral,2025-03-04_17h31.15.868,MoralCondition_v2,2022.2.5,29.962394198714776,
0,0,0,0,0,0,0,0,,,,,,,,,,,,,,,,,,,,,41.151170999975875,0.0012223999947309494,0.09823320002760738,47.15141019993462,6.031715800054371,47.367969999904744,47.367969999904744,0.07621500000823289,0.21487480006180704,6.014742200030014,53.45131659996696,53.45131659996696,53.45131659996696,0.0697628001216799,0.19817000010516495,59.15124009991996,59.35116540000308,6.0315166000509635,6.131406200118363,65.35118699993473,12.031459800084122,65.45122259994969,65.45122259994969,65.48451619991101,65.48451619991101,0.03182400006335229,0.13138900010380894,up,1.9670708000194281,67.48452469997574,4.630000330507755e-05,0.09703499998431653,73.50137209997047,73.50137209997047,73.50137209997047,0.00888079998549074,0.11378510005306453,2.0,5.289158699917607,,,,,,,,,,,,1660,Moral,2025-03-04_17h31.15.868,MoralCondition_v2,2022.2.5,29.962394198714776,
0,0,0,0,1,0,1,0,,,,,,,,,,,,,,,,,,,,,,,,,,,,,,,,,,,,,,,,,,,,,,,,,,,,,,78.83469719998538,78.83469719998538,0.00847769994288683,0.11421110003720969,2.0,2.5070252999430522,,,,,,,,,,,,1660,Moral,2025-03-04_17h31.15.868,MoralCondition_v2,2022.2.5,29.962394198714776,
0,0,0,0,2,0,2,0,,,,,,,,,,,,,,,,,,,,,,,,,,,,,,,,,,,,,,,,,,,,,,,,,,,,,,81.3677012999542,81.3677012999542,0.008091799914836884,0.09814309992361814,1.0,2.890902099898085,,,,,,,,,,,,1660,Moral,2025-03-04_17h31.15.868,MoralCondition_v2,2022.2.5,29.962394198714776,
0,0,0,0,3,0,3,0,,,,,,,,,,,,,,,,,,,,,,,,,,,,,,,,,,,,,,,,,,,,,,,,,,,,,,84.3013511999743,84.3013511999743,0.0070547000505030155,0.09904170001391321,3.0,3.9598165000788867,,,,,,,,,,,,1660,Moral,2025-03-04_17h31.15.868,MoralCondition_v2,2022.2.5,29.962394198714776,
0,0,0,0,4,0,4,0,,,,,,,,,,,,,,,,,,,,,,,,,,,,,,,,,,,,,,,,,,,,,,,,,,,,,,88.30100749991834,88.30100749991834,0.007598299998790026,0.09787639998830855,3.0,3.124563399935141,,,,,,,,,,,,1660,Moral,2025-03-04_17h31.15.868,MoralCondition_v2,2022.2.5,29.962394198714776,
0,0,0,0,5,0,5,0,,,,,,,,,,,,,,,,,,,,,,,,,,,,,,,,,,,,,,,,,,,,,,,,,,,,,,91.46784669999033,91.46784669999033,0.007324800011701882,0.09890590002760291,4.0,2.7593088999856263,,,,,,,,,,,,1660,Moral,2025-03-04_17h31.15.868,MoralCondition_v2,2022.2.5,29.962394198714776,
0,0,0,0,6,0,6,0,,,,,,,,,,,,,,,,,,,,,,,,,,,,,,,,,,,,,,,,,,,,,,,,,,,,,,94.26794639998116,94.26794639998116,0.007975100073963404,0.0987593000754714,3.0,3.925187799963169,,,,,,,,,,,,1660,Moral,2025-03-04_17h31.15.868,MoralCondition_v2,2022.2.5,29.962394198714776,
0,0,0,0,,,,,,,,,,,,,,,,,,,,,,,,,,,,,,,,,,,,,,,,,,,,,,,,,,,,,,,,,,,,,,,,98.23434450000059,98.23434450000059,0.0019708999898284674,0.09741290006786585,4.0,7.9299177000066265,,,,,,1660,Moral,2025-03-04_17h31.15.868,MoralCondition_v2,2022.2.5,29.962394198714776,
1,0,1,0,0,0,0,0,,,,,,,,,,,,,,,,,,,,,106.20144259999506,0.00015950005035847425,0.09917419997509569,112.21785619994625,6.015837299986742,112.38429929991253,112.38429929991253,0.08013870008289814,0.18223220005165786,6.0158865000121295,118.48442369990516,118.48442369990516,118.48442369990516,0.07669870008248836,0.1824624000582844,124.18454279995058,124.38457100000232,6.015862200059928,6.115821800078265,130.3845708000008,12.015862000058405,130.48466640000697,130.48466640000697,130.51787549990695,130.51787549990695,0.016106200055219233,0.1155873000388965,up,0.7893234000075608,131.36787999991793,5.5699958465993404e-05,0.09763370000291616,137.36784919991624,137.36784919991624,137.36784919991624,0.006697800010442734,0.09755039995070547,5.0,6.492038300028071,,,,,,,118.38457859994378,118.38457859994378,,,,1660,Moral,2025-03-04_17h31.15.868,MoralCondition_v2,2022.2.5,29.962394198714776,
1,0,1,0,1,0,1,0,,,,,,,,,,,,,,,,,,,,,,,,,,,,,,,,,,,,,,,,,,,,,,,,,,,,,,143.90119040000718,143.90119040000718,0.008358900086022913,0.09761450008954853,5.0,5.156950499978848,,,,,,,,,,,,1660,Moral,2025-03-04_17h31.15.868,MoralCondition_v2,2022.2.5,29.962394198714776,
1,0,1,0,2,0,2,0,,,,,,,,,,,,,,,,,,,,,,,,,,,,,,,,,,,,,,,,,,,,,,,,,,,,,,149.1010643999325,149.1010643999325,0.0064224000088870525,0.09920180006884038,3.0,4.627740599913523,,,,,,,,,,,,1660,Moral,2025-03-04_17h31.15.868,MoralCondition_v2,2022.2.5,29.962394198714776,
1,0,1,0,3,0,3,0,,,,,,,,,,,,,,,,,,,,,,,,,,,,,,,,,,,,,,,,,,,,,,,,,,,,,,153.78485149994958,153.78485149994958,0.008066499955020845,0.11402670003008097,5.0,3.240376300062053,,,,,,,,,,,,1660,Moral,2025-03-04_17h31.15.868,MoralCondition_v2,2022.2.5,29.962394198714776,
1,0,1,0,4,0,4,0,,,,,,,,,,,,,,,,,,,,,,,,,,,,,,,,,,,,,,,,,,,,,,,,,,,,,,157.05117290001363,157.05117290001363,0.007674599997699261,0.09795269998721778,3.0,4.857893700012937,,,,,,,,,,,,1660,Moral,2025-03-04_17h31.15.868,MoralCondition_v2,2022.2.5,29.962394198714776,
1,0,1,0,5,0,5,0,,,,,,,,,,,,,,,,,,,,,,,,,,,,,,,,,,,,,,,,,,,,,,,,,,,,,,161.96818219998386,161.96818219998386,0.007119600079022348,0.11400230007711798,3.0,2.5094175999984145,,,,,,,,,,,,1660,Moral,2025-03-04_17h31.15.868,MoralCondition_v2,2022.2.5,29.962394198714776,
1,0,1,0,6,0,6,0,,,,,,,,,,,,,,,,,,,,,,,,,,,,,,,,,,,,,,,,,,,,,,,,,,,,,,164.50125649990514,164.50125649990514,0.007152699981816113,0.09804730000905693,2.0,2.925178600009531,,,,,,,,,,,,1660,Moral,2025-03-04_17h31.15.868,MoralCondition_v2,2022.2.5,29.962394198714776,
1,0,1,0,,,,,,,,,,,,,,,,,,,,,,,,,,,,,,,,,,,,,,,,,,,,,,,,,,,,,,,,,,,,,,,,167.46790439996403,167.46790439996403,0.0007568999426439404,0.09895010001491755,2.0,8.699499899987131,,,,,,1660,Moral,2025-03-04_17h31.15.868,MoralCondition_v2,2022.2.5,29.962394198714776,
2,0,2,0,0,0,0,0,,,,,,,,,,,,,,,,,,,,,176.20170619990677,0.00040470005478709936,0.0974740000674501,182.2012085999595,6.030654200003482,182.40103939990513,182.40103939990513,0.08806420001201332,0.1974192000925541,6.03065540001262,188.50137109996285,188.50137109996285,188.50137109996285,0.0888675000751391,0.1977398000890389,194.20125249994453,194.40125429991167,6.030725800083019,6.130687000113539,200.40129089995753,12.030748300021514,200.5012172999559,200.5012172999559,200.534585999907,200.534585999907,0.030809600139036775,0.13061480014584959,up,2.149086599936709,202.71792329999153,5.170004442334175e-05,0.09780640003737062,208.73455449996982,208.73455449996982,208.73455449996982,0.008871000027284026,0.11461270006839186,4.0,4.939821199979633,,,,,,,188.40122959995642,188.40122959995642,,,,1660,Moral,2025-03-04_17h31.15.868,MoralCondition_v2,2022.2.5,29.962394198714776,
2,0,2,0,1,0,1,0,,,,,,,,,,,,,,,,,,,,,,,,,,,,,,,,,,,,,,,,,,,,,,,,,,,,,,213.70128119993024,213.70128119993024,0.007665600045584142,0.09784659999422729,5.0,3.491318400017917,,,,,,,,,,,,1660,Moral,2025-03-04_17h31.15.868,MoralCondition_v2,2022.2.5,29.962394198714776,
2,0,2,0,2,0,2,0,,,,,,,,,,,,,,,,,,,,,,,,,,,,,,,,,,,,,,,,,,,,,,,,,,,,,,217.2347596999025,217.2347596999025,0.00629980000667274,0.09938779997173697,3.0,2.7605343000032008,,,,,,,,,,,,1660,Moral,2025-03-04_17h31.15.868,MoralCondition_v2,2022.2.5,29.962394198714776,
2,0,2,0,3,0,3,0,,,,,,,,,,,,,,,,,,,,,,,,,,,,,,,,,,,,,,,,,,,,,,,,,,,,,,220.03443120000884,220.03443120000884,0.007462300010956824,0.09789670002646744,2.0,3.991341899964027,,,,,,,,,,,,1660,Moral,2025-03-04_17h31.15.868,MoralCondition_v2,2022.2.5,29.962394198714776,
2,0,2,0,4,0,4,0,,,,,,,,,,,,,,,,,,,,,,,,,,,,,,,,,,,,,,,,,,,,,,,,,,,,,,224.06800969992764,224.06800969992764,0.007881699944846332,0.09746429999358952,3.0,4.89042359997984,,,,,,,,,,,,1660,Moral,2025-03-04_17h31.15.868,MoralCondition_v2,2022.2.5,29.962394198714776,
2,0,2,0,5,0,5,0,,,,,,,,,,,,,,,,,,,,,,,,,,,,,,,,,,,,,,,,,,,,,,,,,,,,,,229.00141239992809,229.00141239992809,0.007613699999637902,0.09759100002702326,3.0,2.2576893999939784,,,,,,,,,,,,1660,Moral,2025-03-04_17h31.15.868,MoralCondition_v2,2022.2.5,29.962394198714776,
2,0,2,0,6,0,6,0,,,,,,,,,,,,,,,,,,,,,,,,,,,,,,,,,,,,,,,,,,,,,,,,,,,,,,231.30131389992312,231.30131389992312,0.007093499996699393,0.09925750002730638,4.0,3.4929786999709904,,,,,,,,,,,,1660,Moral,2025-03-04_17h31.15.868,MoralCondition_v2,2022.2.5,29.962394198714776,
2,0,2,0,,,,,,,,,,,,,,,,,,,,,,,,,,,,,,,,,,,,,,,,,,,,,,,,,,,,,,,,,,,,,,,,234.8346756999381,234.8346756999381,0.0013195000356063247,0.09780750004574656,4.0,7.097700299927965,,,,,,1660,Moral,2025-03-04_17h31.15.868,MoralCondition_v2,2022.2.5,29.962394198714776,
3,0,3,0,0,0,0,0,,,,,,,,,,,,,,,,,,,,,241.96813209995162,0.00013390008825808764,0.09928470000158995,247.98453219991643,6.015944899991155,248.1678636999568,248.1678636999568,0.08388070005457848,0.19923300005029887,5.999269400024787,254.234635300003,254.234635300003,254.234635300003,0.05983770010061562,0.1664658001391217,259.93464399990626,260.1345694999909,5.999356600106694,6.099295100080781,266.13456239993684,11.999309500097297,266.23455099994317,266.23455099994317,266.2679019999923,266.2679019999923,0.0003719001542776823,0.09929700009524822,up,1.0229331000009552,267.3345913999947,3.729993477463722e-05,0.09808639995753765,273.3512064999668,273.3512064999668,273.3512064999668,0.008239499991759658,0.1147345999488607,3.0,3.3406673000426963,,,,,,,254.234635300003,254.234635300003,6.099280600086786,12.09931200009305,,1660,Moral,2025-03-04_17h31.15.868,MoralCondition_v2,2022.2.5,29.962394198714776,
3,0,3,0,1,0,1,0,,,,,,,,,,,,,,,,,,,,,,,,,,,,,,,,,,,,,,,,,,,,,,,,,,,,,,276.71788000001106,276.71788000001106,0.006344499997794628,0.09924240002874285,4.0,2.1274011000059545,,,,,,,,,,,,1660,Moral,2025-03-04_17h31.15.868,MoralCondition_v2,2022.2.5,29.962394198714776,
3,0,3,0,2,0,2,0,,,,,,,,,,,,,,,,,,,,,,,,,,,,,,,,,,,,,,,,,,,,,,,,,,,,,,278.8848424999742,278.8848424999742,0.006839299923740327,0.09920619998592883,2.0,4.526700000045821,,,,,,,,,,,,1660,Moral,2025-03-04_17h31.15.868,MoralCondition_v2,2022.2.5,29.962394198714776,
3,0,3,0,3,0,3,0,,,,,,,,,,,,,,,,,,,,,,,,,,,,,,,,,,,,,,,,,,,,,,,,,,,,,,283.45134219992906,283.45134219992906,0.007434899918735027,0.09796439995989203,3.0,1.9250219999812543,,,,,,,,,,,,1660,Moral,2025-03-04_17h31.15.868,MoralCondition_v2,2022.2.5,29.962394198714776,
3,0,3,0,4,0,4,0,,,,,,,,,,,,,,,,,,,,,,,,,,,,,,,,,,,,,,,,,,,,,,,,,,,,,,285.417957299971,285.417957299971,0.006651800009422004,0.0991965999128297,3.0,2.8936644999776036,,,,,,,,,,,,1660,Moral,2025-03-04_17h31.15.868,MoralCondition_v2,2022.2.5,29.962394198714776,
3,0,3,0,5,0,5,0,,,,,,,,,,,,,,,,,,,,,,,,,,,,,,,,,,,,,,,,,,,,,,,,,,,,,,288.3512522999663,288.3512522999663,0.006477699964307249,0.0993159000063315,4.0,2.4273616999853402,,,,,,,,,,,,1660,Moral,2025-03-04_17h31.15.868,MoralCondition_v2,2022.2.5,29.962394198714776,
3,0,3,0,6,0,6,0,,,,,,,,,,,,,,,,,,,,,,,,,,,,,,,,,,,,,,,,,,,,,,,,,,,,,,290.8179259999888,290.8179259999888,0.006603799993172288,0.09906070004217327,2.0,3.160138600040227,,,,,,,,,,,,1660,Moral,2025-03-04_17h31.15.868,MoralCondition_v2,2022.2.5,29.962394198714776,
3,0,3,0,,,,,,,,,,,,,,,,,,,,,,,,,,,,,,,,,,,,,,,,,,,,,,,,,,,,,,,,,,,,,,,,294.01778519991785,294.01778519991785,0.0014152999501675367,0.09788559994194657,4.0,3.164737300015986,,,,,,1660,Moral,2025-03-04_17h31.15.868,MoralCondition_v2,2022.2.5,29.962394198714776,
4,0,4,0,0,0,0,0,,,,,,,,,,,,,,,,,,,,,297.2180410999572,0.0003423000453040004,0.09764729999005795,303.2178786000004,6.031010700040497,303.4177575999638,303.4177575999638,0.09276620007585734,0.19764400005806237,6.031205900013447,309.5011202999158,309.5011202999158,309.5011202999158,0.0694746000226587,0.18098840001039207,315.20135699992534,315.40132449998055,6.014543500030413,6.114301600027829,321.4012691999087,12.014477800112218,321.50124689994846,321.50124689994846,321.5345792999724,321.5345792999724,0.014534400077536702,0.11430440004914999,up,0.9404078000225127,322.5178763999138,4.0499959141016006e-05,0.09808889997657388,,328.55119139992166,328.55119139992166,0.025999599951319396,0.13148699991870672,2.0,3.706311700050719,,,,,,,309.4011281999992,309.4011281999992,,,,1660,Moral,2025-03-04_17h31.15.868,MoralCondition_v2,2022.2.5,29.962394198714776,
4,0,4,0,1,0,1,0,,,,,,,,,,,,,,,,,,,,,,,,,,,,,,,,,,,,,,,,,,,,,,,,,,,,,,332.2845677000005,332.2845677000005,0.007199799991212785,0.09918269992340356,5.0,3.1264798999764025,,,,,,,,,,,,1660,Moral,2025-03-04_17h31.15.868,MoralCondition_v2,2022.2.5,29.962394198714776,
4,0,4,0,2,0,2,0,,,,,,,,,,,,,,,,,,,,,,,,,,,,,,,,,,,,,,,,,,,,,,,,,,,,,,335.4681292999303,335.4681292999303,0.008309900062158704,0.11411419999785721,6.0,1.8736938999500126,,,,,,,,,,,,1660,Moral,2025-03-04_17h31.15.868,MoralCondition_v2,2022.2.5,29.962394198714776,
4,0,4,0,3,0,3,0,,,,,,,,,,,,,,,,,,,,,,,,,,,,,,,,,,,,,,,,,,,,,,,,,,,,,,337.36774879996665,337.36774879996665,0.007131899939849973,0.09812159999273717,2.0,2.2252531000413,,,,,,,,,,,,1660,Moral,2025-03-04_17h31.15.868,MoralCondition_v2,2022.2.5,29.962394198714776,
4,0,4,0,4,0,4,0,,,,,,,,,,,,,,,,,,,,,,,,,,,,,,,,,,,,,,,,,,,,,,,,,,,,,,339.6346157999942,339.6346157999942,0.006722999969497323,0.09944879997055978,3.0,2.42677330004517,,,,,,,,,,,,1660,Moral,2025-03-04_17h31.15.868,MoralCondition_v2,2022.2.5,29.962394198714776,
4,0,4,0,5,0,5,0,,,,,,,,,,,,,,,,,,,,,,,,,,,,,,,,,,,,,,,,,,,,,,,,,,,,,,342.11813329998404,342.11813329998404,0.00793540000449866,0.11463179998099804,4.0,3.207692199968733,,,,,,,,,,,,1660,Moral,2025-03-04_17h31.15.868,MoralCondition_v2,2022.2.5,29.962394198714776,
4,0,4,0,6,0,6,0,,,,,,,,,,,,,,,,,,,,,,,,,,,,,,,,,,,,,,,,,,,,,,,,,,,,,,345.35109169990756,345.35109169990756,0.006309499964118004,0.09911299997474998,2.0,2.460492499987595,,,,,,,,,,,,1660,Moral,2025-03-04_17h31.15.868,MoralCondition_v2,2022.2.5,29.962394198714776,
4,0,4,0,,,,,,,,,,,,,,,,,,,,,,,,,,,,,,,,,,,,,,,,,,,,,,,,,,,,,,,,,,,,,,,,347.85122339997906,347.85122339997906,0.0006974999560043216,0.09934690000955015,2.0,6.26660929992795,,,,,,1660,Moral,2025-03-04_17h31.15.868,MoralCondition_v2,2022.2.5,29.962394198714776,
5,0,5,0,0,0,0,0,,,,,,,,,,,,,,,,,,,,,354.1515235999832,0.00016430008690804243,0.0992538999998942,360.16791989991907,6.0159815000370145,360.33465919992886,360.33465919992886,0.0723747001029551,0.18296180001925677,6.016022500116378,366.4345974000171,366.4345974000171,366.4345974000171,0.06896310008596629,0.18263280007522553,372.13460899994243,372.33453120000195,6.016084400122054,6.1159124000696465,378.33473479992244,12.016209400026128,378.43454129993916,378.43454129993916,378.4678203999065,378.4678203999065,0.01609360007569194,0.11596750013995916,up,1.5116729999426752,380.0345362999942,3.9599952287971973e-05,0.09769880003295839,386.0343887999188,386.0343887999188,386.0343887999188,0.009659599978476763,0.09782259992789477,4.0,3.55559370003175,,,,,,,366.3345011000056,366.3345011000056,,,,1660,Moral,2025-03-04_17h31.15.868,MoralCondition_v2,2022.2.5,29.962394198714776,
5,0,5,0,1,0,1,0,,,,,,,,,,,,,,,,,,,,,,,,,,,,,,,,,,,,,,,,,,,,,,,,,,,,,,389.63447910000104,389.63447910000104,0.007366599980741739,0.09794979996513575,2.0,2.7918526000576094,,,,,,,,,,,,1660,Moral,2025-03-04_17h31.15.868,MoralCondition_v2,2022.2.5,29.962394198714776,
5,0,5,0,2,0,2,0,,,,,,,,,,,,,,,,,,,,,,,,,,,,,,,,,,,,,,,,,,,,,,,,,,,,,,392.46779049991164,392.46779049991164,0.008154100039973855,0.09795239998493344,3.0,2.757672999985516,,,,,,,,,,,,1660,Moral,2025-03-04_17h31.15.868,MoralCondition_v2,2022.2.5,29.962394198714776,
5,0,5,0,3,0,3,0,,,,,,,,,,,,,,,,,,,,,,,,,,,,,,,,,,,,,,,,,,,,,,,,,,,,,,395.28487769991625,395.28487769991625,0.008746300009079278,0.1139098999556154,2.0,2.00602530001197,,,,,,,,,,,,1660,Moral,2025-03-04_17h31.15.868,MoralCondition_v2,2022.2.5,29.962394198714776,
5,0,5,0,4,0,4,0,,,,,,,,,,,,,,,,,,,,,,,,,,,,,,,,,,,,,,,,,,,,,,,,,,,,,,397.3347005000105,397.3347005000105,0.008212200016714633,0.11456209991592914,2.0,2.940687800059095,,,,,,,,,,,,1660,Moral,2025-03-04_17h31.15.868,MoralCondition_v2,2022.2.5,29.962394198714776,
5,0,5,0,5,0,5,0,,,,,,,,,,,,,,,,,,,,,,,,,,,,,,,,,,,,,,,,,,,,,,,,,,,,,,400.3012116999598,400.3012116999598,0.007510599913075566,0.09802639996632934,4.0,2.4914635999593884,,,,,,,,,,,,1660,Moral,2025-03-04_17h31.15.868,MoralCondition_v2,2022.2.5,29.962394198714776,
5,0,5,0,6,0,6,0,,,,,,,,,,,,,,,,,,,,,,,,,,,,,,,,,,,,,,,,,,,,,,,,,,,,,,402.8514229999855,402.8514229999855,0.008150800014846027,0.1140544000081718,3.0,3.7066871999995783,,,,,,,,,,,,1660,Moral,2025-03-04_17h31.15.868,MoralCondition_v2,2022.2.5,29.962394198714776,
5,0,5,0,,,,,,,,,,,,,,,,,,,,,,,,,,,,,,,,,,,,,,,,,,,,,,,,,,,,,,,,,,,,,,,,406.5846966999816,406.5846966999816,0.001117600011639297,0.0982922000112012,4.0,2.3314979999559,,,,,,1660,Moral,2025-03-04_17h31.15.868,MoralCondition_v2,2022.2.5,29.962394198714776,
6,0,6,0,0,0,0,0,,,,,,,,,,,,,,,,,,,,,408.9512222999474,0.0002853000769391656,0.09785969997756183,414.95130549999885,6.031411200063303,415.15110219991766,415.15110219991766,0.08738430007360876,0.19807290006428957,6.031204200000502,421.2510439999169,421.2510439999169,421.2510439999169,0.0839789001038298,0.1978825000114739,426.9511535000056,427.15113919996656,6.03120820003096,6.131183600053191,433.15124899998773,12.031343600014225,433.2511582999723,433.2511582999723,433.28448959998786,433.28448959998786,0.03138180007226765,0.13126530009321868,up,2.310732400044799,435.6511507999385,4.099996294826269e-05,0.0977431999053806,,441.66764649993274,441.66764649993274,0.024717199965380132,0.11488899996038526,5.0,4.291016299976036,,,,,,,421.15114909992553,421.15114909992553,,,,1660,Moral,2025-03-04_17h31.15.868,MoralCondition_v2,2022.2.5,29.962394198714776,
6,0,6,0,1,0,1,0,,,,,,,,,,,,,,,,,,,,,,,,,,,,,,,,,,,,,,,,,,,,,,,,,,,,,,446.0011880999664,446.0011880999664,0.006752200075425208,0.09928229998331517,3.0,1.6936277999775484,,,,,,,,,,,,1660,Moral,2025-03-04_17h31.15.868,MoralCondition_v2,2022.2.5,29.962394198714776,
6,0,6,0,2,0,2,0,,,,,,,,,,,,,,,,,,,,,,,,,,,,,,,,,,,,,,,,,,,,,,,,,,,,,,447.734928599908,447.734928599908,0.007734999991953373,0.0974551000399515,2.0,1.6241916998988017,,,,,,,,,,,,1660,Moral,2025-03-04_17h31.15.868,MoralCondition_v2,2022.2.5,29.962394198714776,
6,0,6,0,3,0,3,0,,,,,,,,,,,,,,,,,,,,,,,,,,,,,,,,,,,,,,,,,,,,,,,,,,,,,,449.40100519999396,449.40100519999396,0.006804600008763373,0.09914750000461936,3.0,1.8613875999581069,,,,,,,,,,,,1660,Moral,2025-03-04_17h31.15.868,MoralCondition_v2,2022.2.5,29.962394198714776,
6,0,6,0,4,0,4,0,,,,,,,,,,,,,,,,,,,,,,,,,,,,,,,,,,,,,,,,,,,,,,,,,,,,,,451.3176180999726,451.3176180999726,0.007825199980288744,0.11306989996228367,2.0,1.4895271999994293,,,,,,,,,,,,1660,Moral,2025-03-04_17h31.15.868,MoralCondition_v2,2022.2.5,29.962394198714776,
6,0,6,0,5,0,5,0,,,,,,,,,,,,,,,,,,,,,,,,,,,,,,,,,,,,,,,,,,,,,,,,,,,,,,452.83447989996057,452.83447989996057,0.0057649000082165,0.09940609999466687,2.0,3.0614572999766096,,,,,,,,,,,,1660,Moral,2025-03-04_17h31.15.868,MoralCondition_v2,2022.2.5,29.962394198714776,
6,0,6,0,6,0,6,0,,,,,,,,,,,,,,,,,,,,,,,,,,,,,,,,,,,,,,,,,,,,,,,,,,,,,,455.9514033999294,455.9514033999294,0.008095200057141483,0.11451210000086576,3.0,2.107284600031562,,,,,,,,,,,,1660,Moral,2025-03-04_17h31.15.868,MoralCondition_v2,2022.2.5,29.962394198714776,
6,0,6,0,,,,,,,,,,,,,,,,,,,,,,,,,,,,,,,,,,,,,,,,,,,,,,,,,,,,,,,,,,,,,,,,458.0846675999928,458.0846675999928,0.0013645000290125608,0.09786300000268966,4.0,4.797766399919055,,,,,,1660,Moral,2025-03-04_17h31.15.868,MoralCondition_v2,2022.2.5,29.962394198714776,
7,0,7,0,0,0,0,0,,,,,,,,,,,,,,,,,,,,,462.9179991999408,0.00031459995079785585,0.097635000012815,468.91778209991753,6.030992400017567,469.1011916999705,469.1011916999705,0.07166100002359599,0.18106840003747493,6.014266000012867,475.184392199968,475.184392199968,475.184392199968,0.0675875999731943,0.1642862999578938,480.8845461999299,481.1179789999733,6.031185799976811,6.131028100033291,487.11774899996817,12.030954699963331,487.1843100999249,487.1843100999249,487.21751909994055,487.21751909994055,0.014068500022403896,0.09729379997588694,up,1.6417343000648543,488.91773649991956,5.070003680884838e-05,0.09780510002747178,494.9344180999324,494.9344180999324,494.9344180999324,0.009359100018627942,0.11454229999799281,2.0,3.4061757000163198,,,,,,,475.10129269992467,475.10129269992467,,,,1660,Moral,2025-03-04_17h31.15.868,MoralCondition_v2,2022.2.5,29.962394198714776,
7,0,7,0,1,0,1,0,,,,,,,,,,,,,,,,,,,,,,,,,,,,,,,,,,,,,,,,,,,,,,,,,,,,,,498.36785359994974,498.36785359994974,0.007397100096568465,0.09901100001297891,4.0,3.625771899940446,,,,,,,,,,,,1660,Moral,2025-03-04_17h31.15.868,MoralCondition_v2,2022.2.5,29.962394198714776,
7,0,7,0,2,0,2,0,,,,,,,,,,,,,,,,,,,,,,,,,,,,,,,,,,,,,,,,,,,,,,,,,,,,,,502.03479810000863,502.03479810000863,0.007543300045654178,0.09772610000800341,5.0,4.35774190002121,,,,,,,,,,,,1660,Moral,2025-03-04_17h31.15.868,MoralCondition_v2,2022.2.5,29.962394198714776,
7,0,7,0,3,0,3,0,,,,,,,,,,,,,,,,,,,,,,,,,,,,,,,,,,,,,,,,,,,,,,,,,,,,,,506.4345163999824,506.4345163999824,0.007194099947810173,0.09936490003019571,3.0,3.892971800058149,,,,,,,,,,,,1660,Moral,2025-03-04_17h31.15.868,MoralCondition_v2,2022.2.5,29.962394198714776,
7,0,7,0,4,0,4,0,,,,,,,,,,,,,,,,,,,,,,,,,,,,,,,,,,,,,,,,,,,,,,,,,,,,,,510.367814199999,510.367814199999,0.00910920009482652,0.09816729999147356,1.0,3.8231109000043944,,,,,,,,,,,,1660,Moral,2025-03-04_17h31.15.868,MoralCondition_v2,2022.2.5,29.962394198714776,
7,0,7,0,5,0,5,0,,,,,,,,,,,,,,,,,,,,,,,,,,,,,,,,,,,,,,,,,,,,,,,,,,,,,,514.2513294999953,514.2513294999953,0.007504699984565377,0.11381560005247593,2.0,2.1404985999688506,,,,,,,,,,,,1660,Moral,2025-03-04_17h31.15.868,MoralCondition_v2,2022.2.5,29.962394198714776,
7,0,7,0,6,0,6,0,,,,,,,,,,,,,,,,,,,,,,,,,,,,,,,,,,,,,,,,,,,,,,,,,,,,,,516.4177223999286,516.4177223999286,0.006679399986751378,0.09916929993778467,5.0,3.6271243999945,,,,,,,,,,,,1660,Moral,2025-03-04_17h31.15.868,MoralCondition_v2,2022.2.5,29.962394198714776,
7,0,7,0,,,,,,,,,,,,,,,,,,,,,,,,,,,,,,,,,,,,,,,,,,,,,,,,,,,,,,,,,,,,,,,,520.084337899927,520.084337899927,0.000714199966751039,0.09885359997861087,2.0,8.26623099995777,,,,,,1660,Moral,2025-03-04_17h31.15.868,MoralCondition_v2,2022.2.5,29.962394198714776,
8,0,8,0,0,0,0,0,,,,,,,,,,,,,,,,,,,,,528.3845419000136,0.00013509998098015785,0.09921260003466159,534.4009855999611,6.01601819996722,534.5675228999462,534.5675228999462,0.07116880000103265,0.18262690003030002,6.016264199977741,540.6676723000128,540.6676723000128,540.6676723000128,0.07179139996878803,0.18283469998277724,546.3676705999533,546.5676713999128,6.01604820007924,6.11603150004521,552.5676717999158,12.016041100025177,552.6676377999829,552.6676377999829,552.7010682999389,552.7010682999389,0.0161852000746876,0.11598590004723519,up,2.0936747000087053,554.8509216000093,5.159992724657059e-05,0.09779099992010742,560.867629299988,560.867629299988,560.867629299988,0.008744799997657537,0.1146491999970749,2.0,3.106664700084366,,,,,,,540.5676627999637,540.5676627999637,,,,1660,Moral,2025-03-04_17h31.15.868,MoralCondition_v2,2022.2.5,29.962394198714776,
8,0,8,0,1,0,1,0,,,,,,,,,,,,,,,,,,,,,,,,,,,,,,,,,,,,,,,,,,,,,,,,,,,,,,564.0008411000017,564.0008411000017,0.006674700067378581,0.09932720009237528,3.0,2.7937650000676513,,,,,,,,,,,,1660,Moral,2025-03-04_17h31.15.868,MoralCondition_v2,2022.2.5,29.962394198714776,
8,0,8,0,2,0,2,0,,,,,,,,,,,,,,,,,,,,,,,,,,,,,,,,,,,,,,,,,,,,,,,,,,,,,,566.8341835999163,566.8341835999163,0.00765539996791631,0.09796400007326156,4.0,2.55775540007744,,,,,,,,,,,,1660,Moral,2025-03-04_17h31.15.868,MoralCondition_v2,2022.2.5,29.962394198714776,
8,0,8,0,3,0,3,0,,,,,,,,,,,,,,,,,,,,,,,,,,,,,,,,,,,,,,,,,,,,,,,,,,,,,,569.4342891999986,569.4342891999986,0.006643999950028956,0.0993390999501571,5.0,2.1942505000624806,,,,,,,,,,,,1660,Moral,2025-03-04_17h31.15.868,MoralCondition_v2,2022.2.5,29.962394198714776,
8,0,8,0,4,0,4,0,,,,,,,,,,,,,,,,,,,,,,,,,,,,,,,,,,,,,,,,,,,,,,,,,,,,,,571.6675923999865,571.6675923999865,0.007258000085130334,0.09879199997521937,2.0,2.3258426999673247,,,,,,,,,,,,1660,Moral,2025-03-04_17h31.15.868,MoralCondition_v2,2022.2.5,29.962394198714776,
8,0,8,0,5,0,5,0,,,,,,,,,,,,,,,,,,,,,,,,,,,,,,,,,,,,,,,,,,,,,,,,,,,,,,574.0341169999447,574.0341169999447,0.007667700061574578,0.09771140001248568,3.0,3.657951600034721,,,,,,,,,,,,1660,Moral,2025-03-04_17h31.15.868,MoralCondition_v2,2022.2.5,29.962394198714776,
8,0,8,0,6,0,6,0,,,,,,,,,,,,,,,,,,,,,,,,,,,,,,,,,,,,,,,,,,,,,,,,,,,,,,577.7343105999753,577.7343105999753,0.006726899999193847,0.09927959996275604,2.0,1.926890500006266,,,,,,,,,,,,1660,Moral,2025-03-04_17h31.15.868,MoralCondition_v2,2022.2.5,29.962394198714776,
8,0,8,0,,,,,,,,,,,,,,,,,,,,,,,,,,,,,,,,,,,,,,,,,,,,,,,,,,,,,,,,,,,,,,,,579.7010911999969,579.7010911999969,0.0008586000185459852,0.09862340008839965,4.0,4.865652300068177,,,,,,1660,Moral,2025-03-04_17h31.15.868,MoralCondition_v2,2022.2.5,29.962394198714776,
9,0,9,0,0,0,0,0,,,,,,,,,,,,,,,,,,,,,584.6009330999805,0.00038460001815110445,0.09734979993663728,590.6175783999497,6.014119799947366,590.784187000012,590.784187000012,0.06869600003119558,0.1807660999475047,6.014024300035089,596.8842295999639,596.8842295999639,596.8842295999639,0.07255799998529255,0.1806390000274405,602.584206999978,602.7841750999214,6.014012200059369,6.114077000063844,608.7842285999795,12.014063099981286,608.8841669999529,608.8841669999529,608.9175463999854,608.9175463999854,0.014159100013785064,0.11394549999386072,up,1.093777900096029,610.0508379999083,4.3199979700148106e-05,0.09772110008634627,,616.0673901999835,616.0673901999835,0.02747319999616593,0.11475670000072569,6.0,4.721577199990861,,,,,,,596.7842313000001,596.7842313000001,,,,1660,Moral,2025-03-04_17h31.15.868,MoralCondition_v2,2022.2.5,29.962394198714776,
9,0,9,0,1,0,1,0,,,,,,,,,,,,,,,,,,,,,,,,,,,,,,,,,,,,,,,,,,,,,,,,,,,,,,620.8510821999516,620.8510821999516,0.008130200090818107,0.11474400002043694,5.0,2.174197999993339,,,,,,,,,,,,1660,Moral,2025-03-04_17h31.15.868,MoralCondition_v2,2022.2.5,29.962394198714776,
9,0,9,0,2,0,2,0,,,,,,,,,,,,,,,,,,,,,,,,,,,,,,,,,,,,,,,,,,,,,,,,,,,,,,623.0509751999052,623.0509751999052,0.007327300030738115,0.09814679995179176,3.0,1.5918036000803113,,,,,,,,,,,,1660,Moral,2025-03-04_17h31.15.868,MoralCondition_v2,2022.2.5,29.962394198714776,
9,0,9,0,3,0,3,0,,,,,,,,,,,,,,,,,,,,,,,,,,,,,,,,,,,,,,,,,,,,,,,,,,,,,,624.6839720999124,624.6839720999124,0.006750000058673322,0.09905380010604858,3.0,2.960024800035171,,,,,,,,,,,,1660,Moral,2025-03-04_17h31.15.868,MoralCondition_v2,2022.2.5,29.962394198714776,
9,0,9,0,4,0,4,0,,,,,,,,,,,,,,,,,,,,,,,,,,,,,,,,,,,,,,,,,,,,,,,,,,,,,,627.6842581999954,627.6842581999954,0.006870100041851401,0.09912160004023463,2.0,2.2599305000621825,,,,,,,,,,,,1660,Moral,2025-03-04_17h31.15.868,MoralCondition_v2,2022.2.5,29.962394198714776,
9,0,9,0,5,0,5,0,,,,,,,,,,,,,,,,,,,,,,,,,,,,,,,,,,,,,,,,,,,,,,,,,,,,,,629.9841315000085,629.9841315000085,0.007727099931798875,0.09784399997442961,3.0,3.257573200040497,,,,,,,,,,,,1660,Moral,2025-03-04_17h31.15.868,MoralCondition_v2,2022.2.5,29.962394198714776,
9,0,9,0,6,0,6,0,,,,,,,,,,,,,,,,,,,,,,,,,,,,,,,,,,,,,,,,,,,,,,,,,,,,,,633.3010879999492,633.3010879999492,0.00798590003978461,0.11406679998617619,4.0,2.040332800010219,,,,,,,,,,,,1660,Moral,2025-03-04_17h31.15.868,MoralCondition_v2,2022.2.5,29.962394198714776,
9,0,9,0,,,,,,,,,,,,,,,,,,,,,,,,,,,,,,,,,,,,,,,,,,,,,,,,,,,,,,,,,,,,,,,,635.3676665999228,635.3676665999228,0.0014364001108333468,0.09749960002955049,3.0,5.497232900001109,,,,,,1660,Moral,2025-03-04_17h31.15.868,MoralCondition_v2,2022.2.5,29.962394198714776,
10,0,10,0,0,0,0,0,,,,,,,,,,,,,,,,,,,,,640.9010267999256,0.00031429994851350784,0.09788130002561957,646.9174476999324,6.014552199980244,647.0841610999778,647.0841610999778,0.07407770003192127,0.18138720002025366,6.0145431000273675,653.1840912000043,653.1840912000043,653.1840912000043,0.07273849996272475,0.18143650004640222,658.8840567999287,659.0840575000038,6.01463240000885,6.114497100003064,665.0840313999215,12.014551699976437,665.1840178999119,665.1840178999119,665.2173824999481,665.2173824999481,0.014689300092868507,0.11451410001609474,up,0.9372793999500573,666.2173985999543,7.150007877498865e-05,0.09797920007258654,672.2340553000104,672.2340553000104,672.2340553000104,0.009367600083351135,0.11465330002829432,6.0,2.8729025999782607,,,,,,,653.0840462999186,653.0840462999186,,,,1660,Moral,2025-03-04_17h31.15.868,MoralCondition_v2,2022.2.5,29.962394198714776,
10,0,10,0,1,0,1,0,,,,,,,,,,,,,,,,,,,,,,,,,,,,,,,,,,,,,,,,,,,,,,,,,,,,,,675.1340470999712,675.1340470999712,0.006819300004281104,0.09905229997821152,5.0,2.2267164000077173,,,,,,,,,,,,1660,Moral,2025-03-04_17h31.15.868,MoralCondition_v2,2022.2.5,29.962394198714776,
10,0,10,0,2,0,2,0,,,,,,,,,,,,,,,,,,,,,,,,,,,,,,,,,,,,,,,,,,,,,,,,,,,,,,677.4011471999111,677.4011471999111,0.006999899982474744,0.09925609990023077,4.0,1.9932126000057906,,,,,,,,,,,,1660,Moral,2025-03-04_17h31.15.868,MoralCondition_v2,2022.2.5,29.962394198714776,
10,0,10,0,3,0,3,0,,,,,,,,,,,,,,,,,,,,,,,,,,,,,,,,,,,,,,,,,,,,,,,,,,,,,,679.4338602999924,679.4338602999924,0.006781300064176321,0.0990313000511378,3.0,2.226519199903123,,,,,,,,,,,,1660,Moral,2025-03-04_17h31.15.868,MoralCondition_v2,2022.2.5,29.962394198714776,
10,0,10,0,4,0,4,0,,,,,,,,,,,,,,,,,,,,,,,,,,,,,,,,,,,,,,,,,,,,,,,,,,,,,,681.7006334000034,681.7006334000034,0.007465300033800304,0.09786810004152358,5.0,2.091235499945469,,,,,,,,,,,,1660,Moral,2025-03-04_17h31.15.868,MoralCondition_v2,2022.2.5,29.962394198714776,
10,0,10,0,5,0,5,0,,,,,,,,,,,,,,,,,,,,,,,,,,,,,,,,,,,,,,,,,,,,,,,,,,,,,,683.8507191999815,683.8507191999815,0.009703299961984158,0.11463670001830906,3.0,2.0390192000195384,,,,,,,,,,,,1660,Moral,2025-03-04_17h31.15.868,MoralCondition_v2,2022.2.5,29.962394198714776,
10,0,10,0,6,0,6,0,,,,,,,,,,,,,,,,,,,,,,,,,,,,,,,,,,,,,,,,,,,,,,,,,,,,,,685.917219899944,685.917219899944,0.007822500076144934,0.09802749997470528,2.0,2.158386900089681,,,,,,,,,,,,1660,Moral,2025-03-04_17h31.15.868,MoralCondition_v2,2022.2.5,29.962394198714776,
10,0,10,0,,,,,,,,,,,,,,,,,,,,,,,,,,,,,,,,,,,,,,,,,,,,,,,,,,,,,,,,,,,,,,,,688.1173474999378,688.1173474999378,0.0012892999220639467,0.09873839991632849,2.0,5.6985257000196725,,,,,,1660,Moral,2025-03-04_17h31.15.868,MoralCondition_v2,2022.2.5,29.962394198714776,
11,0,11,0,0,0,0,0,,,,,,,,,,,,,,,,,,,,,693.8510756999021,0.00037150003481656313,0.09769940003752708,699.8506265999749,6.031071300036274,700.0340506999055,700.0340506999055,0.06891330005601048,0.18130510009359568,6.014317100052722,706.1341102999868,706.1341102999868,706.1341102999868,0.07091890007723123,0.18109810003079474,711.8341997999232,712.0339215999702,6.014366100076586,6.114366800058633,718.0341271999059,12.014573600026779,718.1338699999033,718.1338699999033,718.167251399951,718.167251399951,0.014449600130319595,0.1143914001295343,up,1.6194488999899477,719.8507052999921,4.269997589290142e-05,0.0976026999996975,725.8507848000154,725.8507848000154,725.8507848000154,0.006810499937273562,0.09764569997787476,3.0,4.791693799896166,,,,,,,706.0339120000135,706.0339120000135,,,,1660,Moral,2025-03-04_17h31.15.868,MoralCondition_v2,2022.2.5,29.962394198714776,
11,0,11,0,1,0,1,0,,,,,,,,,,,,,,,,,,,,,,,,,,,,,,,,,,,,,,,,,,,,,,,,,,,,,,730.7007788999472,730.7007788999472,0.008058900013566017,0.11397059995215386,3.0,1.4737165999831632,,,,,,,,,,,,1660,Moral,2025-03-04_17h31.15.868,MoralCondition_v2,2022.2.5,29.962394198714776,
11,0,11,0,2,0,2,0,,,,,,,,,,,,,,,,,,,,,,,,,,,,,,,,,,,,,,,,,,,,,,,,,,,,,,732.2174590999493,732.2174590999493,0.008057200000621378,0.11429330008104444,4.0,3.0741377000231296,,,,,,,,,,,,1660,Moral,2025-03-04_17h31.15.868,MoralCondition_v2,2022.2.5,29.962394198714776,
11,0,11,0,3,0,3,0,,,,,,,,,,,,,,,,,,,,,,,,,,,,,,,,,,,,,,,,,,,,,,,,,,,,,,735.3341475999914,735.3341475999914,0.007890500011853874,0.11427629995159805,2.0,1.7407112000510097,,,,,,,,,,,,1660,Moral,2025-03-04_17h31.15.868,MoralCondition_v2,2022.2.5,29.962394198714776,
11,0,11,0,4,0,4,0,,,,,,,,,,,,,,,,,,,,,,,,,,,,,,,,,,,,,,,,,,,,,,,,,,,,,,737.1004891999764,737.1004891999764,0.006610600044950843,0.09936100000049919,6.0,4.860342900035903,,,,,,,,,,,,1660,Moral,2025-03-04_17h31.15.868,MoralCondition_v2,2022.2.5,29.962394198714776,
11,0,11,0,5,0,5,0,,,,,,,,,,,,,,,,,,,,,,,,,,,,,,,,,,,,,,,,,,,,,,,,,,,,,,742.0003842000151,742.0003842000151,0.0073717000195756555,0.09812370000872761,2.0,1.9916764999506995,,,,,,,,,,,,1660,Moral,2025-03-04_17h31.15.868,MoralCondition_v2,2022.2.5,29.962394198714776,
11,0,11,0,6,0,6,0,,,,,,,,,,,,,,,,,,,,,,,,,,,,,,,,,,,,,,,,,,,,,,,,,,,,,,744.0503925000085,744.0503925000085,0.010177100077271461,0.11439940007403493,5.0,1.8717932000290602,,,,,,,,,,,,1660,Moral,2025-03-04_17h31.15.868,MoralCondition_v2,2022.2.5,29.962394198714776,
11,0,11,0,,,,,,,,,,,,,,,,,,,,,,,,,,,,,,,,,,,,,,,,,,,,,,,,,,,,,,,,,,,,,,,,745.9507812999655,745.9507812999655,0.0007179999956861138,0.09899939992465079,2.0,3.266030199942179,,,,,,1660,Moral,2025-03-04_17h31.15.868,MoralCondition_v2,2022.2.5,29.962394198714776,
12,0,12,0,0,0,0,0,,,,,,,,,,,,,,,,,,,,,749.2506145999068,0.00028250005561858416,0.09793980000540614,755.2671595999273,6.014553899993189,755.433777499944,755.433777499944,0.07047310005873442,0.1814940000185743,6.014525400009006,761.5338372999104,761.5338372999104,761.5338372999104,0.06866010010708123,0.1814804000314325,767.2339563999558,767.4337623999454,6.014611100079492,6.114508900092915,773.4339226000011,12.014757000026293,773.5337147999089,773.5337147999089,773.5670715000015,773.5670715000015,0.014724800130352378,0.11451200011651963,up,1.5963440999621525,775.20039179991,4.3199979700148106e-05,0.09795389999635518,781.2008301999886,781.2008301999886,781.2008301999886,0.008893200079910457,0.09798770002089441,3.0,2.890093099907972,,,,,,,761.4338894999819,761.4338894999819,,,,1660,Moral,2025-03-04_17h31.15.868,MoralCondition_v2,2022.2.5,29.962394198714776,
12,0,12,0,1,0,1,0,,,,,,,,,,,,,,,,,,,,,,,,,,,,,,,,,,,,,,,,,,,,,,,,,,,,,,784.1506488999585,784.1506488999585,0.007880500052124262,0.11420100007671863,3.0,3.0403624000027776,,,,,,,,,,,,1660,Moral,2025-03-04_17h31.15.868,MoralCondition_v2,2022.2.5,29.962394198714776,
12,0,12,0,2,0,2,0,,,,,,,,,,,,,,,,,,,,,,,,,,,,,,,,,,,,,,,,,,,,,,,,,,,,,,787.2170557999052,787.2170557999052,0.006747500039637089,0.09823820006567985,5.0,2.192622200003825,,,,,,,,,,,,1660,Moral,2025-03-04_17h31.15.868,MoralCondition_v2,2022.2.5,29.962394198714776,
12,0,12,0,3,0,3,0,,,,,,,,,,,,,,,,,,,,,,,,,,,,,,,,,,,,,,,,,,,,,,,,,,,,,,789.4501899000024,789.4501899000024,0.006636600010097027,0.09900370007380843,2.0,2.2268650999758393,,,,,,,,,,,,1660,Moral,2025-03-04_17h31.15.868,MoralCondition_v2,2022.2.5,29.962394198714776,
12,0,12,0,4,0,4,0,,,,,,,,,,,,,,,,,,,,,,,,,,,,,,,,,,,,,,,,,,,,,,,,,,,,,,791.7171072999481,791.7171072999481,0.007202200009487569,0.097288400051184,3.0,1.6579233000520617,,,,,,,,,,,,1660,Moral,2025-03-04_17h31.15.868,MoralCondition_v2,2022.2.5,29.962394198714776,
12,0,12,0,5,0,5,0,,,,,,,,,,,,,,,,,,,,,,,,,,,,,,,,,,,,,,,,,,,,,,,,,,,,,,793.4168707999634,793.4168707999634,0.007495200028643012,0.09788999997545034,2.0,3.191171200014651,,,,,,,,,,,,1660,Moral,2025-03-04_17h31.15.868,MoralCondition_v2,2022.2.5,29.962394198714776,
12,0,12,0,6,0,6,0,,,,,,,,,,,,,,,,,,,,,,,,,,,,,,,,,,,,,,,,,,,,,,,,,,,,,,796.6502472999273,796.6502472999273,0.006703699938952923,0.09965480002574623,3.0,1.827219600090757,,,,,,,,,,,,1660,Moral,2025-03-04_17h31.15.868,MoralCondition_v2,2022.2.5,29.962394198714776,
12,0,12,0,,,,,,,,,,,,,,,,,,,,,,,,,,,,,,,,,,,,,,,,,,,,,,,,,,,,,,,,,,,,,,,,798.5170469000004,798.5170469000004,0.0012147999368607998,0.09914339997339994,4.0,2.165792000014335,,,,,,1660,Moral,2025-03-04_17h31.15.868,MoralCondition_v2,2022.2.5,29.962394198714776,
13,0,13,0,0,0,0,0,,,,,,,,,,,,,,,,,,,,,800.7171745999949,0.00028439995367079973,0.09833810001146048,806.7336352999555,6.014766299980693,806.9004059999716,806.9004059999716,0.08084429998416454,0.18156609998550266,6.014721899991855,813.0002931999043,813.0002931999043,813.0002931999043,0.06746280007064342,0.18146500003058463,818.7002592999488,818.9002067999681,6.014670500066131,6.114736900082789,824.9002116000047,12.014727600035258,825.000200200011,825.000200200011,825.0335509999422,825.0335509999422,0.014864300028420985,0.11468630004674196,up,1.489393699914217,826.5668629999273,4.0899962186813354e-05,0.09813599998597056,832.5668400999857,832.5668400999857,832.5668400999857,0.008959500002674758,0.09792299999389797,5.0,3.656592999934219,,,,,,,812.9004594999133,812.9004594999133,,,,1660,Moral,2025-03-04_17h31.15.868,MoralCondition_v2,2022.2.5,29.962394198714776,
13,0,13,0,1,0,1,0,,,,,,,,,,,,,,,,,,,,,,,,,,,,,,,,,,,,,,,,,,,,,,,,,,,,,,836.267434099922,836.267434099922,0.007621700060553849,0.0971955000422895,2.0,1.7239411999471486,,,,,,,,,,,,1660,Moral,2025-03-04_17h31.15.868,MoralCondition_v2,2022.2.5,29.962394198714776,
13,0,13,0,2,0,2,0,,,,,,,,,,,,,,,,,,,,,,,,,,,,,,,,,,,,,,,,,,,,,,,,,,,,,,838.0334849999053,838.0334849999053,0.007603699923492968,0.09823260002303869,3.0,4.624744899920188,,,,,,,,,,,,1660,Moral,2025-03-04_17h31.15.868,MoralCondition_v2,2022.2.5,29.962394198714776,
13,0,13,0,3,0,3,0,,,,,,,,,,,,,,,,,,,,,,,,,,,,,,,,,,,,,,,,,,,,,,,,,,,,,,842.7000847000163,842.7000847000163,0.005835199961438775,0.09878460003528744,3.0,3.527061100001447,,,,,,,,,,,,1660,Moral,2025-03-04_17h31.15.868,MoralCondition_v2,2022.2.5,29.962394198714776,
13,0,13,0,4,0,4,0,,,,,,,,,,,,,,,,,,,,,,,,,,,,,,,,,,,,,,,,,,,,,,,,,,,,,,846.2667657999555,846.2667657999555,0.00764779991004616,0.09795359999407083,5.0,2.2578735999995843,,,,,,,,,,,,1660,Moral,2025-03-04_17h31.15.868,MoralCondition_v2,2022.2.5,29.962394198714776,
13,0,13,0,5,0,5,0,,,,,,,,,,,,,,,,,,,,,,,,,,,,,,,,,,,,,,,,,,,,,,,,,,,,,,848.5667973000091,848.5667973000091,0.0074010000098496675,0.09802540007513016,3.0,2.025209999992512,,,,,,,,,,,,1660,Moral,2025-03-04_17h31.15.868,MoralCondition_v2,2022.2.5,29.962394198714776,
13,0,13,0,6,0,6,0,,,,,,,,,,,,,,,,,,,,,,,,,,,,,,,,,,,,,,,,,,,,,,,,,,,,,,850.6333361999132,850.6333361999132,0.007728999946266413,0.09786969993729144,5.0,1.8578257000772282,,,,,,,,,,,,1660,Moral,2025-03-04_17h31.15.868,MoralCondition_v2,2022.2.5,29.962394198714776,
13,0,13,0,,,,,,,,,,,,,,,,,,,,,,,,,,,,,,,,,,,,,,,,,,,,,,,,,,,,,,,,,,,,,,,,852.5336453999626,852.5336453999626,0.0014905999414622784,0.09780769993085414,3.0,8.964141699951142,,,,,,1660,Moral,2025-03-04_17h31.15.868,MoralCondition_v2,2022.2.5,29.962394198714776,
14,0,14,0,0,0,0,0,,,,,,,,,,,,,,,,,,,,,861.5337206999538,0.000130099942907691,0.09924569993745536,867.533485999913,5.999281299998984,867.699950399925,867.699950399925,0.05456620000768453,0.1659537999657914,5.9991423999890685,873.8001740999753,873.8001740999753,873.8001740999753,0.05455230001825839,0.16595020005479455,879.5001549000153,879.7002394999145,5.999360000016168,6.099127899971791,885.7000592999393,11.9991933000274,885.8000453999266,885.8000453999266,885.8335131999338,885.8335131999338,-4.399917088449001e-06,0.09907150000799447,up,1.3774473000084981,887.2501515999902,4.360009916126728e-05,0.09784370008856058,893.266684299917,893.266684299917,893.266684299917,0.009103300049901009,0.11461750010494143,4.0,4.506386899971403,,,,,,,873.700075199944,873.700075199944,6.099195300019346,12.099158099968918,6.099144599982537,1660,Moral,2025-03-04_17h31.15.868,MoralCondition_v2,2022.2.5,29.962394198714776,
14,0,14,0,1,0,1,0,,,,,,,,,,,,,,,,,,,,,,,,,,,,,,,,,,,,,,,,,,,,,,,,,,,,,,897.8168915999122,897.8168915999122,0.007652300060726702,0.11418620008043945,2.0,2.740857299999334,,,,,,,,,,,,1660,Moral,2025-03-04_17h31.15.868,MoralCondition_v2,2022.2.5,29.962394198714776,
14,0,14,0,2,0,2,0,,,,,,,,,,,,,,,,,,,,,,,,,,,,,,,,,,,,,,,,,,,,,,,,,,,,,,900.6001894999063,900.6001894999063,0.008847499964758754,0.11394459998700768,5.0,2.1395795999560505,,,,,,,,,,,,1660,Moral,2025-03-04_17h31.15.868,MoralCondition_v2,2022.2.5,29.962394198714776,
14,0,14,0,3,0,3,0,,,,,,,,,,,,,,,,,,,,,,,,,,,,,,,,,,,,,,,,,,,,,,,,,,,,,,902.7835395999718,902.7835395999718,0.008988299989141524,0.11552440002560616,6.0,2.6073781999293715,,,,,,,,,,,,1660,Moral,2025-03-04_17h31.15.868,MoralCondition_v2,2022.2.5,29.962394198714776,
14,0,14,0,4,0,4,0,,,,,,,,,,,,,,,,,,,,,,,,,,,,,,,,,,,,,,,,,,,,,,,,,,,,,,905.4165089000016,905.4165089000016,0.006788600003346801,0.0990993999876082,5.0,1.2933178000384942,,,,,,,,,,,,1660,Moral,2025-03-04_17h31.15.868,MoralCondition_v2,2022.2.5,29.962394198714776,
14,0,14,0,5,0,5,0,,,,,,,,,,,,,,,,,,,,,,,,,,,,,,,,,,,,,,,,,,,,,,,,,,,,,,906.7500330999028,906.7500330999028,0.006889899959787726,0.09956790006253868,2.0,1.7936074000317603,,,,,,,,,,,,1660,Moral,2025-03-04_17h31.15.868,MoralCondition_v2,2022.2.5,29.962394198714776,
14,0,14,0,6,0,6,0,,,,,,,,,,,,,,,,,,,,,,,,,,,,,,,,,,,,,,,,,,,,,,,,,,,,,,908.5835383000085,908.5835383000085,0.007355599896982312,0.09827259997837245,3.0,1.725159400026314,,,,,,,,,,,,1660,Moral,2025-03-04_17h31.15.868,MoralCondition_v2,2022.2.5,29.962394198714776,
14,0,14,0,,,,,,,,,,,,,,,,,,,,,,,,,,,,,,,,,,,,,,,,,,,,,,,,,,,,,,,,,,,,,,,,910.3501203999622,910.3501203999622,0.0015545999631285667,0.09793990000616759,2.0,3.4640897000208497,,,,,,1660,Moral,2025-03-04_17h31.15.868,MoralCondition_v2,2022.2.5,29.962394198714776,
15,0,15,0,0,0,0,0,,,,,,,,,,,,,,,,,,,,,913.8501384999836,0.00029239989817142487,0.09809949994087219,919.8500375999138,6.031291299965233,920.0499529999215,920.0499529999215,0.08930400002282113,0.1980162999825552,6.031129900016822,926.13333709992,926.13333709992,926.13333709992,0.06861269997898489,0.18102779996115714,931.833215599996,932.033159499988,6.014383099973202,6.114423600025475,938.0331869999645,12.01439709996339,938.1164477999555,938.1164477999555,938.1666791000171,938.1666791000171,0.014426799956709146,0.11431340000126511,up,1.4280730000464246,939.6498597000027,4.1899969801306725e-05,0.0971644000383094,945.6497661999892,945.6497661999892,945.6497661999892,0.009950999985449016,0.09723159996792674,2.0,2.721778400009498,,,,,,,926.0331270999741,926.0331270999741,,,,1660,Moral,2025-03-04_17h31.15.868,MoralCondition_v2,2022.2.5,29.962394198714776,
15,0,15,0,1,0,1,0,,,,,,,,,,,,,,,,,,,,,,,,,,,,,,,,,,,,,,,,,,,,,,,,,,,,,,948.433190700016,948.433190700016,0.008165300008840859,0.11443650000728667,5.0,2.4404509000014514,,,,,,,,,,,,1660,Moral,2025-03-04_17h31.15.868,MoralCondition_v2,2022.2.5,29.962394198714776,
15,0,15,0,2,0,2,0,,,,,,,,,,,,,,,,,,,,,,,,,,,,,,,,,,,,,,,,,,,,,,,,,,,,,,950.8998606000096,950.8998606000096,0.007394699961878359,0.09777690004557371,5.0,2.6589588000206277,,,,,,,,,,,,1660,Moral,2025-03-04_17h31.15.868,MoralCondition_v2,2022.2.5,29.962394198714776,
15,0,15,0,3,0,3,0,,,,,,,,,,,,,,,,,,,,,,,,,,,,,,,,,,,,,,,,,,,,,,,,,,,,,,953.6167013999075,953.6167013999075,0.00837549997959286,0.1141090999590233,3.0,2.0068410000531003,,,,,,,,,,,,1660,Moral,2025-03-04_17h31.15.868,MoralCondition_v2,2022.2.5,29.962394198714776,
15,0,15,0,4,0,4,0,,,,,,,,,,,,,,,,,,,,,,,,,,,,,,,,,,,,,,,,,,,,,,,,,,,,,,955.6665668999776,955.6665668999776,0.008457400021143258,0.11474570003338158,3.0,1.3738820999860764,,,,,,,,,,,,1660,Moral,2025-03-04_17h31.15.868,MoralCondition_v2,2022.2.5,29.962394198714776,
15,0,15,0,5,0,5,0,,,,,,,,,,,,,,,,,,,,,,,,,,,,,,,,,,,,,,,,,,,,,,,,,,,,,,957.0663637999678,957.0663637999678,0.007347900071181357,0.09918880008626729,3.0,1.7262377999722958,,,,,,,,,,,,1660,Moral,2025-03-04_17h31.15.868,MoralCondition_v2,2022.2.5,29.962394198714776,
15,0,15,0,6,0,6,0,,,,,,,,,,,,,,,,,,,,,,,,,,,,,,,,,,,,,,,,,,,,,,,,,,,,,,958.833126799902,958.833126799902,0.00723170000128448,0.09781289997044951,5.0,2.2582843999844044,,,,,,,,,,,,1660,Moral,2025-03-04_17h31.15.868,MoralCondition_v2,2022.2.5,29.962394198714776,
15,0,15,0,,,,,,,,,,,,,,,,,,,,,,,,,,,,,,,,,,,,,,,,,,,,,,,,,,,,,,,,,,,,,,,,961.1330820999574,961.1330820999574,0.0006997000891715288,0.09935420006513596,2.0,3.3665277999825776,,,,,,1660,Moral,2025-03-04_17h31.15.868,MoralCondition_v2,2022.2.5,29.962394198714776,
16,0,16,0,0,0,0,0,,,,,,,,,,,,,,,,,,,,,964.5332587999292,0.00013409997336566448,0.09893420001026243,970.5497688999167,6.015662899939343,970.7166081999894,970.7166081999894,0.07144650002010167,0.18261729995720088,6.01558320003096,976.8165312999627,976.8165312999627,976.8165312999627,0.07010809995699674,0.18231229996308684,982.5164755999576,982.71656109998,6.015890900045633,6.115578999975696,988.7165000999812,12.015757499961182,988.8163740999298,988.8163740999298,988.8496807999909,988.8496807999909,0.01582189998589456,0.11558860004879534,up,0.9851623999420553,989.8830636999337,3.029999788850546e-05,0.09841470001265407,995.8831042000093,995.8831042000093,995.8831042000093,0.009577900054864585,0.09854919998906553,3.0,3.1230040999362245,,,,,,,976.7165267999517,976.7165267999517,,,,1660,Moral,2025-03-04_17h31.15.868,MoralCondition_v2,2022.2.5,29.962394198714776,
16,0,16,0,1,0,1,0,,,,,,,,,,,,,,,,,,,,,,,,,,,,,,,,,,,,,,,,,,,,,,,,,,,,,,999.0664225999499,999.0664225999499,0.008150100009515882,0.1145445000147447,5.0,2.4071085000177845,,,,,,,,,,,,1660,Moral,2025-03-04_17h31.15.868,MoralCondition_v2,2022.2.5,29.962394198714776,
16,0,16,0,2,0,2,0,,,,,,,,,,,,,,,,,,,,,,,,,,,,,,,,,,,,,,,,,,,,,,,,,,,,,,1001.5000313000055,1001.5000313000055,0.0063168000197038054,0.09877339995000511,5.0,2.1269359999569133,,,,,,,,,,,,1660,Moral,2025-03-04_17h31.15.868,MoralCondition_v2,2022.2.5,29.962394198714776,
16,0,16,0,3,0,3,0,,,,,,,,,,,,,,,,,,,,,,,,,,,,,,,,,,,,,,,,,,,,,,,,,,,,,,1003.6663376999786,1003.6663376999786,0.007217800011858344,0.09739549993537366,3.0,2.224624599912204,,,,,,,,,,,,1660,Moral,2025-03-04_17h31.15.868,MoralCondition_v2,2022.2.5,29.962394198714776,
16,0,16,0,4,0,4,0,,,,,,,,,,,,,,,,,,,,,,,,,,,,,,,,,,,,,,,,,,,,,,,,,,,,,,1005.9327663999284,1005.9327663999284,0.010234400047920644,0.09779520006850362,5.0,3.6550601000199094,,,,,,,,,,,,1660,Moral,2025-03-04_17h31.15.868,MoralCondition_v2,2022.2.5,29.962394198714776,
16,0,16,0,5,0,5,0,,,,,,,,,,,,,,,,,,,,,,,,,,,,,,,,,,,,,,,,,,,,,,,,,,,,,,1009.6327932999702,1009.6327932999702,0.007545100059360266,0.09835099999327213,2.0,2.458304699975997,,,,,,,,,,,,1660,Moral,2025-03-04_17h31.15.868,MoralCondition_v2,2022.2.5,29.962394198714776,
16,0,16,0,6,0,6,0,,,,,,,,,,,,,,,,,,,,,,,,,,,,,,,,,,,,,,,,,,,,,,,,,,,,,,1012.1329493999947,1012.1329493999947,0.006723899976350367,0.09899379999842495,3.0,1.6931621999247,,,,,,,,,,,,1660,Moral,2025-03-04_17h31.15.868,MoralCondition_v2,2022.2.5,29.962394198714776,
16,0,16,0,,,,,,,,,,,,,,,,,,,,,,,,,,,,,,,,,,,,,,,,,,,,,,,,,,,,,,,,,,,,,,,,1013.8661245999392,1013.8661245999392,0.001207799999974668,0.09789139998611063,2.0,2.6984342000214383,,,,,,1660,Moral,2025-03-04_17h31.15.868,MoralCondition_v2,2022.2.5,29.962394198714776,
17,0,17,0,0,0,0,0,,,,,,,,,,,,,,,,,,,,,1016.5998636999866,0.00028769997879862785,0.0980055999243632,1022.6162302999292,6.014770400011912,1022.7828115000157,1022.7828115000157,0.06834210001397878,0.18126019998453557,6.014710200019181,1028.8830998999765,1028.8830998999765,1028.8830998999765,0.06913339998573065,0.18160460004583,1034.5829078999814,1034.7829079999356,6.014879700029269,6.114746600040235,1040.7828738999087,12.014771400019526,1040.882841899991,1040.882841899991,1040.9162401999347,1040.9162401999347,0.015110100037418306,0.1147108000004664,up,0.7907207000534981,1041.7493423999986,4.229997284710407e-05,0.09790609998162836,1047.7492867999244,1047.7492867999244,1047.7492867999244,0.008336900034919381,0.09786870004609227,3.0,1.92374270001892,,,,,,,1028.7828982999781,1028.7828982999781,,,,1660,Moral,2025-03-04_17h31.15.868,MoralCondition_v2,2022.2.5,29.962394198714776,
17,0,17,0,1,0,1,0,,,,,,,,,,,,,,,,,,,,,,,,,,,,,,,,,,,,,,,,,,,,,,,,,,,,,,1049.7160618999042,1049.7160618999042,0.007312299916520715,0.09776709997095168,3.0,2.4917108000954613,,,,,,,,,,,,1660,Moral,2025-03-04_17h31.15.868,MoralCondition_v2,2022.2.5,29.962394198714776,
17,0,17,0,2,0,2,0,,,,,,,,,,,,,,,,,,,,,,,,,,,,,,,,,,,,,,,,,,,,,,,,,,,,,,1052.249272899935,1052.249272899935,0.006503499927930534,0.09923980000894517,2.0,2.060338200069964,,,,,,,,,,,,1660,Moral,2025-03-04_17h31.15.868,MoralCondition_v2,2022.2.5,29.962394198714776,
17,0,17,0,3,0,3,0,,,,,,,,,,,,,,,,,,,,,,,,,,,,,,,,,,,,,,,,,,,,,,,,,,,,,,1054.349379299907,1054.349379299907,0.00672039994969964,0.09944659995380789,4.0,1.9936060999752954,,,,,,,,,,,,1660,Moral,2025-03-04_17h31.15.868,MoralCondition_v2,2022.2.5,29.962394198714776,
17,0,17,0,4,0,4,0,,,,,,,,,,,,,,,,,,,,,,,,,,,,,,,,,,,,,,,,,,,,,,,,,,,,,,1056.3827918999596,1056.3827918999596,0.007335099973715842,0.09778079995885491,2.0,1.8247729999711737,,,,,,,,,,,,1660,Moral,2025-03-04_17h31.15.868,MoralCondition_v2,2022.2.5,29.962394198714776,
17,0,17,0,5,0,5,0,,,,,,,,,,,,,,,,,,,,,,,,,,,,,,,,,,,,,,,,,,,,,,,,,,,,,,1058.2495985999703,1058.2495985999703,0.006864599999971688,0.09947620006278157,2.0,2.9933051000116393,,,,,,,,,,,,1660,Moral,2025-03-04_17h31.15.868,MoralCondition_v2,2022.2.5,29.962394198714776,
17,0,17,0,6,0,6,0,,,,,,,,,,,,,,,,,,,,,,,,,,,,,,,,,,,,,,,,,,,,,,,,,,,,,,1061.2994057999458,1061.2994057999458,0.008795600035227835,0.11487190006300807,2.0,1.2738410000456497,,,,,,,,,,,,1660,Moral,2025-03-04_17h31.15.868,MoralCondition_v2,2022.2.5,29.962394198714776,
17,0,17,0,,,,,,,,,,,,,,,,,,,,,,,,,,,,,,,,,,,,,,,,,,,,,,,,,,,,,,,,,,,,,,,,1062.5993626000127,1062.5993626000127,0.0006941999308764935,0.09919609990902245,4.0,3.100207900046371,,,,,,1660,Moral,2025-03-04_17h31.15.868,MoralCondition_v2,2022.2.5,29.962394198714776,
18,0,18,0,0,0,0,0,,,,,,,,,,,,,,,,,,,,,1065.733008799958,0.00029589992482215166,0.0979112999048084,1071.7493656999432,6.014561699936166,1071.9160975000123,1071.9160975000123,0.06791049998719245,0.1812577999662608,6.014539700001478,1078.0158773999428,1078.0158773999428,1078.0158773999428,0.07246910000685602,0.18136749998666346,1083.7162536999676,1083.9159883999964,6.014505899976939,6.114648699993268,1089.916032499983,12.014558500028215,1090.015988499974,1090.015988499974,1090.0493313999614,1090.0493313999614,0.014668900053948164,0.11464639997575432,up,1.641431099968031,1091.7493376999628,4.6900007873773575e-05,0.09821710002142936,,1097.7660479999613,1097.7660479999613,0.02471500006504357,0.1147077000932768,4.0,3.8910084000090137,,,,,,,1077.9160513000097,1077.9160513000097,,,,1660,Moral,2025-03-04_17h31.15.868,MoralCondition_v2,2022.2.5,29.962394198714776,
18,0,18,0,1,0,1,0,,,,,,,,,,,,,,,,,,,,,,,,,,,,,,,,,,,,,,,,,,,,,,,,,,,,,,1101.6994107000064,1101.6994107000064,0.0070547000505030155,0.09811939997598529,2.0,2.3588105000089854,,,,,,,,,,,,1660,Moral,2025-03-04_17h31.15.868,MoralCondition_v2,2022.2.5,29.962394198714776,
18,0,18,0,2,0,2,0,,,,,,,,,,,,,,,,,,,,,,,,,,,,,,,,,,,,,,,,,,,,,,,,,,,,,,1104.099292299943,1104.099292299943,0.008180100005120039,0.0981448000529781,3.0,1.6245151000330225,,,,,,,,,,,,1660,Moral,2025-03-04_17h31.15.868,MoralCondition_v2,2022.2.5,29.962394198714776,
18,0,18,0,3,0,3,0,,,,,,,,,,,,,,,,,,,,,,,,,,,,,,,,,,,,,,,,,,,,,,,,,,,,,,1105.7657585999696,1105.7657585999696,0.006958500016480684,0.097413600073196,5.0,5.491370400064625,,,,,,,,,,,,1660,Moral,2025-03-04_17h31.15.868,MoralCondition_v2,2022.2.5,29.962394198714776,
18,0,18,0,4,0,4,0,,,,,,,,,,,,,,,,,,,,,,,,,,,,,,,,,,,,,,,,,,,,,,,,,,,,,,1111.2992318999022,1111.2992318999022,0.007712600054219365,0.09818249999079853,3.0,1.891726000001654,,,,,,,,,,,,1660,Moral,2025-03-04_17h31.15.868,MoralCondition_v2,2022.2.5,29.962394198714776,
18,0,18,0,5,0,5,0,,,,,,,,,,,,,,,,,,,,,,,,,,,,,,,,,,,,,,,,,,,,,,,,,,,,,,1113.2494908999652,1113.2494908999652,0.00834739999845624,0.11444489995483309,5.0,2.506719799945131,,,,,,,,,,,,1660,Moral,2025-03-04_17h31.15.868,MoralCondition_v2,2022.2.5,29.962394198714776,
18,0,18,0,6,0,6,0,,,,,,,,,,,,,,,,,,,,,,,,,,,,,,,,,,,,,,,,,,,,,,,,,,,,,,1115.7825587999541,1115.7825587999541,0.007367199985310435,0.09790519997477531,3.0,2.7918021000223234,,,,,,,,,,,,1660,Moral,2025-03-04_17h31.15.868,MoralCondition_v2,2022.2.5,29.962394198714776,
18,0,18,0,,,,,,,,,,,,,,,,,,,,,,,,,,,,,,,,,,,,,,,,,,,,,,,,,,,,,,,,,,,,,,,,1118.61575909995,1118.61575909995,0.0007689000340178609,0.0990941000636667,3.0,2.5993534000590444,,,,,,1660,Moral,2025-03-04_17h31.15.868,MoralCondition_v2,2022.2.5,29.962394198714776,
19,0,19,0,0,0,0,0,,,,,,,,,,,,,,,,,,,,,1121.24935920001,0.00025969999842345715,0.09788350004237145,1127.2659267999697,6.0146258000750095,1127.432355799945,1127.432355799945,0.0766565001104027,0.1812834000447765,6.014497800031677,1133.5325414999388,1133.5325414999388,1133.5325414999388,0.07666300004348159,0.18123880005441606,1139.2325968999648,1139.4324539999943,6.014589500031434,6.114573600119911,1145.432457299903,12.014483400038444,1145.5156363999704,1145.5156363999704,1145.5488508999115,1145.5488508999115,0.014254400157369673,0.09762600006069988,up,0.49387869995553046,1146.082439599908,4.47999918833375e-05,0.0976776999887079,,1152.0992907999316,1152.0992907999316,0.026194300036877394,0.11433180002495646,4.0,4.255634099943563,,,,,,,1133.43251459999,1133.43251459999,,,,1660,Moral,2025-03-04_17h31.15.868,MoralCondition_v2,2022.2.5,29.962394198714776,
19,0,19,0,1,0,1,0,,,,,,,,,,,,,,,,,,,,,,,,,,,,,,,,,,,,,,,,,,,,,,,,,,,,,,1156.399106799974,1156.399106799974,0.007493500015698373,0.09803360002115369,6.0,3.0915533000370488,,,,,,,,,,,,1660,Moral,2025-03-04_17h31.15.868,MoralCondition_v2,2022.2.5,29.962394198714776,
19,0,19,0,2,0,2,0,,,,,,,,,,,,,,,,,,,,,,,,,,,,,,,,,,,,,,,,,,,,,,,,,,,,,,1159.5325590999564,1159.5325590999564,0.007379099959507585,0.09798829990904778,2.0,1.6251671999925748,,,,,,,,,,,,1660,Moral,2025-03-04_17h31.15.868,MoralCondition_v2,2022.2.5,29.962394198714776,
19,0,19,0,3,0,3,0,,,,,,,,,,,,,,,,,,,,,,,,,,,,,,,,,,,,,,,,,,,,,,,,,,,,,,1161.199130599969,1161.199130599969,0.007147300057113171,0.09785420005209744,3.0,2.058596199960448,,,,,,,,,,,,1660,Moral,2025-03-04_17h31.15.868,MoralCondition_v2,2022.2.5,29.962394198714776,
19,0,19,0,4,0,4,0,,,,,,,,,,,,,,,,,,,,,,,,,,,,,,,,,,,,,,,,,,,,,,,,,,,,,,1163.315993999946,1163.315993999946,0.008189199957996607,0.11390150000806898,3.0,1.640047900029458,,,,,,,,,,,,1660,Moral,2025-03-04_17h31.15.868,MoralCondition_v2,2022.2.5,29.962394198714776,
19,0,19,0,5,0,5,0,,,,,,,,,,,,,,,,,,,,,,,,,,,,,,,,,,,,,,,,,,,,,,,,,,,,,,1164.982452899916,1164.982452899916,0.007102199946530163,0.09796789998654276,5.0,2.1586370000150055,,,,,,,,,,,,1660,Moral,2025-03-04_17h31.15.868,MoralCondition_v2,2022.2.5,29.962394198714776,
19,0,19,0,6,0,6,0,,,,,,,,,,,,,,,,,,,,,,,,,,,,,,,,,,,,,,,,,,,,,,,,,,,,,,1167.1822897999082,1167.1822897999082,0.00667749997228384,0.09916270000394434,5.0,1.427493799943477,,,,,,,,,,,,1660,Moral,2025-03-04_17h31.15.868,MoralCondition_v2,2022.2.5,29.962394198714776,
19,0,19,0,,,,,,,,,,,,,,,,,,,,,,,,,,,,,,,,,,,,,,,,,,,,,,,,,,,,,,,,,,,,,,,,1168.6489327999298,1168.6489327999298,0.0011827999260276556,0.09787209995556623,2.0,3.09789999993518,,,,,,1660,Moral,2025-03-04_17h31.15.868,MoralCondition_v2,2022.2.5,29.962394198714776,
