loop.thisRepN,loop.thisTrialN,loop.thisN,loop.thisIndex,evaluate_all_emotions.thisRepN,evaluate_all_emotions.thisTrialN,evaluate_all_emotions.thisN,evaluate_all_emotions.thisIndex,sync_beep_1.started,p_port.started,p_port.stopped,sync_beep_1.stopped,sync_beep_2.started,sync_beep_2.stopped,sync_beep_3.started,sync_beep_4.started,baseline.started,p_port_2.started,p_port_2.stopped,baseline.stopped,p_port_3.started,Game_Start_Text.started,p_port_4.started,p_port_4.stopped,key_resp.started,key_resp.keys,key_resp.rt,fixation_cross.started,p_port_5.started,p_port_5.stopped,p_port_6.started,fixation_cross.stopped,player_image_intro.started,player_name_intro.started,p_port_7.started,p_port_7.stopped,p_port_8.started,player_image_offer.started,player_name_offer.started,proposed_split.started,p_port_9.started,p_port_9.stopped,proposed_split.stopped,accept_reject.started,p_port_15.started,p_port_15.stopped,accept_reject.stopped,p_port_10.started,arrow_instructions.started,offer_choice.started,p_port_11.started,p_port_11.stopped,offer_choice.keys,offer_choice.rt,Instructions_Affinity_Score.started,p_port_12.started,p_port_12.stopped,Emotion_Image.started,AffinityScore.started,p_port_13.started,p_port_13.stopped,AffinityScore.response,AffinityScore.rt,Instruction.started,Moral_Disgust_Score.started,p_port_14.started,p_port_14.stopped,Moral_Disgust_Score.response,Moral_Disgust_Score.rt,p_port_6.stopped,player_image_intro.stopped,player_name_intro.stopped,Instructions_Affinity_Score.stopped,participant,session,date,expName,psychopyVersion,frameRate,
,,,,,,,,29.05483508000689,0.0009221000000252388,0.1190030999996452,29.371533499999714,29.654946329999895,29.971682500000497,30.267914730000577,30.85485962999983,31.18462030000046,0.002960499999062449,0.1357018999997308,46.18458660000033,15.015313199999582,46.288239200000135,0.00232279999909224,0.11887349999869912,46.76789809999991,space,1.2043671999999788,,,,,,,,,,,,,,,,,,,,,,,,,,,,,,,,,,,,,,,,,,,,,,,1902,Moral,2024-07-18_11h28.05.500,MoralCondition_v2,2022.2.5,59.96314664998336,
0,0,0,0,0,0,0,0,,,,,,,,,,,,,,,,,,,,48.004892900000414,0.01132789999974193,0.11530519999996613,6.01184849999936,54.017871000000014,54.30493939999997,54.30493939999997,0.15514709999933984,0.33205029999953695,6.032012999999097,60.33828710000034,60.33828710000034,60.33828710000034,0.10457399999904737,0.265393599998788,66.07148599999982,66.20484740000029,6.031998899999053,6.165321699999367,72.23819970000022,12.032002199998715,72.32151169999997,72.32151169999997,0.032192399998166366,0.1319134999985181,up,3.224134899999626,75.58815890000005,2.4899999516492244e-05,0.10904940000000352,81.63816580000002,81.63816580000002,0.03064029999950435,0.17569889999958832,1.0,6.096633699999984,,,,,,,,,,,1902,Moral,2024-07-18_11h28.05.500,MoralCondition_v2,2022.2.5,59.96314664998336,
0,0,0,0,1,0,1,0,,,,,,,,,,,,,,,,,,,,,,,,,,,,,,,,,,,,,,,,,,,,,,,,,,87.75479910000013,87.75479910000013,0.008154099999956088,0.132430700000441,2.0,7.525364799999807,,,,,,,,,,,1902,Moral,2024-07-18_11h28.05.500,MoralCondition_v2,2022.2.5,59.96314664998336,
0,0,0,0,2,0,2,0,,,,,,,,,,,,,,,,,,,,,,,,,,,,,,,,,,,,,,,,,,,,,,,,,,95.33816800000022,95.33816800000022,0.009334100000160106,0.14886370000021998,1.0,3.407281900000271,,,,,,,,,,,1902,Moral,2024-07-18_11h28.05.500,MoralCondition_v2,2022.2.5,59.96314664998336,
0,0,0,0,3,0,3,0,,,,,,,,,,,,,,,,,,,,,,,,,,,,,,,,,,,,,,,,,,,,,,,,,,98.77142170000025,98.77142170000025,0.007930799999485316,0.13240509999923233,4.0,7.725558799999817,,,,,,,,,,,1902,Moral,2024-07-18_11h28.05.500,MoralCondition_v2,2022.2.5,59.96314664998336,
0,0,0,0,4,0,4,0,,,,,,,,,,,,,,,,,,,,,,,,,,,,,,,,,,,,,,,,,,,,,,,,,,106.55484359999991,106.55484359999991,0.010401999999885447,0.14908009999999194,2.0,3.6732697999996162,,,,,,,,,,,1902,Moral,2024-07-18_11h28.05.500,MoralCondition_v2,2022.2.5,59.96314664998336,
0,0,0,0,5,0,5,0,,,,,,,,,,,,,,,,,,,,,,,,,,,,,,,,,,,,,,,,,,,,,,,,,,110.25487260000045,110.25487260000045,0.00805320000017673,0.13246600000002218,5.0,2.8258227999995142,,,,,,,,,,,1902,Moral,2024-07-18_11h28.05.500,MoralCondition_v2,2022.2.5,59.96314664998336,
0,0,0,0,6,0,6,0,,,,,,,,,,,,,,,,,,,,,,,,,,,,,,,,,,,,,,,,,,,,,,,,,,113.1213571999997,113.1213571999997,0.00832890000037878,0.1322161000007327,2.0,2.7250825999999506,,,,,,,,,,,1902,Moral,2024-07-18_11h28.05.500,MoralCondition_v2,2022.2.5,59.96314664998336,
0,0,0,0,,,,,,,,,,,,,,,,,,,,,,,,,,,,,,,,,,,,,,,,,,,,,,,,,,,,,,,,,,,,115.88809829999991,115.88809829999991,0.000488499999846681,0.1325133000000278,7.0,7.100086200000078,,,,,1902,Moral,2024-07-18_11h28.05.500,MoralCondition_v2,2022.2.5,59.96314664998336,
1,0,1,0,0,0,0,0,,,,,,,,,,,,,,,,,,,,123.0213904000002,0.00010509999992791563,0.11585290000039095,5.999057300000459,129.02145029999974,129.2714691000001,129.2714691000001,0.13474009999936243,0.28252749999955995,6.015808000000106,135.30473520000032,135.30473520000032,135.30473520000032,0.07641809999950055,0.21577249999972992,141.0380892000003,141.20469150000008,6.015818899999431,6.14918039999975,147.23803920000046,12.01582629999939,147.32131409999965,147.32131409999965,0.015806999998858373,0.11570079999910377,up,2.848636099999567,150.20473270000002,1.700000029813964e-05,0.11580059999960213,156.2176083000004,156.2176083000004,0.019447200000286102,0.13256749999982276,2.0,6.047593799999959,,,,,,,6.0991894999997385,,,,1902,Moral,2024-07-18_11h28.05.500,MoralCondition_v2,2022.2.5,59.96314664998336,
1,0,1,0,1,0,1,0,,,,,,,,,,,,,,,,,,,,,,,,,,,,,,,,,,,,,,,,,,,,,,,,,,162.30464480000046,162.30464480000046,0.005712999999559543,0.13250579999930778,1.0,2.961465600000338,,,,,,,,,,,1902,Moral,2024-07-18_11h28.05.500,MoralCondition_v2,2022.2.5,59.96314664998336,
1,0,1,0,2,0,2,0,,,,,,,,,,,,,,,,,,,,,,,,,,,,,,,,,,,,,,,,,,,,,,,,,,165.30465220000042,165.30465220000042,0.006222099999831698,0.13233970000055706,2.0,3.3607788999997865,,,,,,,,,,,1902,Moral,2024-07-18_11h28.05.500,MoralCondition_v2,2022.2.5,59.96314664998336,
1,0,1,0,3,0,3,0,,,,,,,,,,,,,,,,,,,,,,,,,,,,,,,,,,,,,,,,,,,,,,,,,,168.70458729999973,168.70458729999973,0.005506299999979092,0.1323036999992837,1.0,3.427899199999956,,,,,,,,,,,1902,Moral,2024-07-18_11h28.05.500,MoralCondition_v2,2022.2.5,59.96314664998336,
1,0,1,0,4,0,4,0,,,,,,,,,,,,,,,,,,,,,,,,,,,,,,,,,,,,,,,,,,,,,,,,,,172.1712703000003,172.1712703000003,0.0074359000000185915,0.13246720000006462,4.0,4.392871200000627,,,,,,,,,,,1902,Moral,2024-07-18_11h28.05.500,MoralCondition_v2,2022.2.5,59.96314664998336,
1,0,1,0,5,0,5,0,,,,,,,,,,,,,,,,,,,,,,,,,,,,,,,,,,,,,,,,,,,,,,,,,,176.6045979999999,176.6045979999999,0.006695099999888043,0.1325222000004942,5.0,3.0934355999997933,,,,,,,,,,,1902,Moral,2024-07-18_11h28.05.500,MoralCondition_v2,2022.2.5,59.96314664998336,
1,0,1,0,6,0,6,0,,,,,,,,,,,,,,,,,,,,,,,,,,,,,,,,,,,,,,,,,,,,,,,,,,179.73795719999998,179.73795719999998,0.006400899999789544,0.13257789999988745,1.0,2.593988900000113,,,,,,,,,,,1902,Moral,2024-07-18_11h28.05.500,MoralCondition_v2,2022.2.5,59.96314664998336,
1,0,1,0,,,,,,,,,,,,,,,,,,,,,,,,,,,,,,,,,,,,,,,,,,,,,,,,,,,,,,,,,,,,182.37128889999985,182.37128889999985,0.0005045000007157796,0.13246210000033898,7.0,4.033013100000062,,,,,1902,Moral,2024-07-18_11h28.05.500,MoralCondition_v2,2022.2.5,59.96314664998336,
2,0,2,0,0,0,0,0,,,,,,,,,,,,,,,,,,,,186.43791650000003,0.00016599999980826396,0.11557410000023083,6.011873000000378,192.45091779999984,192.63796830000047,192.63796830000047,0.09313599999950384,0.2322822999994969,6.032189099999414,198.73787700000048,198.73787700000048,198.73787700000048,0.0980000999988988,0.23230389999935142,204.47127509999973,204.63785439999992,6.032207299998845,6.165558799999417,210.6711851,12.032185899999604,210.75452399999995,210.75452399999995,0.032269699999233126,0.13212629999907222,down,0.9995545000001584,211.7878510999999,1.9899999642802868e-05,0.1288723999996364,217.80091090000042,217.80091090000042,0.01972620000015013,0.12888979999934236,7.0,7.530764099999942,,,,,,,,,,,1902,Moral,2024-07-18_11h28.05.500,MoralCondition_v2,2022.2.5,59.96314664998336,
2,0,2,0,1,0,1,0,,,,,,,,,,,,,,,,,,,,,,,,,,,,,,,,,,,,,,,,,,,,,,,,,,225.37107379999998,225.37107379999998,0.007417499999974098,0.13224369999988994,3.0,6.592636700000185,,,,,,,,,,,1902,Moral,2024-07-18_11h28.05.500,MoralCondition_v2,2022.2.5,59.96314664998336,
2,0,2,0,2,0,2,0,,,,,,,,,,,,,,,,,,,,,,,,,,,,,,,,,,,,,,,,,,,,,,,,,,232.00441130000036,232.00441130000036,0.006424399999559682,0.13236529999994673,2.0,3.3937740000001213,,,,,,,,,,,1902,Moral,2024-07-18_11h28.05.500,MoralCondition_v2,2022.2.5,59.96314664998336,
2,0,2,0,3,0,3,0,,,,,,,,,,,,,,,,,,,,,,,,,,,,,,,,,,,,,,,,,,,,,,,,,,235.43779330000052,235.43779330000052,0.006277600000430539,0.13247290000072098,6.0,2.894072000000051,,,,,,,,,,,1902,Moral,2024-07-18_11h28.05.500,MoralCondition_v2,2022.2.5,59.96314664998336,
2,0,2,0,4,0,4,0,,,,,,,,,,,,,,,,,,,,,,,,,,,,,,,,,,,,,,,,,,,,,,,,,,238.37103070000012,238.37103070000012,0.00602089999938471,0.132252200000039,6.0,2.127596199999971,,,,,,,,,,,1902,Moral,2024-07-18_11h28.05.500,MoralCondition_v2,2022.2.5,59.96314664998336,
2,0,2,0,5,0,5,0,,,,,,,,,,,,,,,,,,,,,,,,,,,,,,,,,,,,,,,,,,,,,,,,,,240.53780040000038,240.53780040000038,0.005744199999753619,0.132412299999487,5.0,3.9611156999999366,,,,,,,,,,,1902,Moral,2024-07-18_11h28.05.500,MoralCondition_v2,2022.2.5,59.96314664998336,
2,0,2,0,6,0,6,0,,,,,,,,,,,,,,,,,,,,,,,,,,,,,,,,,,,,,,,,,,,,,,,,,,244.53775200000018,244.53775200000018,0.00590109999939159,0.1324754999996003,1.0,2.6944206999996823,,,,,,,,,,,1902,Moral,2024-07-18_11h28.05.500,MoralCondition_v2,2022.2.5,59.96314664998336,
2,0,2,0,,,,,,,,,,,,,,,,,,,,,,,,,,,,,,,,,,,,,,,,,,,,,,,,,,,,,,,,,,,,247.2710745000004,247.2710745000004,0.0007651999994777725,0.1322547999998278,2.0,6.999481299999388,,,,,1902,Moral,2024-07-18_11h28.05.500,MoralCondition_v2,2022.2.5,59.96314664998336,
3,0,3,0,0,0,0,0,,,,,,,,,,,,,,,,,,,,254.30437830000028,0.00013549999948736513,0.11539100000027247,6.015373600000203,260.30435690000013,260.5210030999997,260.5210030999997,0.11736109999947075,0.24875639999936539,6.015494699999181,266.58777100000043,266.58777100000043,266.58777100000043,0.07732509999914328,0.21545269999933225,272.32100119999996,272.52093609999974,6.015390299999126,6.148747499999445,278.5543438000004,12.01538889999938,278.60432539999965,278.60432539999965,0.015570999998999469,0.11538199999904464,up,7.453762600000118,286.10430650000035,1.7700000171316788e-05,0.11603110000032757,292.1208879000005,292.1208879000005,0.02330400000028021,0.14929040000060922,5.0,5.060324400000354,,,,,,,,,,,1902,Moral,2024-07-18_11h28.05.500,MoralCondition_v2,2022.2.5,59.96314664998336,
3,0,3,0,1,0,1,0,,,,,,,,,,,,,,,,,,,,,,,,,,,,,,,,,,,,,,,,,,,,,,,,,,297.22085160000006,297.22085160000006,0.006795399999646179,0.13219739999931335,2.0,3.4931239000006826,,,,,,,,,,,1902,Moral,2024-07-18_11h28.05.500,MoralCondition_v2,2022.2.5,59.96314664998336,
3,0,3,0,2,0,2,0,,,,,,,,,,,,,,,,,,,,,,,,,,,,,,,,,,,,,,,,,,,,,,,,,,300.7541868999997,300.7541868999997,0.006121700000221608,0.13262750000012602,1.0,2.160848100000294,,,,,,,,,,,1902,Moral,2024-07-18_11h28.05.500,MoralCondition_v2,2022.2.5,59.96314664998336,
3,0,3,0,3,0,3,0,,,,,,,,,,,,,,,,,,,,,,,,,,,,,,,,,,,,,,,,,,,,,,,,,,302.95419779999975,302.95419779999975,0.006428100000448467,0.13246820000040316,6.0,2.2271100999996634,,,,,,,,,,,1902,Moral,2024-07-18_11h28.05.500,MoralCondition_v2,2022.2.5,59.96314664998336,
3,0,3,0,4,0,4,0,,,,,,,,,,,,,,,,,,,,,,,,,,,,,,,,,,,,,,,,,,,,,,,,,,305.2209850999998,305.2209850999998,0.006046700000297278,0.1323221000002377,6.0,2.260790100000122,,,,,,,,,,,1902,Moral,2024-07-18_11h28.05.500,MoralCondition_v2,2022.2.5,59.96314664998336,
3,0,3,0,5,0,5,0,,,,,,,,,,,,,,,,,,,,,,,,,,,,,,,,,,,,,,,,,,,,,,,,,,307.52096809999966,307.52096809999966,0.006312900000011723,0.13213809999979276,6.0,3.027155799999491,,,,,,,,,,,1902,Moral,2024-07-18_11h28.05.500,MoralCondition_v2,2022.2.5,59.96314664998336,
3,0,3,0,6,0,6,0,,,,,,,,,,,,,,,,,,,,,,,,,,,,,,,,,,,,,,,,,,,,,,,,,,310.5875070000002,310.5875070000002,0.006680999999844062,0.13213790000008885,6.0,4.059963800000332,,,,,,,,,,,1902,Moral,2024-07-18_11h28.05.500,MoralCondition_v2,2022.2.5,59.96314664998336,
3,0,3,0,,,,,,,,,,,,,,,,,,,,,,,,,,,,,,,,,,,,,,,,,,,,,,,,,,,,,,,,,,,,314.6875146000002,314.6875146000002,0.0007470000000466825,0.1322533000002295,2.0,4.999388899999758,,,,,1902,Moral,2024-07-18_11h28.05.500,MoralCondition_v2,2022.2.5,59.96314664998336,
4,0,4,0,0,0,0,0,,,,,,,,,,,,,,,,,,,,319.7208363,0.00013409999974101083,0.11570500000016182,6.01563570000053,325.72076819999984,325.9004931999998,325.9004931999998,0.06992489999993268,0.21586279999974067,6.015685999999732,332.00411780000013,332.00411780000013,332.00411780000013,0.07303129999945668,0.2156848999993599,337.7374781999997,337.90409700000055,6.01568479999969,6.149032399999669,343.9374807000004,12.015636599999198,344.0206688999997,344.0206688999997,0.015835899998819514,0.11558399999921676,up,2.7497223999998823,346.8041003999997,2.409999979136046e-05,0.1159204999994472,352.8207183000004,352.8207183000004,0.023427299999639217,0.1493745999996463,1.0,3.5936831999997594,,,,,,,,,,,1902,Moral,2024-07-18_11h28.05.500,MoralCondition_v2,2022.2.5,59.96314664998336,
4,0,4,0,1,0,1,0,,,,,,,,,,,,,,,,,,,,,,,,,,,,,,,,,,,,,,,,,,,,,,,,,,356.45405010000013,356.45405010000013,0.006419399999685993,0.13226299999951152,2.0,7.260217500000181,,,,,,,,,,,1902,Moral,2024-07-18_11h28.05.500,MoralCondition_v2,2022.2.5,59.96314664998336,
4,0,4,0,2,0,2,0,,,,,,,,,,,,,,,,,,,,,,,,,,,,,,,,,,,,,,,,,,,,,,,,,,363.75402029999987,363.75402029999987,0.006292000000030384,0.13230949999979202,2.0,2.727347300000474,,,,,,,,,,,1902,Moral,2024-07-18_11h28.05.500,MoralCondition_v2,2022.2.5,59.96314664998336,
4,0,4,0,3,0,3,0,,,,,,,,,,,,,,,,,,,,,,,,,,,,,,,,,,,,,,,,,,,,,,,,,,366.5206715000004,366.5206715000004,0.006826899999396119,0.1323298999996041,2.0,1.7601056000003155,,,,,,,,,,,1902,Moral,2024-07-18_11h28.05.500,MoralCondition_v2,2022.2.5,59.96314664998336,
4,0,4,0,4,0,4,0,,,,,,,,,,,,,,,,,,,,,,,,,,,,,,,,,,,,,,,,,,,,,,,,,,368.3206607000002,368.3206607000002,0.00655189999997674,0.13234809999994468,5.0,3.0936496999993324,,,,,,,,,,,1902,Moral,2024-07-18_11h28.05.500,MoralCondition_v2,2022.2.5,59.96314664998336,
4,0,4,0,5,0,5,0,,,,,,,,,,,,,,,,,,,,,,,,,,,,,,,,,,,,,,,,,,,,,,,,,,371.45404880000024,371.45404880000024,0.007153800000196497,0.13231120000000374,6.0,2.45961940000052,,,,,,,,,,,1902,Moral,2024-07-18_11h28.05.500,MoralCondition_v2,2022.2.5,59.96314664998336,
4,0,4,0,6,0,6,0,,,,,,,,,,,,,,,,,,,,,,,,,,,,,,,,,,,,,,,,,,,,,,,,,,373.9540803,373.9540803,0.0070693000006940565,0.13235600000007253,1.0,2.8264591000006476,,,,,,,,,,,1902,Moral,2024-07-18_11h28.05.500,MoralCondition_v2,2022.2.5,59.96314664998336,
4,0,4,0,,,,,,,,,,,,,,,,,,,,,,,,,,,,,,,,,,,,,,,,,,,,,,,,,,,,,,,,,,,,376.8206418,376.8206418,0.0007584000004499103,0.13231350000023667,7.0,3.5997215999996115,,,,,1902,Moral,2024-07-18_11h28.05.500,MoralCondition_v2,2022.2.5,59.96314664998336,
5,0,5,0,0,0,0,0,,,,,,,,,,,,,,,,,,,,380.45395180000014,0.00010610000026645139,0.11581280000063998,6.012111400000322,386.4669104000004,386.6373142000002,386.6373142000002,0.0761144999996759,0.21584470000016154,6.01598279999962,392.7373526000001,392.7373526000001,392.7373526000001,0.07350129999940691,0.21589589999985037,398.4706259000004,398.6373119,6.015869299999395,6.149123399999553,404.67055340000024,12.015754299999571,404.7538572000003,404.7538572000003,0.015766499998790096,0.11560629999894445,up,3.9919620000000577,408.7668660999998,1.2900000001536682e-05,0.10288089999994554,414.7871401000002,414.7871401000002,0.010519400000703172,0.13629470000068977,2.0,7.660407299999861,,,,,,,,,,,1902,Moral,2024-07-18_11h28.05.500,MoralCondition_v2,2022.2.5,59.96314664998336,
5,0,5,0,1,0,1,0,,,,,,,,,,,,,,,,,,,,,,,,,,,,,,,,,,,,,,,,,,,,,,,,,,422.48708590000024,422.48708590000024,0.007000200000220502,0.13218140000026324,5.0,5.226463400000284,,,,,,,,,,,1902,Moral,2024-07-18_11h28.05.500,MoralCondition_v2,2022.2.5,59.96314664998336,
5,0,5,0,2,0,2,0,,,,,,,,,,,,,,,,,,,,,,,,,,,,,,,,,,,,,,,,,,,,,,,,,,427.7538245000005,427.7538245000005,0.006231500000467349,0.1323524000008547,2.0,3.2272325000003548,,,,,,,,,,,1902,Moral,2024-07-18_11h28.05.500,MoralCondition_v2,2022.2.5,59.96314664998336,
5,0,5,0,3,0,3,0,,,,,,,,,,,,,,,,,,,,,,,,,,,,,,,,,,,,,,,,,,,,,,,,,,431.0203842000001,431.0203842000001,0.006667000000561529,0.1325157000001127,1.0,1.9270606000000043,,,,,,,,,,,1902,Moral,2024-07-18_11h28.05.500,MoralCondition_v2,2022.2.5,59.96314664998336,
5,0,5,0,4,0,4,0,,,,,,,,,,,,,,,,,,,,,,,,,,,,,,,,,,,,,,,,,,,,,,,,,,432.98706240000047,432.98706240000047,0.006335600000056729,0.1324997000001531,1.0,1.0273523000005298,,,,,,,,,,,1902,Moral,2024-07-18_11h28.05.500,MoralCondition_v2,2022.2.5,59.96314664998336,
5,0,5,0,5,0,5,0,,,,,,,,,,,,,,,,,,,,,,,,,,,,,,,,,,,,,,,,,,,,,,,,,,434.0537159000005,434.0537159000005,0.005865099999937229,0.13238189999992755,4.0,2.3944846999993388,,,,,,,,,,,1902,Moral,2024-07-18_11h28.05.500,MoralCondition_v2,2022.2.5,59.96314664998336,
5,0,5,0,6,0,6,0,,,,,,,,,,,,,,,,,,,,,,,,,,,,,,,,,,,,,,,,,,,,,,,,,,436.4870374000002,436.4870374000002,0.00608620000002702,0.1323499999998603,2.0,3.9942249000005177,,,,,,,,,,,1902,Moral,2024-07-18_11h28.05.500,MoralCondition_v2,2022.2.5,59.96314664998336,
5,0,5,0,,,,,,,,,,,,,,,,,,,,,,,,,,,,,,,,,,,,,,,,,,,,,,,,,,,,,,,,,,,,440.52038230000016,440.52038230000016,0.0007498999993913458,0.13221129999965342,7.0,3.9328420000001643,,,,,1902,Moral,2024-07-18_11h28.05.500,MoralCondition_v2,2022.2.5,59.96314664998336,
6,0,6,0,0,0,0,0,,,,,,,,,,,,,,,,,,,,444.4870259999998,0.00010130000009667128,0.11553460000050109,6.015574600000036,450.48702820000017,450.7369933,450.7369933,0.13479459999962273,0.2822654000001421,6.0155470999998215,456.7703876000005,456.7703876000005,456.7703876000005,0.07169879999946716,0.21561059999930876,462.50365500000044,462.70376450000003,6.015629099999387,6.149010999999518,468.73698179999974,12.015515799999775,468.7869093999998,468.7869093999998,0.015576799999507784,0.11547469999914028,up,0.7035093000004053,469.5369572999998,1.6699999832781032e-05,0.11565710000013496,475.55353749999995,475.55353749999995,0.02369120000003022,0.14534960000037245,2.0,2.9265771999998833,,,,,,,,,,,1902,Moral,2024-07-18_11h28.05.500,MoralCondition_v2,2022.2.5,59.96314664998336,
6,0,6,0,1,0,1,0,,,,,,,,,,,,,,,,,,,,,,,,,,,,,,,,,,,,,,,,,,,,,,,,,,478.5202414000005,478.5202414000005,0.0066853999996965285,0.13236649999998917,4.0,5.893597599999339,,,,,,,,,,,1902,Moral,2024-07-18_11h28.05.500,MoralCondition_v2,2022.2.5,59.96314664998336,
6,0,6,0,2,0,2,0,,,,,,,,,,,,,,,,,,,,,,,,,,,,,,,,,,,,,,,,,,,,,,,,,,484.4535310000001,484.4535310000001,0.006646400000136055,0.13220379999984289,2.0,5.926780699999654,,,,,,,,,,,1902,Moral,2024-07-18_11h28.05.500,MoralCondition_v2,2022.2.5,59.96314664998336,
6,0,6,0,3,0,3,0,,,,,,,,,,,,,,,,,,,,,,,,,,,,,,,,,,,,,,,,,,,,,,,,,,490.42026780000015,490.42026780000015,0.006669800000054238,0.13252200000079029,6.0,5.69366379999974,,,,,,,,,,,1902,Moral,2024-07-18_11h28.05.500,MoralCondition_v2,2022.2.5,59.96314664998336,
6,0,6,0,4,0,4,0,,,,,,,,,,,,,,,,,,,,,,,,,,,,,,,,,,,,,,,,,,,,,,,,,,496.15343399999983,496.15343399999983,0.006193400000483962,0.13250299999981507,1.0,2.193986799999948,,,,,,,,,,,1902,Moral,2024-07-18_11h28.05.500,MoralCondition_v2,2022.2.5,59.96314664998336,
6,0,6,0,5,0,5,0,,,,,,,,,,,,,,,,,,,,,,,,,,,,,,,,,,,,,,,,,,,,,,,,,,498.38680320000003,498.38680320000003,0.006662499999947613,0.13222110000060638,1.0,0.6933637000001909,,,,,,,,,,,1902,Moral,2024-07-18_11h28.05.500,MoralCondition_v2,2022.2.5,59.96314664998336,
6,0,6,0,6,0,6,0,,,,,,,,,,,,,,,,,,,,,,,,,,,,,,,,,,,,,,,,,,,,,,,,,,499.12014270000054,499.12014270000054,0.006840099999863014,0.13246369999978924,2.0,2.1267251999997825,,,,,,,,,,,1902,Moral,2024-07-18_11h28.05.500,MoralCondition_v2,2022.2.5,59.96314664998336,
6,0,6,0,,,,,,,,,,,,,,,,,,,,,,,,,,,,,,,,,,,,,,,,,,,,,,,,,,,,,,,,,,,,501.2867851000001,501.2867851000001,0.00046720000045752386,0.13256400000045687,7.0,5.6999039000002085,,,,,1902,Moral,2024-07-18_11h28.05.500,MoralCondition_v2,2022.2.5,59.96314664998336,
7,0,7,0,0,0,0,0,,,,,,,,,,,,,,,,,,,,507.0201340000003,9.920000047713984e-05,0.11590499999965687,5.999166999999943,513.0200329999998,513.1867428000005,513.1867428000005,0.06131980000009207,0.19921309999972436,5.9990829999997,519.3033560000003,519.3033560000003,519.3033560000003,0.07571809999899415,0.21578239999962534,525.0366873000003,525.2033011000003,6.01576599999953,6.149120699999003,531.2366202000003,12.015709299998889,531.3199083,531.3199083,0.01579729999866686,0.11565259999861155,up,2.546012300000257,533.9033238000002,1.9400000383029692e-05,0.11587210000016057,539.9162219999998,539.9162219999998,0.019969800000581017,0.1325901000000158,6.0,3.046940899999754,,,,,,,6.09908170000017,519.2032987000002,519.2032987000002,,1902,Moral,2024-07-18_11h28.05.500,MoralCondition_v2,2022.2.5,59.96314664998336,
7,0,7,0,1,0,1,0,,,,,,,,,,,,,,,,,,,,,,,,,,,,,,,,,,,,,,,,,,,,,,,,,,543.0032399000002,543.0032399000002,0.007064700000228186,0.1323142999999618,2.0,2.7597445999999763,,,,,,,,,,,1902,Moral,2024-07-18_11h28.05.500,MoralCondition_v2,2022.2.5,59.96314664998336,
7,0,7,0,2,0,2,0,,,,,,,,,,,,,,,,,,,,,,,,,,,,,,,,,,,,,,,,,,,,,,,,,,545.8032424000003,545.8032424000003,0.0064238000004479545,0.13251610000043001,1.0,1.7942015999997238,,,,,,,,,,,1902,Moral,2024-07-18_11h28.05.500,MoralCondition_v2,2022.2.5,59.96314664998336,
7,0,7,0,3,0,3,0,,,,,,,,,,,,,,,,,,,,,,,,,,,,,,,,,,,,,,,,,,,,,,,,,,547.6366040000003,547.6366040000003,0.005828999999721418,0.13240659999974014,2.0,3.561077700000169,,,,,,,,,,,1902,Moral,2024-07-18_11h28.05.500,MoralCondition_v2,2022.2.5,59.96314664998336,
7,0,7,0,4,0,4,0,,,,,,,,,,,,,,,,,,,,,,,,,,,,,,,,,,,,,,,,,,,,,,,,,,551.2365658999997,551.2365658999997,0.007192400000349153,0.1323579999998401,4.0,3.7931173999995735,,,,,,,,,,,1902,Moral,2024-07-18_11h28.05.500,MoralCondition_v2,2022.2.5,59.96314664998336,
7,0,7,0,5,0,5,0,,,,,,,,,,,,,,,,,,,,,,,,,,,,,,,,,,,,,,,,,,,,,,,,,,555.0698422000005,555.0698422000005,0.007065400000101363,0.1326073999998698,2.0,3.459967699999652,,,,,,,,,,,1902,Moral,2024-07-18_11h28.05.500,MoralCondition_v2,2022.2.5,59.96314664998336,
7,0,7,0,6,0,6,0,,,,,,,,,,,,,,,,,,,,,,,,,,,,,,,,,,,,,,,,,,,,,,,,,,558.5697824999997,558.5697824999997,0.006839099999524478,0.13237560000015947,1.0,2.6932833000000755,,,,,,,,,,,1902,Moral,2024-07-18_11h28.05.500,MoralCondition_v2,2022.2.5,59.96314664998336,
7,0,7,0,,,,,,,,,,,,,,,,,,,,,,,,,,,,,,,,,,,,,,,,,,,,,,,,,,,,,,,,,,,,561.3032131,561.3032131,0.0008005999998204061,0.1321471000001111,7.0,6.532656800000041,,,,,1902,Moral,2024-07-18_11h28.05.500,MoralCondition_v2,2022.2.5,59.96314664998336,
8,0,8,0,0,0,0,0,,,,,,,,,,,,,,,,,,,,567.8698397999997,9.720000070956303e-05,0.11590050000086194,5.999188900000263,573.8697659,574.1365664000004,574.1365664000004,0.149936599999819,0.29934510000020964,5.999253400000271,580.1697076999999,580.1697076999999,580.1697076999999,0.09762719999980618,0.23254829999950744,585.9030374000004,586.0698327,5.999100499999258,6.132588999999825,592.1029881000004,11.999086499999976,592.1862376999998,592.1862376999998,0.03263319999950909,0.13236879999931261,up,0.4715138999999908,592.7031776000003,1.7600000319362152e-05,0.11574990000008256,598.7196552000005,598.7196552000005,0.0234243000004426,0.14914610000050743,1.0,3.693746499999179,,,,,,,,,,,1902,Moral,2024-07-18_11h28.05.500,MoralCondition_v2,2022.2.5,59.96314664998336,
8,0,8,0,1,0,1,0,,,,,,,,,,,,,,,,,,,,,,,,,,,,,,,,,,,,,,,,,,,,,,,,,,602.4529117000002,602.4529117000002,0.006223299999874143,0.1324862999999823,2.0,1.8608178000004045,,,,,,,,,,,1902,Moral,2024-07-18_11h28.05.500,MoralCondition_v2,2022.2.5,59.96314664998336,
8,0,8,0,2,0,2,0,,,,,,,,,,,,,,,,,,,,,,,,,,,,,,,,,,,,,,,,,,,,,,,,,,604.3529774999997,604.3529774999997,0.006393900000148278,0.13212639999983367,2.0,2.860507599999437,,,,,,,,,,,1902,Moral,2024-07-18_11h28.05.500,MoralCondition_v2,2022.2.5,59.96314664998336,
8,0,8,0,3,0,3,0,,,,,,,,,,,,,,,,,,,,,,,,,,,,,,,,,,,,,,,,,,,,,,,,,,607.2529230999999,607.2529230999999,0.006650400000580703,0.1322018000000753,6.0,2.3933821999999054,,,,,,,,,,,1902,Moral,2024-07-18_11h28.05.500,MoralCondition_v2,2022.2.5,59.96314664998336,
8,0,8,0,4,0,4,0,,,,,,,,,,,,,,,,,,,,,,,,,,,,,,,,,,,,,,,,,,,,,,,,,,609.6862498,609.6862498,0.00676249999924039,0.13252099999954225,2.0,2.5935774999998102,,,,,,,,,,,1902,Moral,2024-07-18_11h28.05.500,MoralCondition_v2,2022.2.5,59.96314664998336,
8,0,8,0,5,0,5,0,,,,,,,,,,,,,,,,,,,,,,,,,,,,,,,,,,,,,,,,,,,,,,,,,,612.3196134,612.3196134,0.007846700000300189,0.13259970000035537,1.0,2.2259638000004998,,,,,,,,,,,1902,Moral,2024-07-18_11h28.05.500,MoralCondition_v2,2022.2.5,59.96314664998336,
8,0,8,0,6,0,6,0,,,,,,,,,,,,,,,,,,,,,,,,,,,,,,,,,,,,,,,,,,,,,,,,,,614.5863042000001,614.5863042000001,0.006867199999760487,0.1324297999999544,4.0,7.059804100000292,,,,,,,,,,,1902,Moral,2024-07-18_11h28.05.500,MoralCondition_v2,2022.2.5,59.96314664998336,
8,0,8,0,,,,,,,,,,,,,,,,,,,,,,,,,,,,,,,,,,,,,,,,,,,,,,,,,,,,,,,,,,,,621.6861525000004,621.6861525000004,0.0007052000000840053,0.13247660000070027,7.0,3.3995962999997573,,,,,1902,Moral,2024-07-18_11h28.05.500,MoralCondition_v2,2022.2.5,59.96314664998336,
9,0,9,0,0,0,0,0,,,,,,,,,,,,,,,,,,,,625.1194989000005,0.0002519999998185085,0.11568779999925027,6.01200179999978,631.1361002000003,631.3028046,631.3028046,0.08313109999926382,0.21571789999961766,6.015739899999062,637.4027346000003,637.4027346000003,637.4027346000003,0.07894959999885032,0.21565459999874292,643.1361198000004,643.3360865000004,6.015593899998748,6.148928199999318,649.3693824000002,12.015568799998618,649.4193315000002,649.4193315000002,0.01573179999832064,0.1155570999990232,up,1.0624356999996962,650.4991811,1.8400000044493936e-05,0.09552789999997913,656.5157355000001,656.5157355000001,0.0018036999999822,0.13252029999966908,1.0,2.331592499999715,,,,,,,,,,656.5157355000001,1902,Moral,2024-07-18_11h28.05.500,MoralCondition_v2,2022.2.5,59.96314664998336,
9,0,9,0,1,0,1,0,,,,,,,,,,,,,,,,,,,,,,,,,,,,,,,,,,,,,,,,,,,,,,,,,,658.8859657000003,658.8859657000003,0.006770900000447,0.13247390000015002,6.0,2.393406799999866,,,,,,,,,,,1902,Moral,2024-07-18_11h28.05.500,MoralCondition_v2,2022.2.5,59.96314664998336,
9,0,9,0,2,0,2,0,,,,,,,,,,,,,,,,,,,,,,,,,,,,,,,,,,,,,,,,,,,,,,,,,,661.3192750999997,661.3192750999997,0.0056384999998044805,0.13249439999981405,2.0,2.7949109999999564,,,,,,,,,,,1902,Moral,2024-07-18_11h28.05.500,MoralCondition_v2,2022.2.5,59.96314664998336,
9,0,9,0,3,0,3,0,,,,,,,,,,,,,,,,,,,,,,,,,,,,,,,,,,,,,,,,,,,,,,,,,,664.1525772000005,664.1525772000005,0.006780900000194379,0.1326284000006126,2.0,1.4935031000004528,,,,,,,,,,,1902,Moral,2024-07-18_11h28.05.500,MoralCondition_v2,2022.2.5,59.96314664998336,
9,0,9,0,4,0,4,0,,,,,,,,,,,,,,,,,,,,,,,,,,,,,,,,,,,,,,,,,,,,,,,,,,665.6861147,665.6861147,0.006622800000513962,0.13213619999987714,2.0,3.259878600000775,,,,,,,,,,,1902,Moral,2024-07-18_11h28.05.500,MoralCondition_v2,2022.2.5,59.96314664998336,
9,0,9,0,5,0,5,0,,,,,,,,,,,,,,,,,,,,,,,,,,,,,,,,,,,,,,,,,,,,,,,,,,668.9859432000003,668.9859432000003,0.007449400000041351,0.13236330000017915,4.0,2.0595682999992277,,,,,,,,,,,1902,Moral,2024-07-18_11h28.05.500,MoralCondition_v2,2022.2.5,59.96314664998336,
9,0,9,0,6,0,6,0,,,,,,,,,,,,,,,,,,,,,,,,,,,,,,,,,,,,,,,,,,,,,,,,,,671.0859054000002,671.0859054000002,0.006697399999211484,0.1325738999994428,1.0,2.0604049000003215,,,,,,,,,,,1902,Moral,2024-07-18_11h28.05.500,MoralCondition_v2,2022.2.5,59.96314664998336,
9,0,9,0,,,,,,,,,,,,,,,,,,,,,,,,,,,,,,,,,,,,,,,,,,,,,,,,,,,,,,,,,,,,673.1859678999999,673.1859678999999,0.0004864000002271496,0.1324968999997509,7.0,2.366590599999654,,,,,1902,Moral,2024-07-18_11h28.05.500,MoralCondition_v2,2022.2.5,59.96314664998336,
10,0,10,0,0,0,0,0,,,,,,,,,,,,,,,,,,,,675.5858896999998,0.0001605000006748014,0.11535650000041642,6.015304700000343,681.5858500000004,681.7692466999997,681.7692466999997,0.08100019999983488,0.21548040000016044,6.015458800000488,687.8691986000003,687.8691986000003,687.8691986000003,0.07285279999996419,0.2153798999997889,693.6024840999999,693.8024648,6.015389099999993,6.148684599999797,699.8357808000001,12.015335899999627,699.8857219000001,699.8857219000001,0.015367799999694398,0.1153465999996115,down,2.4135042999996585,702.3359144000005,1.52000002344721e-05,0.11582369999996445,708.3524177999998,708.3524177999998,0.022628400000030524,0.14918130000023666,5.0,5.228097700000035,,,,,,,,,,,1902,Moral,2024-07-18_11h28.05.500,MoralCondition_v2,2022.2.5,59.96314664998336,
10,0,10,0,1,0,1,0,,,,,,,,,,,,,,,,,,,,,,,,,,,,,,,,,,,,,,,,,,,,,,,,,,713.6190585000004,713.6190585000004,0.006153500000436907,0.1323502000004737,7.0,4.12756360000003,,,,,,,,,,,1902,Moral,2024-07-18_11h28.05.500,MoralCondition_v2,2022.2.5,59.96314664998336,
10,0,10,0,2,0,2,0,,,,,,,,,,,,,,,,,,,,,,,,,,,,,,,,,,,,,,,,,,,,,,,,,,717.7856785000004,717.7856785000004,0.006446400000641006,0.1326000999997632,2.0,2.727589600000101,,,,,,,,,,,1902,Moral,2024-07-18_11h28.05.500,MoralCondition_v2,2022.2.5,59.96314664998336,
10,0,10,0,3,0,3,0,,,,,,,,,,,,,,,,,,,,,,,,,,,,,,,,,,,,,,,,,,,,,,,,,,720.5523042000004,720.5523042000004,0.006577099999958591,0.13233610000042972,2.0,3.393363000000136,,,,,,,,,,,1902,Moral,2024-07-18_11h28.05.500,MoralCondition_v2,2022.2.5,59.96314664998336,
10,0,10,0,4,0,4,0,,,,,,,,,,,,,,,,,,,,,,,,,,,,,,,,,,,,,,,,,,,,,,,,,,723.9857376999998,723.9857376999998,0.0066219999998793355,0.13221659999999247,3.0,6.193389600000046,,,,,,,,,,,1902,Moral,2024-07-18_11h28.05.500,MoralCondition_v2,2022.2.5,59.96314664998336,
10,0,10,0,5,0,5,0,,,,,,,,,,,,,,,,,,,,,,,,,,,,,,,,,,,,,,,,,,,,,,,,,,730.2190121000003,730.2190121000003,0.006826200000432436,0.132572400000754,5.0,5.193264200000158,,,,,,,,,,,1902,Moral,2024-07-18_11h28.05.500,MoralCondition_v2,2022.2.5,59.96314664998336,
10,0,10,0,6,0,6,0,,,,,,,,,,,,,,,,,,,,,,,,,,,,,,,,,,,,,,,,,,,,,,,,,,735.4522618000001,735.4522618000001,0.006742300000041723,0.13225409999995463,7.0,2.426908200000071,,,,,,,,,,,1902,Moral,2024-07-18_11h28.05.500,MoralCondition_v2,2022.2.5,59.96314664998336,
10,0,10,0,,,,,,,,,,,,,,,,,,,,,,,,,,,,,,,,,,,,,,,,,,,,,,,,,,,,,,,,,,,,737.9189445000002,737.9189445000002,0.00048549999974056846,0.132423099999869,2.0,6.799888599999576,,,,,1902,Moral,2024-07-18_11h28.05.500,MoralCondition_v2,2022.2.5,59.96314664998336,
11,0,11,0,0,0,0,0,,,,,,,,,,,,,,,,,,,,744.7522317000003,0.00012169999990874203,0.11568410000018048,5.99907070000063,750.7521513000002,750.9355053999998,750.9355053999998,0.07881710000037856,0.21582060000037018,6.015713599999799,757.0521734000004,757.0521734000004,757.0521734000004,0.08818619999965449,0.2323432999992292,762.7854705,762.9521884000005,5.999062999999296,6.13243969999985,768.9853811000003,12.032318599999599,769.0686818000004,769.0686818000004,0.032412299999123206,0.13226009999925736,up,0.43690049999986513,769.5521009000004,1.9600000086938962e-05,0.1157602000002953,775.5686547000005,775.5686547000005,0.02285089999986667,0.14548130000002857,4.0,5.977488499999708,,,,,,,6.0991201000006185,,,,1902,Moral,2024-07-18_11h28.05.500,MoralCondition_v2,2022.2.5,59.96314664998336,
11,0,11,0,1,0,1,0,,,,,,,,,,,,,,,,,,,,,,,,,,,,,,,,,,,,,,,,,,,,,,,,,,781.5853944999999,781.5853944999999,0.006029299999681825,0.13212969999949564,2.0,2.1272454999998445,,,,,,,,,,,1902,Moral,2024-07-18_11h28.05.500,MoralCondition_v2,2022.2.5,59.96314664998336,
11,0,11,0,2,0,2,0,,,,,,,,,,,,,,,,,,,,,,,,,,,,,,,,,,,,,,,,,,,,,,,,,,783.7522164000002,783.7522164000002,0.006568299999344163,0.13227829999959795,6.0,2.6268095000004905,,,,,,,,,,,1902,Moral,2024-07-18_11h28.05.500,MoralCondition_v2,2022.2.5,59.96314664998336,
11,0,11,0,3,0,3,0,,,,,,,,,,,,,,,,,,,,,,,,,,,,,,,,,,,,,,,,,,,,,,,,,,786.4187035000004,786.4187035000004,0.005726000000322529,0.13239380000050005,1.0,2.561080600000423,,,,,,,,,,,1902,Moral,2024-07-18_11h28.05.500,MoralCondition_v2,2022.2.5,59.96314664998336,
11,0,11,0,4,0,4,0,,,,,,,,,,,,,,,,,,,,,,,,,,,,,,,,,,,,,,,,,,,,,,,,,,789.0186506999999,789.0186506999999,0.006339300000036019,0.1325213000000076,1.0,0.827303000000029,,,,,,,,,,,1902,Moral,2024-07-18_11h28.05.500,MoralCondition_v2,2022.2.5,59.96314664998336,
11,0,11,0,5,0,5,0,,,,,,,,,,,,,,,,,,,,,,,,,,,,,,,,,,,,,,,,,,,,,,,,,,789.8853617000004,789.8853617000004,0.006840500000180327,0.1323459000004732,2.0,2.3932598999999755,,,,,,,,,,,1902,Moral,2024-07-18_11h28.05.500,MoralCondition_v2,2022.2.5,59.96314664998336,
11,0,11,0,6,0,6,0,,,,,,,,,,,,,,,,,,,,,,,,,,,,,,,,,,,,,,,,,,,,,,,,,,792.3186771999999,792.3186771999999,0.006611200000406825,0.1322864000003392,2.0,1.7934605000000374,,,,,,,,,,,1902,Moral,2024-07-18_11h28.05.500,MoralCondition_v2,2022.2.5,59.96314664998336,
11,0,11,0,,,,,,,,,,,,,,,,,,,,,,,,,,,,,,,,,,,,,,,,,,,,,,,,,,,,,,,,,,,,794.1519377000004,794.1519377000004,0.00048800000058690784,0.13248790000034205,7.0,3.3333549000008134,,,,,1902,Moral,2024-07-18_11h28.05.500,MoralCondition_v2,2022.2.5,59.96314664998336,
12,0,12,0,0,0,0,0,,,,,,,,,,,,,,,,,,,,797.5186946000003,0.00010110000039276201,0.11563750000004802,6.015601000000061,803.5185055000002,803.6982066999999,803.6982066999999,0.08446319999984553,0.21571659999972326,6.015578900000037,809.8019052999998,809.8019052999998,809.8019052999998,0.07722439999906783,0.21553409999978612,815.5351833000004,815.7351890999998,6.015511999999035,6.1488290999996025,821.7684580000005,12.015463799999452,821.8184221000001,821.8184221000001,0.015529599999354105,0.11542869999902905,down,1.8878378999988854,823.7518456999996,1.5100000382517464e-05,0.12890870000046561,829.7684489000003,829.7684489000003,0.023035100000015518,0.1492290000005596,4.0,4.227536200000031,,,,,,,,,,,1902,Moral,2024-07-18_11h28.05.500,MoralCondition_v2,2022.2.5,59.96314664998336,
12,0,12,0,1,0,1,0,,,,,,,,,,,,,,,,,,,,,,,,,,,,,,,,,,,,,,,,,,,,,,,,,,834.0350802000003,834.0350802000003,0.006507500000225264,0.13239270000030956,2.0,2.0273018999996566,,,,,,,,,,,1902,Moral,2024-07-18_11h28.05.500,MoralCondition_v2,2022.2.5,59.96314664998336,
12,0,12,0,2,0,2,0,,,,,,,,,,,,,,,,,,,,,,,,,,,,,,,,,,,,,,,,,,,,,,,,,,836.1017155999998,836.1017155999998,0.0061927999995532446,0.1326546000000235,2.0,6.2275137000006,,,,,,,,,,,1902,Moral,2024-07-18_11h28.05.500,MoralCondition_v2,2022.2.5,59.96314664998336,
12,0,12,0,3,0,3,0,,,,,,,,,,,,,,,,,,,,,,,,,,,,,,,,,,,,,,,,,,,,,,,,,,842.3683321999997,842.3683321999997,0.007049499999993714,0.13214940000034403,7.0,4.959493999999722,,,,,,,,,,,1902,Moral,2024-07-18_11h28.05.500,MoralCondition_v2,2022.2.5,59.96314664998336,
12,0,12,0,4,0,4,0,,,,,,,,,,,,,,,,,,,,,,,,,,,,,,,,,,,,,,,,,,,,,,,,,,847.3683178000001,847.3683178000001,0.006979499999943073,0.132372299999588,3.0,3.3597491000000446,,,,,,,,,,,1902,Moral,2024-07-18_11h28.05.500,MoralCondition_v2,2022.2.5,59.96314664998336,
12,0,12,0,5,0,5,0,,,,,,,,,,,,,,,,,,,,,,,,,,,,,,,,,,,,,,,,,,,,,,,,,,850.7682626000005,850.7682626000005,0.006953600000088045,0.1322239000000991,7.0,2.060085500000241,,,,,,,,,,,1902,Moral,2024-07-18_11h28.05.500,MoralCondition_v2,2022.2.5,59.96314664998336,
12,0,12,0,6,0,6,0,,,,,,,,,,,,,,,,,,,,,,,,,,,,,,,,,,,,,,,,,,,,,,,,,,852.8682913000002,852.8682913000002,0.006353200000376091,0.13238379999984318,5.0,1.8269602000000305,,,,,,,,,,,1902,Moral,2024-07-18_11h28.05.500,MoralCondition_v2,2022.2.5,59.96314664998336,
12,0,12,0,,,,,,,,,,,,,,,,,,,,,,,,,,,,,,,,,,,,,,,,,,,,,,,,,,,,,,,,,,,,854.7351023000001,854.7351023000001,0.0004423000000315369,0.13245280000046478,2.0,5.333234900000207,,,,,1902,Moral,2024-07-18_11h28.05.500,MoralCondition_v2,2022.2.5,59.96314664998336,
13,0,13,0,0,0,0,0,,,,,,,,,,,,,,,,,,,,860.1016459000002,9.749999935593223e-05,0.1157880999999179,6.0157116000000315,866.1015009000002,866.2812998999998,866.2812998999998,0.07906549999916024,0.195390399999269,5.999050699999316,872.3848925000002,872.3848925000002,872.3848925000002,0.07659519999924669,0.2158555999985765,878.1181581999999,878.2848276000004,6.015707799999291,6.1490603999991436,884.3181894999998,12.015697399999226,884.4014695000005,884.4014695000005,0.015777999998135783,0.11567289999857167,up,1.248515999999654,885.6811306999998,1.5700000403739978e-05,0.10279150000042137,891.7013785999998,891.7013785999998,0.010236400000394497,0.13252280000051542,4.0,5.010509300000194,,,,,,,,872.2848304999998,872.2848304999998,,1902,Moral,2024-07-18_11h28.05.500,MoralCondition_v2,2022.2.5,59.96314664998336,
13,0,13,0,1,0,1,0,,,,,,,,,,,,,,,,,,,,,,,,,,,,,,,,,,,,,,,,,,,,,,,,,,896.7513589,896.7513589,0.007264799999575189,0.13237289999960922,1.0,2.4596190000002025,,,,,,,,,,,1902,Moral,2024-07-18_11h28.05.500,MoralCondition_v2,2022.2.5,59.96314664998336,
13,0,13,0,2,0,2,0,,,,,,,,,,,,,,,,,,,,,,,,,,,,,,,,,,,,,,,,,,,,,,,,,,899.2513352000005,899.2513352000005,0.006591500000467931,0.13243360000069515,1.0,2.4270841999996264,,,,,,,,,,,1902,Moral,2024-07-18_11h28.05.500,MoralCondition_v2,2022.2.5,59.96314664998336,
13,0,13,0,3,0,3,0,,,,,,,,,,,,,,,,,,,,,,,,,,,,,,,,,,,,,,,,,,,,,,,,,,901.7180433000003,901.7180433000003,0.005835100000695093,0.13251650000074733,2.0,6.027839199999107,,,,,,,,,,,1902,Moral,2024-07-18_11h28.05.500,MoralCondition_v2,2022.2.5,59.96314664998336,
13,0,13,0,4,0,4,0,,,,,,,,,,,,,,,,,,,,,,,,,,,,,,,,,,,,,,,,,,,,,,,,,,907.7847996,907.7847996,0.006111799999416689,0.1322056999997585,2.0,2.593746600000486,,,,,,,,,,,1902,Moral,2024-07-18_11h28.05.500,MoralCondition_v2,2022.2.5,59.96314664998336,
13,0,13,0,5,0,5,0,,,,,,,,,,,,,,,,,,,,,,,,,,,,,,,,,,,,,,,,,,,,,,,,,,910.4180950999998,910.4180950999998,0.00564699999995355,0.13241170000037528,6.0,4.827719999999317,,,,,,,,,,,1902,Moral,2024-07-18_11h28.05.500,MoralCondition_v2,2022.2.5,59.96314664998336,
13,0,13,0,6,0,6,0,,,,,,,,,,,,,,,,,,,,,,,,,,,,,,,,,,,,,,,,,,,,,,,,,,915.2847539000004,915.2847539000004,0.006157099999654747,0.1322680000002947,2.0,2.5608993000005285,,,,,,,,,,,1902,Moral,2024-07-18_11h28.05.500,MoralCondition_v2,2022.2.5,59.96314664998336,
13,0,13,0,,,,,,,,,,,,,,,,,,,,,,,,,,,,,,,,,,,,,,,,,,,,,,,,,,,,,,,,,,,,917.8846124000002,917.8846124000002,0.0005040999994889717,0.13238490000003367,7.0,2.166216199999326,,,,,1902,Moral,2024-07-18_11h28.05.500,MoralCondition_v2,2022.2.5,59.96314664998336,
14,0,14,0,0,0,0,0,,,,,,,,,,,,,,,,,,,,920.0845930000005,0.00014860000010230578,0.11570889999984502,6.01562340000055,926.0845036000001,926.2642871999997,926.2642871999997,0.07422820000010688,0.21566040000016073,6.015611199999512,932.3679309999998,932.3679309999998,932.3679309999998,0.07337299999926472,0.21559099999922182,938.1012084000004,938.3011899000003,6.015632299999197,6.148981599999388,944.3345803000002,12.015764599999784,944.3844062999997,944.3844062999997,0.015651199999410892,0.11550729999908071,up,2.2651984999993147,946.6844733999997,1.2700000297627412e-05,0.11590119999982562,952.7011504000002,952.7011504000002,0.023013799999716866,0.14926230000037322,1.0,3.0940874999996595,,,,,,,,,,,1902,Moral,2024-07-18_11h28.05.500,MoralCondition_v2,2022.2.5,59.96314664998336,
14,0,14,0,1,0,1,0,,,,,,,,,,,,,,,,,,,,,,,,,,,,,,,,,,,,,,,,,,,,,,,,,,955.8344513000002,955.8344513000002,0.005991099999846483,0.13237600000047678,6.0,2.0610795000002327,,,,,,,,,,,1902,Moral,2024-07-18_11h28.05.500,MoralCondition_v2,2022.2.5,59.96314664998336,
14,0,14,0,2,0,2,0,,,,,,,,,,,,,,,,,,,,,,,,,,,,,,,,,,,,,,,,,,,,,,,,,,957.9343588000002,957.9343588000002,0.0068745999997190665,0.1324824000002991,2.0,2.8934276999998474,,,,,,,,,,,1902,Moral,2024-07-18_11h28.05.500,MoralCondition_v2,2022.2.5,59.96314664998336,
14,0,14,0,3,0,3,0,,,,,,,,,,,,,,,,,,,,,,,,,,,,,,,,,,,,,,,,,,,,,,,,,,960.8677434000001,960.8677434000001,0.006420299999263079,0.13255609999941953,1.0,1.794053100000383,,,,,,,,,,,1902,Moral,2024-07-18_11h28.05.500,MoralCondition_v2,2022.2.5,59.96314664998336,
14,0,14,0,4,0,4,0,,,,,,,,,,,,,,,,,,,,,,,,,,,,,,,,,,,,,,,,,,,,,,,,,,962.7010184000001,962.7010184000001,0.006825200000093901,0.1326376999995773,2.0,2.560291099999631,,,,,,,,,,,1902,Moral,2024-07-18_11h28.05.500,MoralCondition_v2,2022.2.5,59.96314664998336,
14,0,14,0,5,0,5,0,,,,,,,,,,,,,,,,,,,,,,,,,,,,,,,,,,,,,,,,,,,,,,,,,,965.3010347999998,965.3010347999998,0.006026299999575713,0.13231479999922158,2.0,1.49425760000031,,,,,,,,,,,1902,Moral,2024-07-18_11h28.05.500,MoralCondition_v2,2022.2.5,59.96314664998336,
14,0,14,0,6,0,6,0,,,,,,,,,,,,,,,,,,,,,,,,,,,,,,,,,,,,,,,,,,,,,,,,,,966.8343086000004,966.8343086000004,0.007012300000496907,0.13245499999993626,4.0,2.126646499999879,,,,,,,,,,,1902,Moral,2024-07-18_11h28.05.500,MoralCondition_v2,2022.2.5,59.96314664998336,
14,0,14,0,,,,,,,,,,,,,,,,,,,,,,,,,,,,,,,,,,,,,,,,,,,,,,,,,,,,,,,,,,,,969.0011030000005,969.0011030000005,0.0004574000004140544,0.13248180000027787,7.0,4.166598000000704,,,,,1902,Moral,2024-07-18_11h28.05.500,MoralCondition_v2,2022.2.5,59.96314664998336,
15,0,15,0,0,0,0,0,,,,,,,,,,,,,,,,,,,,973.2009549000004,0.00012680000054388074,0.11568420000003243,5.999208300000646,979.2010373000003,979.4343196,979.4343196,0.12658180000016728,0.265726700000414,6.0156888999999865,985.4843318000003,985.4843318000003,985.4843318000003,0.07876339999984339,0.21565479999935633,991.2176544000004,991.4176895,6.0156758999992235,6.149120299999595,997.4508802999999,12.015613900000062,997.5008218000003,997.5008218000003,0.01570249999895168,0.1156035999993037,up,0.8615775999996913,998.4008734999998,1.4199999895936344e-05,0.11570639999990817,1004.4174714999999,1004.4174714999999,0.022864700000354787,0.14908960000047955,6.0,4.094094900000528,,,,,,,6.099025299999994,,,,1902,Moral,2024-07-18_11h28.05.500,MoralCondition_v2,2022.2.5,59.96314664998336,
15,0,15,0,1,0,1,0,,,,,,,,,,,,,,,,,,,,,,,,,,,,,,,,,,,,,,,,,,,,,,,,,,1008.550757,1008.550757,0.007076699999743141,0.13234089999969,2.0,1.7263646000001245,,,,,,,,,,,1902,Moral,2024-07-18_11h28.05.500,MoralCondition_v2,2022.2.5,59.96314664998336,
15,0,15,0,2,0,2,0,,,,,,,,,,,,,,,,,,,,,,,,,,,,,,,,,,,,,,,,,,,,,,,,,,1010.3174449999997,1010.3174449999997,0.007032299999991665,0.13229860000046756,1.0,1.1929903999998714,,,,,,,,,,,1902,Moral,2024-07-18_11h28.05.500,MoralCondition_v2,2022.2.5,59.96314664998336,
15,0,15,0,3,0,3,0,,,,,,,,,,,,,,,,,,,,,,,,,,,,,,,,,,,,,,,,,,,,,,,,,,1011.5508320999998,1011.5508320999998,0.007330200000069453,0.13217619999977614,2.0,2.1259759000004124,,,,,,,,,,,1902,Moral,2024-07-18_11h28.05.500,MoralCondition_v2,2022.2.5,59.96314664998336,
15,0,15,0,4,0,4,0,,,,,,,,,,,,,,,,,,,,,,,,,,,,,,,,,,,,,,,,,,,,,,,,,,1013.7175008000004,1013.7175008000004,0.0067347000003792346,0.13213810000070225,2.0,1.159819499999685,,,,,,,,,,,1902,Moral,2024-07-18_11h28.05.500,MoralCondition_v2,2022.2.5,59.96314664998336,
15,0,15,0,5,0,5,0,,,,,,,,,,,,,,,,,,,,,,,,,,,,,,,,,,,,,,,,,,,,,,,,,,1014.9174559000003,1014.9174559000003,0.007175600000664417,0.13214180000068154,1.0,1.0260363999996116,,,,,,,,,,,1902,Moral,2024-07-18_11h28.05.500,MoralCondition_v2,2022.2.5,59.96314664998336,
15,0,15,0,6,0,6,0,,,,,,,,,,,,,,,,,,,,,,,,,,,,,,,,,,,,,,,,,,,,,,,,,,1015.9840992,1015.9840992,0.0062385000001086155,0.13237759999992704,4.0,1.6270379999996294,,,,,,,,,,,1902,Moral,2024-07-18_11h28.05.500,MoralCondition_v2,2022.2.5,59.96314664998336,
15,0,15,0,,,,,,,,,,,,,,,,,,,,,,,,,,,,,,,,,,,,,,,,,,,,,,,,,,,,,,,,,,,,1017.6507667000005,1017.6507667000005,0.00047540000014123507,0.13248360000034154,7.0,6.09977760000038,,,,,1902,Moral,2024-07-18_11h28.05.500,MoralCondition_v2,2022.2.5,59.96314664998336,
16,0,16,0,0,0,0,0,,,,,,,,,,,,,,,,,,,,1023.7840341000001,9.970000064640772e-05,0.11572620000060851,6.015653999999813,1029.7840378,1029.9673344000003,1029.9673344000003,0.0742737999999008,0.2158276999998634,6.0157061999998405,1036.0673717,1036.0673717,1036.0673717,0.08081019999917771,0.21578449999924487,1041.8006635000002,1042.0006289000003,6.0157548999995925,6.148961699999745,1048.0339850999999,12.015739499999654,1048.0839674999997,1048.0839674999997,0.01574359999904118,0.11568559999886929,up,2.5496551999995063,1050.6636625,1.4100000043981709e-05,0.10307890000058251,1056.6838460999998,1056.6838460999998,0.01092490000064572,0.13639520000015182,3.0,2.9600391999993008,,,,,,,,,,,1902,Moral,2024-07-18_11h28.05.500,MoralCondition_v2,2022.2.5,59.96314664998336,
16,0,16,0,1,0,1,0,,,,,,,,,,,,,,,,,,,,,,,,,,,,,,,,,,,,,,,,,,,,,,,,,,1059.6839433000005,1059.6839433000005,0.007722000000285334,0.1321311000001515,3.0,6.592053800000031,,,,,,,,,,,1902,Moral,2024-07-18_11h28.05.500,MoralCondition_v2,2022.2.5,59.96314664998336,
16,0,16,0,2,0,2,0,,,,,,,,,,,,,,,,,,,,,,,,,,,,,,,,,,,,,,,,,,,,,,,,,,1066.3171367000004,1066.3171367000004,0.0070587000000159605,0.13224330000048212,3.0,1.559419600000183,,,,,,,,,,,1902,Moral,2024-07-18_11h28.05.500,MoralCondition_v2,2022.2.5,59.96314664998336,
16,0,16,0,3,0,3,0,,,,,,,,,,,,,,,,,,,,,,,,,,,,,,,,,,,,,,,,,,,,,,,,,,1067.917112,1067.917112,0.006899300000441144,0.13241389999984676,3.0,2.4934493999999177,,,,,,,,,,,1902,Moral,2024-07-18_11h28.05.500,MoralCondition_v2,2022.2.5,59.96314664998336,
16,0,16,0,4,0,4,0,,,,,,,,,,,,,,,,,,,,,,,,,,,,,,,,,,,,,,,,,,,,,,,,,,1070.4504357000005,1070.4504357000005,0.006445799999710289,0.1325563999998849,3.0,5.060762299999624,,,,,,,,,,,1902,Moral,2024-07-18_11h28.05.500,MoralCondition_v2,2022.2.5,59.96314664998336,
16,0,16,0,5,0,5,0,,,,,,,,,,,,,,,,,,,,,,,,,,,,,,,,,,,,,,,,,,,,,,,,,,1075.5504540000002,1075.5504540000002,0.00671760000022914,0.13251039999977365,5.0,3.793425599999864,,,,,,,,,,,1902,Moral,2024-07-18_11h28.05.500,MoralCondition_v2,2022.2.5,59.96314664998336,
16,0,16,0,6,0,6,0,,,,,,,,,,,,,,,,,,,,,,,,,,,,,,,,,,,,,,,,,,,,,,,,,,1079.3838119000002,1079.3838119000002,0.006377900000188674,0.13253250000070693,5.0,2.327310900000157,,,,,,,,,,,1902,Moral,2024-07-18_11h28.05.500,MoralCondition_v2,2022.2.5,59.96314664998336,
16,0,16,0,,,,,,,,,,,,,,,,,,,,,,,,,,,,,,,,,,,,,,,,,,,,,,,,,,,,,,,,,,,,1081.7504864000002,1081.7504864000002,0.0007070000001476728,0.13231900000027963,3.0,5.766425700000582,,,,,1902,Moral,2024-07-18_11h28.05.500,MoralCondition_v2,2022.2.5,59.96314664998336,
17,0,17,0,0,0,0,0,,,,,,,,,,,,,,,,,,,,1087.5504369999999,0.00012949999927514,0.11555459999999584,6.011929499999496,1093.5633201,1093.7337404,1093.7337404,0.07942269999966811,0.21559759999945527,6.015591999998833,1099.8337087999998,1099.8337087999998,1099.8337087999998,0.07341279999855033,0.2157599999991362,1105.5670817999999,1105.7669563999998,6.015535199999249,6.148956199998793,1111.8002813000003,12.015498099998695,1111.8501671000004,1111.8501671000004,0.015587199998662982,0.11557899999843357,down,1.0000005000001693,1112.8836297999997,1.9299999621580355e-05,0.12874730000021373,1118.9002043,1118.9002043,0.023476899999877787,0.14910969999982626,6.0,7.659926799999994,,,,,,,,,,,1902,Moral,2024-07-18_11h28.05.500,MoralCondition_v2,2022.2.5,59.96314664998336,
17,0,17,0,1,0,1,0,,,,,,,,,,,,,,,,,,,,,,,,,,,,,,,,,,,,,,,,,,,,,,,,,,1126.6001102,1126.6001102,0.006279400000494206,0.13261450000027253,2.0,2.727467699999579,,,,,,,,,,,1902,Moral,2024-07-18_11h28.05.500,MoralCondition_v2,2022.2.5,59.96314664998336,
17,0,17,0,2,0,2,0,,,,,,,,,,,,,,,,,,,,,,,,,,,,,,,,,,,,,,,,,,,,,,,,,,1129.3667887000001,1129.3667887000001,0.006684900000436755,0.13258519999999407,2.0,3.4603752000002714,,,,,,,,,,,1902,Moral,2024-07-18_11h28.05.500,MoralCondition_v2,2022.2.5,59.96314664998336,
17,0,17,0,3,0,3,0,,,,,,,,,,,,,,,,,,,,,,,,,,,,,,,,,,,,,,,,,,,,,,,,,,1132.8667421,1132.8667421,0.006164000000353553,0.1322706000000835,5.0,2.860884600000645,,,,,,,,,,,1902,Moral,2024-07-18_11h28.05.500,MoralCondition_v2,2022.2.5,59.96314664998336,
17,0,17,0,4,0,4,0,,,,,,,,,,,,,,,,,,,,,,,,,,,,,,,,,,,,,,,,,,,,,,,,,,1135.7667927000002,1135.7667927000002,0.006267700000535115,0.13231360000008863,4.0,3.76057050000054,,,,,,,,,,,1902,Moral,2024-07-18_11h28.05.500,MoralCondition_v2,2022.2.5,59.96314664998336,
17,0,17,0,5,0,5,0,,,,,,,,,,,,,,,,,,,,,,,,,,,,,,,,,,,,,,,,,,,,,,,,,,1139.5667086000003,1139.5667086000003,0.006257799999730196,0.1323218999996243,6.0,2.127021400000558,,,,,,,,,,,1902,Moral,2024-07-18_11h28.05.500,MoralCondition_v2,2022.2.5,59.96314664998336,
17,0,17,0,6,0,6,0,,,,,,,,,,,,,,,,,,,,,,,,,,,,,,,,,,,,,,,,,,,,,,,,,,1141.7333991000005,1141.7333991000005,0.006599800000003597,0.1324586000000636,6.0,2.693930899999941,,,,,,,,,,,1902,Moral,2024-07-18_11h28.05.500,MoralCondition_v2,2022.2.5,59.96314664998336,
17,0,17,0,,,,,,,,,,,,,,,,,,,,,,,,,,,,,,,,,,,,,,,,,,,,,,,,,,,,,,,,,,,,1144.4667255000004,1144.4667255000004,0.0007453999996869243,0.13222729999961302,2.0,3.733000600000196,,,,,1902,Moral,2024-07-18_11h28.05.500,MoralCondition_v2,2022.2.5,59.96314664998336,
18,0,18,0,0,0,0,0,,,,,,,,,,,,,,,,,,,,1148.2334487999997,0.0001560000000608852,0.11564559999987978,6.01563729999998,1154.2332788000003,1154.4296836000003,1154.4296836000003,0.08290109999961714,0.23234409999895433,5.999023199999101,1160.533434,1160.533434,1160.533434,0.09396239999932732,0.23238409999885334,1166.2666329000003,1166.4333207999998,6.032378599998992,6.165588999999272,1172.4667141,12.032315299999027,1172.5499101000005,1172.5499101000005,0.03235399999903166,0.13220209999872168,up,3.8039152000001195,1176.3795525000005,1.3500000022759195e-05,0.10304870000072697,1182.3999352,1182.3999352,0.009470700000747456,0.13631920000079845,5.0,9.127806700000292,,,,,,,,,,,1902,Moral,2024-07-18_11h28.05.500,MoralCondition_v2,2022.2.5,59.96314664998336,
18,0,18,0,1,0,1,0,,,,,,,,,,,,,,,,,,,,,,,,,,,,,,,,,,,,,,,,,,,,,,,,,,1191.5664696000003,1191.5664696000003,0.006657199999608565,0.13210509999953501,4.0,7.0268565000005765,,,,,,,,,,,1902,Moral,2024-07-18_11h28.05.500,MoralCondition_v2,2022.2.5,59.96314664998336,
18,0,18,0,2,0,2,0,,,,,,,,,,,,,,,,,,,,,,,,,,,,,,,,,,,,,,,,,,,,,,,,,,1198.6330346000004,1198.6330346000004,0.007385400000202935,0.13236640000013722,5.0,5.059643100000358,,,,,,,,,,,1902,Moral,2024-07-18_11h28.05.500,MoralCondition_v2,2022.2.5,59.96314664998336,
18,0,18,0,3,0,3,0,,,,,,,,,,,,,,,,,,,,,,,,,,,,,,,,,,,,,,,,,,,,,,,,,,1203.7331144999998,1203.7331144999998,0.006192599999849335,0.13221269999939977,5.0,2.193873999999596,,,,,,,,,,,1902,Moral,2024-07-18_11h28.05.500,MoralCondition_v2,2022.2.5,59.96314664998336,
18,0,18,0,4,0,4,0,,,,,,,,,,,,,,,,,,,,,,,,,,,,,,,,,,,,,,,,,,,,,,,,,,1205.9664100999998,1205.9664100999998,0.0073391000005358364,0.1325395000003482,2.0,1.6598294000004898,,,,,,,,,,,1902,Moral,2024-07-18_11h28.05.500,MoralCondition_v2,2022.2.5,59.96314664998336,
18,0,18,0,5,0,5,0,,,,,,,,,,,,,,,,,,,,,,,,,,,,,,,,,,,,,,,,,,,,,,,,,,1207.6663708000005,1207.6663708000005,0.006397000000106345,0.13220369999999093,2.0,1.0271610999998302,,,,,,,,,,,1902,Moral,2024-07-18_11h28.05.500,MoralCondition_v2,2022.2.5,59.96314664998336,
18,0,18,0,6,0,6,0,,,,,,,,,,,,,,,,,,,,,,,,,,,,,,,,,,,,,,,,,,,,,,,,,,1208.7329986000004,1208.7329986000004,0.006919499999639811,0.13245069999993575,3.0,5.9599099999995815,,,,,,,,,,,1902,Moral,2024-07-18_11h28.05.500,MoralCondition_v2,2022.2.5,59.96314664998336,
18,0,18,0,,,,,,,,,,,,,,,,,,,,,,,,,,,,,,,,,,,,,,,,,,,,,,,,,,,,,,,,,,,,1214.7330609,1214.7330609,0.0007359000001088134,0.13231050000013056,3.0,6.132846499999687,,,,,1902,Moral,2024-07-18_11h28.05.500,MoralCondition_v2,2022.2.5,59.96314664998336,
19,0,19,0,0,0,0,0,,,,,,,,,,,,,,,,,,,,1220.8997169000004,0.00012239999978191918,0.11582709999947838,5.99912889999996,1226.899555,1227.1163582,1227.1163582,0.10833509999974922,0.24914929999977176,6.015792299999703,1233.1995661,1233.1995661,1233.1995661,0.08680299999923591,0.23241789999883622,1238.9329305,1239.0996254000001,5.999068199998874,6.132429699999193,1245.1328448000004,11.999113699998816,1245.2162011,1245.2162011,0.03258519999872078,0.1322833999984141,down,0.897869599999467,1246.1495229000002,1.4299999747890979e-05,0.1159840999998778,1252.166169,1252.166169,0.0227935000002617,0.14932109999972454,5.0,9.960946700000022,,,,,,,6.099075600000106,,,,1902,Moral,2024-07-18_11h28.05.500,MoralCondition_v2,2022.2.5,59.96314664998336,
19,0,19,0,1,0,1,0,,,,,,,,,,,,,,,,,,,,,,,,,,,,,,,,,,,,,,,,,,,,,,,,,,1262.1661065999997,1262.1661065999997,0.006038399999852118,0.13221290000001318,3.0,3.4940902000007554,,,,,,,,,,,1902,Moral,2024-07-18_11h28.05.500,MoralCondition_v2,2022.2.5,59.96314664998336,
19,0,19,0,2,0,2,0,,,,,,,,,,,,,,,,,,,,,,,,,,,,,,,,,,,,,,,,,,,,,,,,,,1265.6994252000004,1265.6994252000004,0.006949399999939487,0.13239119999980176,7.0,3.16003019999971,,,,,,,,,,,1902,Moral,2024-07-18_11h28.05.500,MoralCondition_v2,2022.2.5,59.96314664998336,
19,0,19,0,3,0,3,0,,,,,,,,,,,,,,,,,,,,,,,,,,,,,,,,,,,,,,,,,,,,,,,,,,1268.8993867,1268.8993867,0.006558500000210188,0.13236760000017966,2.0,2.427050799999961,,,,,,,,,,,1902,Moral,2024-07-18_11h28.05.500,MoralCondition_v2,2022.2.5,59.96314664998336,
19,0,19,0,4,0,4,0,,,,,,,,,,,,,,,,,,,,,,,,,,,,,,,,,,,,,,,,,,,,,,,,,,1271.3659998000003,1271.3659998000003,0.007830900000044494,0.13218049999977666,5.0,1.9921807999999146,,,,,,,,,,,1902,Moral,2024-07-18_11h28.05.500,MoralCondition_v2,2022.2.5,59.96314664998336,
19,0,19,0,5,0,5,0,,,,,,,,,,,,,,,,,,,,,,,,,,,,,,,,,,,,,,,,,,,,,,,,,,1273.3993483000004,1273.3993483000004,0.006516699999338016,0.1323655999995026,2.0,1.627115700000104,,,,,,,,,,,1902,Moral,2024-07-18_11h28.05.500,MoralCondition_v2,2022.2.5,59.96314664998336,
19,0,19,0,6,0,6,0,,,,,,,,,,,,,,,,,,,,,,,,,,,,,,,,,,,,,,,,,,,,,,,,,,1275.0659876999998,1275.0659876999998,0.007104700000127195,0.1322675999999774,7.0,3.693146199999319,,,,,,,,,,,1902,Moral,2024-07-18_11h28.05.500,MoralCondition_v2,2022.2.5,59.96314664998336,
19,0,19,0,,,,,,,,,,,,,,,,,,,,,,,,,,,,,,,,,,,,,,,,,,,,,,,,,,,,,,,,,,,,1278.7993099000005,1278.7993099000005,0.0006918999997651554,0.1323341999996046,1.0,2.8995537000000695,,,,,1902,Moral,2024-07-18_11h28.05.500,MoralCondition_v2,2022.2.5,59.96314664998336,
