loop.thisRepN,loop.thisTrialN,loop.thisN,loop.thisIndex,evaluate_all_emotions.thisRepN,evaluate_all_emotions.thisTrialN,evaluate_all_emotions.thisN,evaluate_all_emotions.thisIndex,sync_beep_1.started,p_port.started,p_port.stopped,sync_beep_2.started,sync_beep_2.stopped,sync_beep_3.started,sync_beep_3.stopped,sync_beep_4.started,sync_beep_4.stopped,baseline.started,p_port_2.started,p_port_2.stopped,baseline.stopped,p_port_3.started,Game_Start_Text.started,p_port_4.started,p_port_4.stopped,key_resp.started,key_resp.keys,key_resp.rt,fixation_cross.started,p_port_5.started,p_port_5.stopped,fixation_cross.stopped,p_port_6.started,p_port_6.stopped,player_image_intro.started,player_name_intro.started,p_port_7.started,p_port_7.stopped,p_port_8.started,p_port_8.stopped,player_image_offer.started,player_name_offer.started,proposed_split.started,p_port_9.started,p_port_9.stopped,proposed_split.stopped,accept_reject.started,p_port_15.started,p_port_15.stopped,accept_reject.stopped,p_port_10.started,arrow_instructions.started,offer_choice.started,p_port_11.started,p_port_11.stopped,offer_choice.keys,offer_choice.rt,Instructions_Affinity_Score.started,p_port_12.started,p_port_12.stopped,Instructions_Affinity_Score.stopped,Emotion_Image.started,AffinityScore.started,p_port_13.started,p_port_13.stopped,AffinityScore.response,AffinityScore.rt,Instruction.started,Moral_Disgust_Score.started,p_port_14.started,p_port_14.stopped,Moral_Disgust_Score.response,Moral_Disgust_Score.rt,player_image_offer.stopped,player_name_offer.stopped,p_port_10.stopped,player_image_intro.stopped,player_name_intro.stopped,participant,session,date,expName,psychopyVersion,frameRate,
,,,,,,,,25.062485321052375,0.0008463999256491661,0.11194489989429712,25.659314389992506,25.975722699891776,26.259155190270395,26.55935180000961,26.84249319015071,27.159042300190777,27.159042300190777,0.02878979966044426,0.12895659962669015,42.17597540002316,15.012246599886566,42.27576840016991,0.012355999555438757,0.11221309984102845,42.74250590009615,space,7.459664799738675,,,,,,,,,,,,,,,,,,,,,,,,,,,,,,,,,,,,,,,,,,,,,,,,,,,1981,Moral,2024-08-20_10h43.42.109,MoralCondition_v2,2022.2.5,30.002892272895973,
0,0,0,0,0,0,0,0,,,,,,,,,,,,,,,,,,,,,50.242339100223035,0.014021399896591902,0.09957880014553666,56.24245910020545,5.999719399958849,6.099673800170422,56.47578149987385,56.47578149987385,0.08801009971648455,0.23315700003877282,5.999745999928564,6.099701500032097,62.55903939995915,62.55903939995915,62.55903939995915,0.09073289996013045,0.2164642997086048,68.25916479993612,68.42588450014591,6.016481199767441,6.11637569963932,74.4258083999157,12.016411799937487,74.55914120003581,74.55914120003581,0.016603699885308743,0.1164028998464346,up,1.4883133000694215,76.10918230004609,3.239978104829788e-05,0.09894199995324016,82.12612859997898,82.12612859997898,82.12612859997898,0.008647399954497814,0.11547069996595383,5.0,9.924533999990672,,,,,,,,,,,,1981,Moral,2024-08-20_10h43.42.109,MoralCondition_v2,2022.2.5,30.002892272895973,
0,0,0,0,1,0,1,0,,,,,,,,,,,,,,,,,,,,,,,,,,,,,,,,,,,,,,,,,,,,,,,,,,,,,,92.0757678002119,92.0757678002119,0.00919729983434081,0.09745509969070554,3.0,6.256260300055146,,,,,,,,,,,,1981,Moral,2024-08-20_10h43.42.109,MoralCondition_v2,2022.2.5,30.002892272895973,
0,0,0,0,2,0,2,0,,,,,,,,,,,,,,,,,,,,,,,,,,,,,,,,,,,,,,,,,,,,,,,,,,,,,,98.39290970005095,98.39290970005095,0.01006460003554821,0.11397460009902716,7.0,4.705176299903542,,,,,,,,,,,,1981,Moral,2024-08-20_10h43.42.109,MoralCondition_v2,2022.2.5,30.002892272895973,
0,0,0,0,3,0,3,0,,,,,,,,,,,,,,,,,,,,,,,,,,,,,,,,,,,,,,,,,,,,,,,,,,,,,,103.12580130016431,103.12580130016431,0.00814930023625493,0.09930420015007257,2.0,5.725351399742067,,,,,,,,,,,,1981,Moral,2024-08-20_10h43.42.109,MoralCondition_v2,2022.2.5,30.002892272895973,
0,0,0,0,4,0,4,0,,,,,,,,,,,,,,,,,,,,,,,,,,,,,,,,,,,,,,,,,,,,,,,,,,,,,,108.90941119985655,108.90941119985655,0.009312499780207872,0.11491589993238449,5.0,7.639655400067568,,,,,,,,,,,,1981,Moral,2024-08-20_10h43.42.109,MoralCondition_v2,2022.2.5,30.002892272895973,
0,0,0,0,5,0,5,0,,,,,,,,,,,,,,,,,,,,,,,,,,,,,,,,,,,,,,,,,,,,,,,,,,,,,,116.57583450013772,116.57583450013772,0.009187300223857164,0.09804429998621345,1.0,4.156493499875069,,,,,,,,,,,,1981,Moral,2024-08-20_10h43.42.109,MoralCondition_v2,2022.2.5,30.002892272895973,
0,0,0,0,6,0,6,0,,,,,,,,,,,,,,,,,,,,,,,,,,,,,,,,,,,,,,,,,,,,,,,,,,,,,,120.79237930011004,120.79237930011004,0.009539400227367878,0.11429490009322762,2.0,5.372500900179148,,,,,,,,,,,,1981,Moral,2024-08-20_10h43.42.109,MoralCondition_v2,2022.2.5,30.002892272895973,
0,0,0,0,,,,,,,,,,,,,,,,,,,,,,,,,,,,,,,,,,,,,,,,,,,,,,,,,,,,,,,,,,,,,,,,126.1925351000391,126.1925351000391,0.0017812000587582588,0.09766190033406019,3.0,13.897195299621671,,,,,,1981,Moral,2024-08-20_10h43.42.109,MoralCondition_v2,2022.2.5,30.002892272895973,
1,0,1,0,0,0,0,0,,,,,,,,,,,,,,,,,,,,,140.1260269000195,0.0002711997367441654,0.09820669982582331,146.12580120004714,6.031439999584109,,146.3758622999303,146.3758622999303,0.13568349974229932,0.24817349947988987,6.01472819969058,,152.4091815999709,152.4091815999709,152.4091815999709,0.07163209980353713,0.18139749951660633,158.10942299989983,158.3091368000023,6.01477969950065,6.115079299546778,164.3091302998364,12.014768199529499,164.4425905002281,164.4425905002281,0.015174499712884426,0.11471489956602454,up,2.300256799440831,166.79249030025676,5.010003224015236e-05,0.09790610009804368,172.80912679992616,172.80912679992616,172.80912679992616,0.008776600006967783,0.11478810012340546,3.0,13.1066954000853,,,,,,,164.40913530020043,164.40913530020043,,,,1981,Moral,2024-08-20_10h43.42.109,MoralCondition_v2,2022.2.5,30.002892272895973,
1,0,1,0,1,0,1,0,,,,,,,,,,,,,,,,,,,,,,,,,,,,,,,,,,,,,,,,,,,,,,,,,,,,,,185.94275780022144,185.94275780022144,0.006805300246924162,0.09906980022788048,1.0,4.6610901998355985,,,,,,,,,,,,1981,Moral,2024-08-20_10h43.42.109,MoralCondition_v2,2022.2.5,30.002892272895973,
1,0,1,0,2,0,2,0,,,,,,,,,,,,,,,,,,,,,,,,,,,,,,,,,,,,,,,,,,,,,,,,,,,,,,190.64239350007847,190.64239350007847,0.007471899967640638,0.098097899928689,5.0,4.524782699998468,,,,,,,,,,,,1981,Moral,2024-08-20_10h43.42.109,MoralCondition_v2,2022.2.5,30.002892272895973,
1,0,1,0,3,0,3,0,,,,,,,,,,,,,,,,,,,,,,,,,,,,,,,,,,,,,,,,,,,,,,,,,,,,,,195.2260448001325,195.2260448001325,0.008785000070929527,0.11456359969452024,7.0,2.940488399937749,,,,,,,,,,,,1981,Moral,2024-08-20_10h43.42.109,MoralCondition_v2,2022.2.5,30.002892272895973,
1,0,1,0,4,0,4,0,,,,,,,,,,,,,,,,,,,,,,,,,,,,,,,,,,,,,,,,,,,,,,,,,,,,,,198.2094538002275,198.2094538002275,0.008852199651300907,0.11371849989518523,3.0,4.38914560014382,,,,,,,,,,,,1981,Moral,2024-08-20_10h43.42.109,MoralCondition_v2,2022.2.5,30.002892272895973,
1,0,1,0,5,0,5,0,,,,,,,,,,,,,,,,,,,,,,,,,,,,,,,,,,,,,,,,,,,,,,,,,,,,,,202.62573469989002,202.62573469989002,0.005697400309145451,0.09936780016869307,2.0,2.5116194002330303,,,,,,,,,,,,1981,Moral,2024-08-20_10h43.42.109,MoralCondition_v2,2022.2.5,30.002892272895973,
1,0,1,0,6,0,6,0,,,,,,,,,,,,,,,,,,,,,,,,,,,,,,,,,,,,,,,,,,,,,,,,,,,,,,205.17581439996138,205.17581439996138,0.007307599764317274,0.09750070003792644,5.0,4.991076000034809,,,,,,,,,,,,1981,Moral,2024-08-20_10h43.42.109,MoralCondition_v2,2022.2.5,30.002892272895973,
1,0,1,0,,,,,,,,,,,,,,,,,,,,,,,,,,,,,,,,,,,,,,,,,,,,,,,,,,,,,,,,,,,,,,,,210.20924900006503,210.20924900006503,0.0007608998566865921,0.09888359997421503,3.0,5.199453900102526,,,,,,1981,Moral,2024-08-20_10h43.42.109,MoralCondition_v2,2022.2.5,30.002892272895973,
2,0,2,0,0,0,0,0,,,,,,,,,,,,,,,,,,,,,215.4427797999233,0.00013619987294077873,0.09916159976273775,221.4423438999802,6.015687000006437,6.099000100046396,221.70899310009554,221.70899310009554,0.14791679987683892,0.26596869993954897,5.999152899719775,6.099109099712223,227.74245489994064,227.74245489994064,227.74245489994064,0.09517719969153404,0.19926329981535673,233.4423638000153,233.6091474001296,5.999182699713856,6.099069899413735,239.60912419995293,11.999139699619263,239.74245240027085,239.74245240027085,7.099471986293793e-06,0.0991122997365892,up,0.8883397998288274,240.69243390019983,3.7400051951408386e-05,0.09811370028182864,246.70907460013404,246.70907460013404,246.70907460013404,0.00913539994508028,0.1146619999781251,2.0,8.30666089989245,,,,,,,239.74245240027085,239.74245240027085,12.099063199479133,,,1981,Moral,2024-08-20_10h43.42.109,MoralCondition_v2,2022.2.5,30.002892272895973,
2,0,2,0,1,0,1,0,,,,,,,,,,,,,,,,,,,,,,,,,,,,,,,,,,,,,,,,,,,,,,,,,,,,,,255.04220120003447,255.04220120003447,0.006649199873209,0.09887149976566434,2.0,5.726812300272286,,,,,,,,,,,,1981,Moral,2024-08-20_10h43.42.109,MoralCondition_v2,2022.2.5,30.002892272895973,
2,0,2,0,2,0,2,0,,,,,,,,,,,,,,,,,,,,,,,,,,,,,,,,,,,,,,,,,,,,,,,,,,,,,,260.80918039986864,260.80918039986864,0.007150300312787294,0.09792480012401938,3.0,4.258375599980354,,,,,,,,,,,,1981,Moral,2024-08-20_10h43.42.109,MoralCondition_v2,2022.2.5,30.002892272895973,
2,0,2,0,3,0,3,0,,,,,,,,,,,,,,,,,,,,,,,,,,,,,,,,,,,,,,,,,,,,,,,,,,,,,,265.10885930014774,265.10885930014774,0.007445500232279301,0.09769379999488592,5.0,7.02461909968406,,,,,,,,,,,,1981,Moral,2024-08-20_10h43.42.109,MoralCondition_v2,2022.2.5,30.002892272895973,
2,0,2,0,4,0,4,0,,,,,,,,,,,,,,,,,,,,,,,,,,,,,,,,,,,,,,,,,,,,,,,,,,,,,,272.1923895999789,272.1923895999789,0.010378099977970123,0.11394780036062002,7.0,1.8047013003379107,,,,,,,,,,,,1981,Moral,2024-08-20_10h43.42.109,MoralCondition_v2,2022.2.5,30.002892272895973,
2,0,2,0,5,0,5,0,,,,,,,,,,,,,,,,,,,,,,,,,,,,,,,,,,,,,,,,,,,,,,,,,,,,,,274.02586970012635,274.02586970012635,0.006868400145322084,0.0991793000139296,1.0,6.443619300145656,,,,,,,,,,,,1981,Moral,2024-08-20_10h43.42.109,MoralCondition_v2,2022.2.5,30.002892272895973,
2,0,2,0,6,0,6,0,,,,,,,,,,,,,,,,,,,,,,,,,,,,,,,,,,,,,,,,,,,,,,,,,,,,,,280.50890569994226,280.50890569994226,0.006771100219339132,0.09947750018909574,4.0,3.2267093998380005,,,,,,,,,,,,1981,Moral,2024-08-20_10h43.42.109,MoralCondition_v2,2022.2.5,30.002892272895973,
2,0,2,0,,,,,,,,,,,,,,,,,,,,,,,,,,,,,,,,,,,,,,,,,,,,,,,,,,,,,,,,,,,,,,,,283.77603270020336,283.77603270020336,0.0007211002521216869,0.09939010022208095,3.0,5.099892300087959,,,,,,1981,Moral,2024-08-20_10h43.42.109,MoralCondition_v2,2022.2.5,30.002892272895973,
3,0,3,0,0,0,0,0,,,,,,,,,,,,,,,,,,,,,288.90956890024245,0.000314200296998024,0.09771490003913641,294.9257984999567,6.014230000320822,,295.1426796000451,295.1426796000451,0.11541950004175305,0.23092810017988086,6.030837099999189,,301.2092670998536,301.2092670998536,301.2092670998536,0.08800389990210533,0.19779270002618432,306.90913080004975,307.1090931999497,6.030870399903506,6.131010199896991,313.10901220003143,12.030704599805176,313.2424682001583,313.2424682001583,0.03107289969921112,0.1313430001027882,up,0.4850071994587779,313.7758002001792,3.5999808460474014e-05,0.09867340000346303,,319.79237780021504,319.79237780021504,0.02632070006802678,0.11545239994302392,6.0,3.2568276999518275,,,,,,,313.20912740007043,313.20912740007043,,,,1981,Moral,2024-08-20_10h43.42.109,MoralCondition_v2,2022.2.5,30.002892272895973,
3,0,3,0,1,0,1,0,,,,,,,,,,,,,,,,,,,,,,,,,,,,,,,,,,,,,,,,,,,,,,,,,,,,,,323.092478599865,323.092478599865,0.007369800005108118,0.0975577998906374,1.0,6.32462349999696,,,,,,,,,,,,1981,Moral,2024-08-20_10h43.42.109,MoralCondition_v2,2022.2.5,30.002892272895973,
3,0,3,0,2,0,2,0,,,,,,,,,,,,,,,,,,,,,,,,,,,,,,,,,,,,,,,,,,,,,,,,,,,,,,329.47610320011154,329.47610320011154,0.007897499948740005,0.11443099984899163,1.0,2.274269400164485,,,,,,,,,,,,1981,Moral,2024-08-20_10h43.42.109,MoralCondition_v2,2022.2.5,30.002892272895973,
3,0,3,0,3,0,3,0,,,,,,,,,,,,,,,,,,,,,,,,,,,,,,,,,,,,,,,,,,,,,,,,,,,,,,331.77591500012204,331.77591500012204,0.006643699947744608,0.09917750023305416,1.0,1.8603325001895428,,,,,,,,,,,,1981,Moral,2024-08-20_10h43.42.109,MoralCondition_v2,2022.2.5,30.002892272895973,
3,0,3,0,4,0,4,0,,,,,,,,,,,,,,,,,,,,,,,,,,,,,,,,,,,,,,,,,,,,,,,,,,,,,,333.69251159997657,333.69251159997657,0.008349200244992971,0.11420040018856525,1.0,3.6068096002563834,,,,,,,,,,,,1981,Moral,2024-08-20_10h43.42.109,MoralCondition_v2,2022.2.5,30.002892272895973,
3,0,3,0,5,0,5,0,,,,,,,,,,,,,,,,,,,,,,,,,,,,,,,,,,,,,,,,,,,,,,,,,,,,,,337.32577560003847,337.32577560003847,0.006549099925905466,0.09871129970997572,5.0,3.626695199869573,,,,,,,,,,,,1981,Moral,2024-08-20_10h43.42.109,MoralCondition_v2,2022.2.5,30.002892272895973,
3,0,3,0,6,0,6,0,,,,,,,,,,,,,,,,,,,,,,,,,,,,,,,,,,,,,,,,,,,,,,,,,,,,,,341.0093449000269,341.0093449000269,0.00804589968174696,0.11439180001616478,1.0,3.207210300024599,,,,,,,,,,,,1981,Moral,2024-08-20_10h43.42.109,MoralCondition_v2,2022.2.5,30.002892272895973,
3,0,3,0,,,,,,,,,,,,,,,,,,,,,,,,,,,,,,,,,,,,,,,,,,,,,,,,,,,,,,,,,,,,,,,,344.242506199982,344.242506199982,0.0013529998250305653,0.0979621997103095,7.0,3.864278799854219,,,,,,1981,Moral,2024-08-20_10h43.42.109,MoralCondition_v2,2022.2.5,30.002892272895973,
4,0,4,0,0,0,0,0,,,,,,,,,,,,,,,,,,,,,348.1427579000592,0.00023170001804828644,0.09827450010925531,354.1425429000519,6.031625799834728,,354.3422846002504,354.3422846002504,0.09296880010515451,0.19816000014543533,6.031585399992764,,360.4424549001269,360.4424549001269,360.4424549001269,0.09084860002622008,0.19818409997969866,366.14245739998296,366.3424316998571,6.031518299598247,6.131662999745458,372.34244100004435,12.031562099698931,372.475904900115,372.475904900115,0.031996999867260456,0.13155219983309507,up,0.698826499748975,373.20911600021645,4.08003106713295e-05,0.09753239993005991,,379.2256928002462,379.2256928002462,0.023816999979317188,0.11419180035591125,5.0,4.658154099714011,,,,,,,372.44258509995416,372.44258509995416,,360.34244910022244,360.34244910022244,1981,Moral,2024-08-20_10h43.42.109,MoralCondition_v2,2022.2.5,30.002892272895973,
4,0,4,0,1,0,1,0,,,,,,,,,,,,,,,,,,,,,,,,,,,,,,,,,,,,,,,,,,,,,,,,,,,,,,383.9425130998716,383.9425130998716,0.009979399852454662,0.11417079996317625,1.0,2.971901400014758,,,,,,,,,,,,1981,Moral,2024-08-20_10h43.42.109,MoralCondition_v2,2022.2.5,30.002892272895973,
4,0,4,0,2,0,2,0,,,,,,,,,,,,,,,,,,,,,,,,,,,,,,,,,,,,,,,,,,,,,,,,,,,,,,386.94250669982284,386.94250669982284,0.007450500037521124,0.09778610011562705,1.0,0.8581782002002001,,,,,,,,,,,,1981,Moral,2024-08-20_10h43.42.109,MoralCondition_v2,2022.2.5,30.002892272895973,
4,0,4,0,3,0,3,0,,,,,,,,,,,,,,,,,,,,,,,,,,,,,,,,,,,,,,,,,,,,,,,,,,,,,,387.8428003001027,387.8428003001027,0.007505299989134073,0.09799630008637905,1.0,1.2581178997643292,,,,,,,,,,,,1981,Moral,2024-08-20_10h43.42.109,MoralCondition_v2,2022.2.5,30.002892272895973,
4,0,4,0,4,0,4,0,,,,,,,,,,,,,,,,,,,,,,,,,,,,,,,,,,,,,,,,,,,,,,,,,,,,,,389.14257310004905,389.14257310004905,0.006382499821484089,0.09922159975394607,1.0,2.8270649001933634,,,,,,,,,,,,1981,Moral,2024-08-20_10h43.42.109,MoralCondition_v2,2022.2.5,30.002892272895973,
4,0,4,0,5,0,5,0,,,,,,,,,,,,,,,,,,,,,,,,,,,,,,,,,,,,,,,,,,,,,,,,,,,,,,392.0090691000223,392.0090691000223,0.0076513998210430145,0.09777829982340336,1.0,1.4910431997850537,,,,,,,,,,,,1981,Moral,2024-08-20_10h43.42.109,MoralCondition_v2,2022.2.5,30.002892272895973,
4,0,4,0,6,0,6,0,,,,,,,,,,,,,,,,,,,,,,,,,,,,,,,,,,,,,,,,,,,,,,,,,,,,,,393.5424632001668,393.5424632001668,0.006487600039690733,0.09932180028408766,7.0,2.8937285002321005,,,,,,,,,,,,1981,Moral,2024-08-20_10h43.42.109,MoralCondition_v2,2022.2.5,30.002892272895973,
4,0,4,0,,,,,,,,,,,,,,,,,,,,,,,,,,,,,,,,,,,,,,,,,,,,,,,,,,,,,,,,,,,,,,,,396.47607279988006,396.47607279988006,0.0007114997133612633,0.09905890002846718,7.0,4.133049099706113,,,,,,1981,Moral,2024-08-20_10h43.42.109,MoralCondition_v2,2022.2.5,30.002892272895973,
5,0,5,0,0,0,0,0,,,,,,,,,,,,,,,,,,,,,400.6426832000725,0.0002486999146640301,0.09786299988627434,406.6423999001272,6.031110499985516,,406.8423168002628,406.8423168002628,0.0930023998953402,0.19778749952092767,6.031086499802768,,412.94255609996617,412.94255609996617,412.94255609996617,0.09371509961783886,0.19793299958109856,418.64240919984877,418.8424125001766,6.031119399704039,6.130945699755102,424.84246330009773,12.031204699538648,424.9757270999253,424.9757270999253,0.031373399309813976,0.13108899956569076,up,0.5912541998550296,425.60898140026256,2.4899840354919434e-05,0.09893589979037642,,431.6255768998526,431.6255768998526,0.02467289986088872,0.11537679983302951,2.0,13.025149600114673,,,,,,,424.9424891001545,424.9424891001545,,412.84239519992843,412.84239519992843,1981,Moral,2024-08-20_10h43.42.109,MoralCondition_v2,2022.2.5,30.002892272895973,
5,0,5,0,1,0,1,0,,,,,,,,,,,,,,,,,,,,,,,,,,,,,,,,,,,,,,,,,,,,,,,,,,,,,,444.7093604998663,444.7093604998663,0.00874709989875555,0.11370240012183785,3.0,3.339262700174004,,,,,,,,,,,,1981,Moral,2024-08-20_10h43.42.109,MoralCondition_v2,2022.2.5,30.002892272895973,
5,0,5,0,2,0,2,0,,,,,,,,,,,,,,,,,,,,,,,,,,,,,,,,,,,,,,,,,,,,,,,,,,,,,,448.0758160999976,448.0758160999976,0.007084800396114588,0.0976377003826201,5.0,5.49155979976058,,,,,,,,,,,,1981,Moral,2024-08-20_10h43.42.109,MoralCondition_v2,2022.2.5,30.002892272895973,
5,0,5,0,3,0,3,0,,,,,,,,,,,,,,,,,,,,,,,,,,,,,,,,,,,,,,,,,,,,,,,,,,,,,,453.62579960003495,453.62579960003495,0.007581199984997511,0.11402639979496598,1.0,2.4741091998293996,,,,,,,,,,,,1981,Moral,2024-08-20_10h43.42.109,MoralCondition_v2,2022.2.5,30.002892272895973,
5,0,5,0,4,0,4,0,,,,,,,,,,,,,,,,,,,,,,,,,,,,,,,,,,,,,,,,,,,,,,,,,,,,,,456.1255843001418,456.1255843001418,0.006431700196117163,0.09906050004065037,5.0,3.3271981002762914,,,,,,,,,,,,1981,Moral,2024-08-20_10h43.42.109,MoralCondition_v2,2022.2.5,30.002892272895973,
5,0,5,0,5,0,5,0,,,,,,,,,,,,,,,,,,,,,,,,,,,,,,,,,,,,,,,,,,,,,,,,,,,,,,459.4925982002169,459.4925982002169,0.006470300257205963,0.09913770016282797,2.0,2.3936246996745467,,,,,,,,,,,,1981,Moral,2024-08-20_10h43.42.109,MoralCondition_v2,2022.2.5,30.002892272895973,
5,0,5,0,6,0,6,0,,,,,,,,,,,,,,,,,,,,,,,,,,,,,,,,,,,,,,,,,,,,,,,,,,,,,,461.92588429991156,461.92588429991156,0.007533099967986345,0.09795919992029667,4.0,4.557907199952751,,,,,,,,,,,,1981,Moral,2024-08-20_10h43.42.109,MoralCondition_v2,2022.2.5,30.002892272895973,
5,0,5,0,,,,,,,,,,,,,,,,,,,,,,,,,,,,,,,,,,,,,,,,,,,,,,,,,,,,,,,,,,,,,,,,466.5258337999694,466.5258337999694,0.0012705996632575989,0.097681799903512,2.0,5.364441399928182,,,,,,1981,Moral,2024-08-20_10h43.42.109,MoralCondition_v2,2022.2.5,30.002892272895973,
6,0,6,0,0,0,0,0,,,,,,,,,,,,,,,,,,,,,471.9259001999162,0.0002799998037517071,0.09807149972766638,477.92569810012355,6.03149429988116,,478.19219599990174,478.19219599990174,0.1578871998935938,0.26498259976506233,6.031465499661863,,484.22586410027,484.22586410027,484.22586410027,0.08312249975278974,0.1980720995925367,489.92566860001534,490.1256650998257,6.031526599545032,6.131378299556673,496.12568539986387,12.031435099896044,496.2589770001359,496.2589770001359,0.03157749958336353,0.13136699981987476,up,0.7078877999447286,497.0256973998621,4.829978570342064e-05,0.09784259973093867,,503.04220379982144,503.04220379982144,0.025155399926006794,0.11453279992565513,2.0,6.290226900018752,,,,,,,496.22563529992476,496.22563529992476,,,,1981,Moral,2024-08-20_10h43.42.109,MoralCondition_v2,2022.2.5,30.002892272895973,
6,0,6,0,1,0,1,0,,,,,,,,,,,,,,,,,,,,,,,,,,,,,,,,,,,,,,,,,,,,,,,,,,,,,,509.3925732001662,509.3925732001662,0.00823709974065423,0.114024399779737,2.0,5.073514500167221,,,,,,,,,,,,1981,Moral,2024-08-20_10h43.42.109,MoralCondition_v2,2022.2.5,30.002892272895973,
6,0,6,0,2,0,2,0,,,,,,,,,,,,,,,,,,,,,,,,,,,,,,,,,,,,,,,,,,,,,,,,,,,,,,514.492304999847,514.492304999847,0.007694999687373638,0.09772659977898002,2.0,2.4577942001633346,,,,,,,,,,,,1981,Moral,2024-08-20_10h43.42.109,MoralCondition_v2,2022.2.5,30.002892272895973,
6,0,6,0,3,0,3,0,,,,,,,,,,,,,,,,,,,,,,,,,,,,,,,,,,,,,,,,,,,,,,,,,,,,,,517.0092958002351,517.0092958002351,0.008213900029659271,0.11410179967060685,7.0,2.6733482000418007,,,,,,,,,,,,1981,Moral,2024-08-20_10h43.42.109,MoralCondition_v2,2022.2.5,30.002892272895973,
6,0,6,0,4,0,4,0,,,,,,,,,,,,,,,,,,,,,,,,,,,,,,,,,,,,,,,,,,,,,,,,,,,,,,519.7091895998456,519.7091895998456,0.007364300079643726,0.09821509988978505,2.0,2.3920184997841716,,,,,,,,,,,,1981,Moral,2024-08-20_10h43.42.109,MoralCondition_v2,2022.2.5,30.002892272895973,
6,0,6,0,5,0,5,0,,,,,,,,,,,,,,,,,,,,,,,,,,,,,,,,,,,,,,,,,,,,,,,,,,,,,,522.1592691000551,522.1592691000551,0.007899700198322535,0.1142412000335753,5.0,2.1407274999655783,,,,,,,,,,,,1981,Moral,2024-08-20_10h43.42.109,MoralCondition_v2,2022.2.5,30.002892272895973,
6,0,6,0,6,0,6,0,,,,,,,,,,,,,,,,,,,,,,,,,,,,,,,,,,,,,,,,,,,,,,,,,,,,,,524.3255515000783,524.3255515000783,0.006703400053083897,0.09912069980055094,2.0,2.3936991998925805,,,,,,,,,,,,1981,Moral,2024-08-20_10h43.42.109,MoralCondition_v2,2022.2.5,30.002892272895973,
6,0,6,0,,,,,,,,,,,,,,,,,,,,,,,,,,,,,,,,,,,,,,,,,,,,,,,,,,,,,,,,,,,,,,,,526.7591964998282,526.7591964998282,0.0009661000221967697,0.0990412998944521,7.0,2.365937499795109,,,,,,1981,Moral,2024-08-20_10h43.42.109,MoralCondition_v2,2022.2.5,30.002892272895973,
7,0,7,0,0,0,0,0,,,,,,,,,,,,,,,,,,,,,529.1590942000039,0.00039209984242916107,0.09774209978058934,535.1756146000698,6.014388899784535,,535.3588899001479,535.3588899001479,0.0902900998480618,0.19769169948995113,6.031035199761391,,541.4425196000375,541.4425196000375,541.4425196000375,0.07014379976317286,0.18110969942063093,547.1422538999468,547.3422723002732,6.014388199429959,6.11439019953832,553.3423453001305,12.014488499611616,553.4756495002657,553.4756495002657,0.014424499589949846,0.11439549969509244,up,0.8516170997172594,554.37557750009,6.469991058111191e-05,0.09799059992656112,560.3759751999751,560.3759751999751,560.3759751999751,0.00806279992684722,0.09790599998086691,5.0,5.791114400140941,,,,,,,553.4254657002166,553.4254657002166,,541.3421505000442,541.3421505000442,1981,Moral,2024-08-20_10h43.42.109,MoralCondition_v2,2022.2.5,30.002892272895973,
7,0,7,0,1,0,1,0,,,,,,,,,,,,,,,,,,,,,,,,,,,,,,,,,,,,,,,,,,,,,,,,,,,,,,566.2089717001654,566.2089717001654,0.007392399944365025,0.09802050003781915,3.0,3.2582958000712097,,,,,,,,,,,,1981,Moral,2024-08-20_10h43.42.109,MoralCondition_v2,2022.2.5,30.002892272895973,
7,0,7,0,2,0,2,0,,,,,,,,,,,,,,,,,,,,,,,,,,,,,,,,,,,,,,,,,,,,,,,,,,,,,,569.508898800239,569.508898800239,0.0075286999344825745,0.09811110002920032,5.0,2.6579332002438605,,,,,,,,,,,,1981,Moral,2024-08-20_10h43.42.109,MoralCondition_v2,2022.2.5,30.002892272895973,
7,0,7,0,3,0,3,0,,,,,,,,,,,,,,,,,,,,,,,,,,,,,,,,,,,,,,,,,,,,,,,,,,,,,,572.2089235000312,572.2089235000312,0.008300300221890211,0.09744760021567345,1.0,6.7239278997294605,,,,,,,,,,,,1981,Moral,2024-08-20_10h43.42.109,MoralCondition_v2,2022.2.5,30.002892272895973,
7,0,7,0,4,0,4,0,,,,,,,,,,,,,,,,,,,,,,,,,,,,,,,,,,,,,,,,,,,,,,,,,,,,,,578.9924821001478,578.9924821001478,0.007515099830925465,0.11438679974526167,1.0,7.341044600121677,,,,,,,,,,,,1981,Moral,2024-08-20_10h43.42.109,MoralCondition_v2,2022.2.5,30.002892272895973,
7,0,7,0,5,0,5,0,,,,,,,,,,,,,,,,,,,,,,,,,,,,,,,,,,,,,,,,,,,,,,,,,,,,,,586.3757923999801,586.3757923999801,0.007722100242972374,0.11446460010483861,5.0,2.8744842000305653,,,,,,,,,,,,1981,Moral,2024-08-20_10h43.42.109,MoralCondition_v2,2022.2.5,30.002892272895973,
7,0,7,0,6,0,6,0,,,,,,,,,,,,,,,,,,,,,,,,,,,,,,,,,,,,,,,,,,,,,,,,,,,,,,589.2753718998283,589.2753718998283,0.006686899811029434,0.09908209973946214,5.0,4.160218599718064,,,,,,,,,,,,1981,Moral,2024-08-20_10h43.42.109,MoralCondition_v2,2022.2.5,30.002892272895973,
7,0,7,0,,,,,,,,,,,,,,,,,,,,,,,,,,,,,,,,,,,,,,,,,,,,,,,,,,,,,,,,,,,,,,,,593.4757171999663,593.4757171999663,0.0007013999857008457,0.09921590005978942,2.0,4.199889599811286,,,,,,1981,Moral,2024-08-20_10h43.42.109,MoralCondition_v2,2022.2.5,30.002892272895973,
8,0,8,0,0,0,0,0,,,,,,,,,,,,,,,,,,,,,597.7089819000103,0.00048419972881674767,0.0973861999809742,603.7254989002831,6.014185699634254,,603.892156300135,603.892156300135,0.06933239987120032,0.1810141997411847,6.01394039997831,,609.9921853998676,609.9921853998676,609.9921853998676,0.07052679965272546,0.18075159983709455,615.6922976998612,615.8921778001823,6.014079999644309,6.114033799618483,621.8921635998413,12.014068899676204,622.0256158998236,622.0256158998236,0.014283299446105957,0.1140048997476697,up,0.4779889998026192,622.5588238998316,4.5099761337041855e-05,0.09780679969117045,,628.5921328002587,628.5921328002587,0.025860199704766273,0.1312085995450616,6.0,11.339577100239694,,,,,,,621.9921609000303,621.9921609000303,,609.8922203001566,609.8922203001566,1981,Moral,2024-08-20_10h43.42.109,MoralCondition_v2,2022.2.5,30.002892272895973,
8,0,8,0,1,0,1,0,,,,,,,,,,,,,,,,,,,,,,,,,,,,,,,,,,,,,,,,,,,,,,,,,,,,,,639.9757077000104,639.9757077000104,0.008130399975925684,0.11424829997122288,5.0,8.173979999963194,,,,,,,,,,,,1981,Moral,2024-08-20_10h43.42.109,MoralCondition_v2,2022.2.5,30.002892272895973,
8,0,8,0,2,0,2,0,,,,,,,,,,,,,,,,,,,,,,,,,,,,,,,,,,,,,,,,,,,,,,,,,,,,,,648.1923298998736,648.1923298998736,0.009203500114381313,0.11415620008483529,1.0,2.439188600052148,,,,,,,,,,,,1981,Moral,2024-08-20_10h43.42.109,MoralCondition_v2,2022.2.5,30.002892272895973,
8,0,8,0,3,0,3,0,,,,,,,,,,,,,,,,,,,,,,,,,,,,,,,,,,,,,,,,,,,,,,,,,,,,,,650.6589295002632,650.6589295002632,0.007912100292742252,0.0990993999876082,5.0,4.458665499929339,,,,,,,,,,,,1981,Moral,2024-08-20_10h43.42.109,MoralCondition_v2,2022.2.5,30.002892272895973,
8,0,8,0,4,0,4,0,,,,,,,,,,,,,,,,,,,,,,,,,,,,,,,,,,,,,,,,,,,,,,,,,,,,,,655.158845399972,655.158845399972,0.008556199725717306,0.09902619989588857,2.0,3.224977199919522,,,,,,,,,,,,1981,Moral,2024-08-20_10h43.42.109,MoralCondition_v2,2022.2.5,30.002892272895973,
8,0,8,0,5,0,5,0,,,,,,,,,,,,,,,,,,,,,,,,,,,,,,,,,,,,,,,,,,,,,,,,,,,,,,658.4254133999348,658.4254133999348,0.006554499734193087,0.099008500110358,1.0,2.4269174998626113,,,,,,,,,,,,1981,Moral,2024-08-20_10h43.42.109,MoralCondition_v2,2022.2.5,30.002892272895973,
8,0,8,0,6,0,6,0,,,,,,,,,,,,,,,,,,,,,,,,,,,,,,,,,,,,,,,,,,,,,,,,,,,,,,660.8922278000973,660.8922278000973,0.007490800227969885,0.09797160001471639,1.0,10.8914057998918,,,,,,,,,,,,1981,Moral,2024-08-20_10h43.42.109,MoralCondition_v2,2022.2.5,30.002892272895973,
8,0,8,0,,,,,,,,,,,,,,,,,,,,,,,,,,,,,,,,,,,,,,,,,,,,,,,,,,,,,,,,,,,,,,,,671.8255238002166,671.8255238002166,0.0014998000115156174,0.09716170001775026,3.0,3.330304100178182,,,,,,1981,Moral,2024-08-20_10h43.42.109,MoralCondition_v2,2022.2.5,30.002892272895973,
9,0,9,0,0,0,0,0,,,,,,,,,,,,,,,,,,,,,675.1921414001845,0.00023650005459785461,0.11456610029563308,681.1920083002187,6.031170499976724,,681.3754795002751,681.3754795002751,0.07675549993291497,0.18145520007237792,6.014471400063485,,687.4752409001812,687.4752409001812,687.4752409001812,0.0761509002186358,0.1813344000838697,693.1752907000482,693.3753166999668,6.014507700223476,6.114317100029439,699.3755208002403,12.014684000052512,699.5088406000286,699.5088406000286,0.014891699887812138,0.11445669969543815,up,0.4501685998402536,700.0084601002745,4.829978570342064e-05,0.09770190017297864,706.025238700211,706.025238700211,706.025238700211,0.00892359996214509,0.11457999981939793,5.0,16.53962210007012,,,,,,,699.47553159995,699.47553159995,,687.3753267000429,687.3753267000429,1981,Moral,2024-08-20_10h43.42.109,MoralCondition_v2,2022.2.5,30.002892272895973,
9,0,9,0,1,0,1,0,,,,,,,,,,,,,,,,,,,,,,,,,,,,,,,,,,,,,,,,,,,,,,,,,,,,,,722.6088131000288,722.6088131000288,0.008042099885642529,0.11450680019333959,5.0,1.0408465000800788,,,,,,,,,,,,1981,Moral,2024-08-20_10h43.42.109,MoralCondition_v2,2022.2.5,30.002892272895973,
9,0,9,0,2,0,2,0,,,,,,,,,,,,,,,,,,,,,,,,,,,,,,,,,,,,,,,,,,,,,,,,,,,,,,723.6753699998371,723.6753699998371,0.00666720001026988,0.09906100016087294,1.0,2.9266824000515044,,,,,,,,,,,,1981,Moral,2024-08-20_10h43.42.109,MoralCondition_v2,2022.2.5,30.002892272895973,
9,0,9,0,3,0,3,0,,,,,,,,,,,,,,,,,,,,,,,,,,,,,,,,,,,,,,,,,,,,,,,,,,,,,,726.6419228999875,726.6419228999875,0.006728800013661385,0.09928330034017563,1.0,0.7600383004173636,,,,,,,,,,,,1981,Moral,2024-08-20_10h43.42.109,MoralCondition_v2,2022.2.5,30.002892272895973,
9,0,9,0,4,0,4,0,,,,,,,,,,,,,,,,,,,,,,,,,,,,,,,,,,,,,,,,,,,,,,,,,,,,,,727.441782000009,727.441782000009,0.0064836000092327595,0.0990896001458168,1.0,1.2936559999361634,,,,,,,,,,,,1981,Moral,2024-08-20_10h43.42.109,MoralCondition_v2,2022.2.5,30.002892272895973,
9,0,9,0,5,0,5,0,,,,,,,,,,,,,,,,,,,,,,,,,,,,,,,,,,,,,,,,,,,,,,,,,,,,,,728.7751863002777,728.7751863002777,0.0067091998644173145,0.09914480010047555,3.0,2.360043799970299,,,,,,,,,,,,1981,Moral,2024-08-20_10h43.42.109,MoralCondition_v2,2022.2.5,30.002892272895973,
9,0,9,0,6,0,6,0,,,,,,,,,,,,,,,,,,,,,,,,,,,,,,,,,,,,,,,,,,,,,,,,,,,,,,731.1751238000579,731.1751238000579,0.006629100069403648,0.09923160029575229,5.0,2.0270972000434995,,,,,,,,,,,,1981,Moral,2024-08-20_10h43.42.109,MoralCondition_v2,2022.2.5,30.002892272895973,
9,0,9,0,,,,,,,,,,,,,,,,,,,,,,,,,,,,,,,,,,,,,,,,,,,,,,,,,,,,,,,,,,,,,,,,733.2419933001511,733.2419933001511,0.0006981999613344669,0.09922230010852218,3.0,3.7997669000178576,,,,,,1981,Moral,2024-08-20_10h43.42.109,MoralCondition_v2,2022.2.5,30.002892272895973,
10,0,10,0,0,0,0,0,,,,,,,,,,,,,,,,,,,,,737.0753755001351,0.00028040027245879173,0.09788360027596354,743.0918530998752,6.014471200294793,,743.2585279000923,743.2585279000923,0.07076610019430518,0.1812630002386868,6.014794600196183,,749.3587487000041,749.3587487000041,749.3587487000041,0.07221330003812909,0.18129910016432405,755.0585143002681,755.2584707001224,6.014469500165433,6.11445439979434,761.2584337000735,12.014430799987167,761.391781500075,761.391781500075,0.014773299917578697,0.11439559981226921,up,0.5280313994735479,761.975173600018,4.389975219964981e-05,0.09791139978915453,,768.0084374002181,768.0084374002181,0.02578889997676015,0.1314253001473844,2.0,3.2731853001751006,,,,,,,761.3585895001888,761.3585895001888,,749.2584818000905,749.2584818000905,1981,Moral,2024-08-20_10h43.42.109,MoralCondition_v2,2022.2.5,30.002892272895973,
10,0,10,0,1,0,1,0,,,,,,,,,,,,,,,,,,,,,,,,,,,,,,,,,,,,,,,,,,,,,,,,,,,,,,771.3083957000636,771.3083957000636,0.006756700109690428,0.0991130000911653,2.0,1.2598052001558244,,,,,,,,,,,,1981,Moral,2024-08-20_10h43.42.109,MoralCondition_v2,2022.2.5,30.002892272895973,
10,0,10,0,2,0,2,0,,,,,,,,,,,,,,,,,,,,,,,,,,,,,,,,,,,,,,,,,,,,,,,,,,,,,,772.6082569002174,772.6082569002174,0.007385800126940012,0.09924799995496869,2.0,1.2595369000919163,,,,,,,,,,,,1981,Moral,2024-08-20_10h43.42.109,MoralCondition_v2,2022.2.5,30.002892272895973,
10,0,10,0,3,0,3,0,,,,,,,,,,,,,,,,,,,,,,,,,,,,,,,,,,,,,,,,,,,,,,,,,,,,,,773.9252980998717,773.9252980998717,0.007937000133097172,0.11427190015092492,2.0,1.140592799987644,,,,,,,,,,,,1981,Moral,2024-08-20_10h43.42.109,MoralCondition_v2,2022.2.5,30.002892272895973,
10,0,10,0,4,0,4,0,,,,,,,,,,,,,,,,,,,,,,,,,,,,,,,,,,,,,,,,,,,,,,,,,,,,,,775.0919224000536,775.0919224000536,0.0076963999308645725,0.0988969998434186,2.0,1.5590916997753084,,,,,,,,,,,,1981,Moral,2024-08-20_10h43.42.109,MoralCondition_v2,2022.2.5,30.002892272895973,
10,0,10,0,5,0,5,0,,,,,,,,,,,,,,,,,,,,,,,,,,,,,,,,,,,,,,,,,,,,,,,,,,,,,,776.6917973002419,776.6917973002419,0.007119699846953154,0.09788089990615845,6.0,2.5915859998203814,,,,,,,,,,,,1981,Moral,2024-08-20_10h43.42.109,MoralCondition_v2,2022.2.5,30.002892272895973,
10,0,10,0,6,0,6,0,,,,,,,,,,,,,,,,,,,,,,,,,,,,,,,,,,,,,,,,,,,,,,,,,,,,,,779.3416830999777,779.3416830999777,0.00829810043796897,0.11387530015781522,6.0,0.7066393997520208,,,,,,,,,,,,1981,Moral,2024-08-20_10h43.42.109,MoralCondition_v2,2022.2.5,30.002892272895973,
10,0,10,0,,,,,,,,,,,,,,,,,,,,,,,,,,,,,,,,,,,,,,,,,,,,,,,,,,,,,,,,,,,,,,,,780.075076200068,780.075076200068,0.001335199922323227,0.09779740031808615,7.0,3.331027400214225,,,,,,1981,Moral,2024-08-20_10h43.42.109,MoralCondition_v2,2022.2.5,30.002892272895973,
11,0,11,0,0,0,0,0,,,,,,,,,,,,,,,,,,,,,783.4419654002413,0.00028140004724264145,0.09766830038279295,789.4583875001408,6.014245600439608,,789.6251205001026,789.6251205001026,0.06751079997047782,0.18114300025627017,6.014205799903721,,795.7252177000046,795.7252177000046,795.7252177000046,0.06655090022832155,0.1809577001258731,801.4250239999965,801.6249791001901,6.014216599985957,6.114152799826115,807.6250093001872,12.014248399995267,807.7414747001603,807.7414747001603,0.014317899942398071,0.09750619996339083,up,0.44144479976966977,808.2416341998614,4.719989374279976e-05,0.09804259985685349,814.2416500002146,814.2416500002146,814.2416500002146,0.007457000203430653,0.09810099983587861,2.0,3.024967699777335,,,,,,,807.7250135000795,807.7250135000795,,795.6252254000865,795.6252254000865,1981,Moral,2024-08-20_10h43.42.109,MoralCondition_v2,2022.2.5,30.002892272895973,
11,0,11,0,1,0,1,0,,,,,,,,,,,,,,,,,,,,,,,,,,,,,,,,,,,,,,,,,,,,,,,,,,,,,,817.3084623999894,817.3084623999894,0.00721239997074008,0.09919900028035045,2.0,0.8262360999360681,,,,,,,,,,,,1981,Moral,2024-08-20_10h43.42.109,MoralCondition_v2,2022.2.5,30.002892272895973,
11,0,11,0,2,0,2,0,,,,,,,,,,,,,,,,,,,,,,,,,,,,,,,,,,,,,,,,,,,,,,,,,,,,,,818.1749980002642,818.1749980002642,0.007079599890857935,0.09937680000439286,2.0,0.7598502999171615,,,,,,,,,,,,1981,Moral,2024-08-20_10h43.42.109,MoralCondition_v2,2022.2.5,30.002892272895973,
11,0,11,0,3,0,3,0,,,,,,,,,,,,,,,,,,,,,,,,,,,,,,,,,,,,,,,,,,,,,,,,,,,,,,818.9749385002069,818.9749385002069,0.007739299908280373,0.09794529993087053,2.0,0.7576990001834929,,,,,,,,,,,,1981,Moral,2024-08-20_10h43.42.109,MoralCondition_v2,2022.2.5,30.002892272895973,
11,0,11,0,4,0,4,0,,,,,,,,,,,,,,,,,,,,,,,,,,,,,,,,,,,,,,,,,,,,,,,,,,,,,,819.791984600015,819.791984600015,0.007711000274866819,0.11432219995185733,2.0,0.8075864999555051,,,,,,,,,,,,1981,Moral,2024-08-20_10h43.42.109,MoralCondition_v2,2022.2.5,30.002892272895973,
11,0,11,0,5,0,5,0,,,,,,,,,,,,,,,,,,,,,,,,,,,,,,,,,,,,,,,,,,,,,,,,,,,,,,820.6250112000853,820.6250112000853,0.006108000408858061,0.09860920021310449,5.0,1.7604362000711262,,,,,,,,,,,,1981,Moral,2024-08-20_10h43.42.109,MoralCondition_v2,2022.2.5,30.002892272895973,
11,0,11,0,6,0,6,0,,,,,,,,,,,,,,,,,,,,,,,,,,,,,,,,,,,,,,,,,,,,,,,,,,,,,,822.4249519999139,822.4249519999139,0.00655810022726655,0.09906900022178888,6.0,1.5602186997421086,,,,,,,,,,,,1981,Moral,2024-08-20_10h43.42.109,MoralCondition_v2,2022.2.5,30.002892272895973,
11,0,11,0,,,,,,,,,,,,,,,,,,,,,,,,,,,,,,,,,,,,,,,,,,,,,,,,,,,,,,,,,,,,,,,,824.0252505000681,824.0252505000681,0.0007200003601610661,0.09889010014012456,7.0,6.499404999893159,,,,,,1981,Moral,2024-08-20_10h43.42.109,MoralCondition_v2,2022.2.5,30.002892272895973,
12,0,12,0,0,0,0,0,,,,,,,,,,,,,,,,,,,,,830.5585126001388,0.00013219984248280525,0.09914910001680255,836.5748669002205,6.015791200101376,,836.7417339002714,836.7417339002714,0.06810510018840432,0.18261419981718063,6.015924599952996,,842.8414206998423,842.8414206998423,842.8414206998423,0.06898809969425201,0.18245239974930882,848.5415770998225,848.7419413002208,6.01622169977054,6.115773899946362,854.7415629001334,12.015818399842829,854.8750153998844,854.8750153998844,0.015964599791914225,0.11574589973315597,up,1.1884169997647405,856.1082115001045,4.350021481513977e-05,0.09804970026016235,,862.1415380998515,862.1415380998515,0.026199300307780504,0.13145410036668181,5.0,13.572675799950957,,,,,,,854.8415056001395,854.8415056001395,,842.7415058999322,842.7415058999322,1981,Moral,2024-08-20_10h43.42.109,MoralCondition_v2,2022.2.5,30.002892272895973,
12,0,12,0,1,0,1,0,,,,,,,,,,,,,,,,,,,,,,,,,,,,,,,,,,,,,,,,,,,,,,,,,,,,,,875.7581050000153,875.7581050000153,0.008107199799269438,0.11436029989272356,5.0,4.873755999840796,,,,,,,,,,,,1981,Moral,2024-08-20_10h43.42.109,MoralCondition_v2,2022.2.5,30.002892272895973,
12,0,12,0,2,0,2,0,,,,,,,,,,,,,,,,,,,,,,,,,,,,,,,,,,,,,,,,,,,,,,,,,,,,,,880.6583385001868,880.6583385001868,0.007209300063550472,0.09776999987661839,6.0,3.8583492003381252,,,,,,,,,,,,1981,Moral,2024-08-20_10h43.42.109,MoralCondition_v2,2022.2.5,30.002892272895973,
12,0,12,0,3,0,3,0,,,,,,,,,,,,,,,,,,,,,,,,,,,,,,,,,,,,,,,,,,,,,,,,,,,,,,884.5582129000686,884.5582129000686,0.00649229995906353,0.09928809991106391,2.0,2.7270202999934554,,,,,,,,,,,,1981,Moral,2024-08-20_10h43.42.109,MoralCondition_v2,2022.2.5,30.002892272895973,
12,0,12,0,4,0,4,0,,,,,,,,,,,,,,,,,,,,,,,,,,,,,,,,,,,,,,,,,,,,,,,,,,,,,,887.3248833999969,887.3248833999969,0.007408499717712402,0.09862289996817708,2.0,2.558831899892539,,,,,,,,,,,,1981,Moral,2024-08-20_10h43.42.109,MoralCondition_v2,2022.2.5,30.002892272895973,
12,0,12,0,5,0,5,0,,,,,,,,,,,,,,,,,,,,,,,,,,,,,,,,,,,,,,,,,,,,,,,,,,,,,,889.9247580999509,889.9247580999509,0.007564600091427565,0.09748549992218614,5.0,2.391071899794042,,,,,,,,,,,,1981,Moral,2024-08-20_10h43.42.109,MoralCondition_v2,2022.2.5,30.002892272895973,
12,0,12,0,6,0,6,0,,,,,,,,,,,,,,,,,,,,,,,,,,,,,,,,,,,,,,,,,,,,,,,,,,,,,,892.3749946001917,892.3749946001917,0.007716199848800898,0.11418499983847141,1.0,1.7074176999740303,,,,,,,,,,,,1981,Moral,2024-08-20_10h43.42.109,MoralCondition_v2,2022.2.5,30.002892272895973,
12,0,12,0,,,,,,,,,,,,,,,,,,,,,,,,,,,,,,,,,,,,,,,,,,,,,,,,,,,,,,,,,,,,,,,,894.10822919989,894.10822919989,0.0010109003633260727,0.09926290018483996,2.0,4.099391499999911,,,,,,1981,Moral,2024-08-20_10h43.42.109,MoralCondition_v2,2022.2.5,30.002892272895973,
13,0,13,0,0,0,0,0,,,,,,,,,,,,,,,,,,,,,898.2415124000981,0.0002935999073088169,0.0977921998128295,904.2580301002599,6.014435300137848,,904.4248071000911,904.4248071000911,0.07027459982782602,0.18126349989324808,6.014448499772698,,910.5246951002628,910.5246951002628,910.5246951002628,0.0733917998149991,0.18134749960154295,916.2248476999812,916.4247051998973,6.014440099708736,6.114420199766755,922.4248398998752,12.014598799869418,922.5580420000479,922.5580420000479,0.014550699852406979,0.11435839952901006,up,1.296717099379748,923.9079999001697,5.5099837481975555e-05,0.09774399967864156,,929.9413696001284,929.9413696001284,0.025233499705791473,0.13119739992544055,6.0,3.673570599872619,,,,,,,922.5246581998654,922.5246581998654,,910.4247141000815,910.4247141000815,1981,Moral,2024-08-20_10h43.42.109,MoralCondition_v2,2022.2.5,30.002892272895973,
13,0,13,0,1,0,1,0,,,,,,,,,,,,,,,,,,,,,,,,,,,,,,,,,,,,,,,,,,,,,,,,,,,,,,933.641445199959,933.641445199959,0.007740800268948078,0.09782360028475523,2.0,2.0577397998422384,,,,,,,,,,,,1981,Moral,2024-08-20_10h43.42.109,MoralCondition_v2,2022.2.5,30.002892272895973,
13,0,13,0,2,0,2,0,,,,,,,,,,,,,,,,,,,,,,,,,,,,,,,,,,,,,,,,,,,,,,,,,,,,,,935.741280999966,935.741280999966,0.006401999853551388,0.09909689985215664,6.0,1.6939844000153244,,,,,,,,,,,,1981,Moral,2024-08-20_10h43.42.109,MoralCondition_v2,2022.2.5,30.002892272895973,
13,0,13,0,3,0,3,0,,,,,,,,,,,,,,,,,,,,,,,,,,,,,,,,,,,,,,,,,,,,,,,,,,,,,,937.4746392001398,937.4746392001398,0.006815899629145861,0.09947429969906807,2.0,1.5601939000189304,,,,,,,,,,,,1981,Moral,2024-08-20_10h43.42.109,MoralCondition_v2,2022.2.5,30.002892272895973,
13,0,13,0,4,0,4,0,,,,,,,,,,,,,,,,,,,,,,,,,,,,,,,,,,,,,,,,,,,,,,,,,,,,,,939.0913634998724,939.0913634998724,0.010260399896651506,0.11438070004805923,2.0,1.1053610001690686,,,,,,,,,,,,1981,Moral,2024-08-20_10h43.42.109,MoralCondition_v2,2022.2.5,30.002892272895973,
13,0,13,0,5,0,5,0,,,,,,,,,,,,,,,,,,,,,,,,,,,,,,,,,,,,,,,,,,,,,,,,,,,,,,940.224701799918,940.224701799918,0.0070510003715753555,0.09801900014281273,2.0,0.6253917999565601,,,,,,,,,,,,1981,Moral,2024-08-20_10h43.42.109,MoralCondition_v2,2022.2.5,30.002892272895973,
13,0,13,0,6,0,6,0,,,,,,,,,,,,,,,,,,,,,,,,,,,,,,,,,,,,,,,,,,,,,,,,,,,,,,940.8913179002702,940.8913179002702,0.007656600326299667,0.09740970004349947,2.0,0.657406700309366,,,,,,,,,,,,1981,Moral,2024-08-20_10h43.42.109,MoralCondition_v2,2022.2.5,30.002892272895973,
13,0,13,0,,,,,,,,,,,,,,,,,,,,,,,,,,,,,,,,,,,,,,,,,,,,,,,,,,,,,,,,,,,,,,,,941.5913924998604,941.5913924998604,0.0006916997954249382,0.09907449968159199,7.0,2.9661468998529017,,,,,,1981,Moral,2024-08-20_10h43.42.109,MoralCondition_v2,2022.2.5,30.002892272895973,
14,0,14,0,0,0,0,0,,,,,,,,,,,,,,,,,,,,,944.591627900023,0.00015580002218484879,0.09921600017696619,950.5912727001123,5.999262500088662,6.099252799991518,950.7579438998364,950.7579438998364,0.06252910010516644,0.165869299788028,5.999005100224167,6.09913200000301,956.8578160000034,956.8578160000034,956.8578160000034,0.06075079971924424,0.16598640009760857,962.5580599000677,962.7579228002578,5.999093299731612,6.099044700153172,968.7582272998989,11.999363800045103,968.8912042002194,968.8912042002194,-0.00045480020344257355,0.09907369967550039,up,0.48422739980742335,969.4245055001229,2.8299633413553238e-05,0.09863330004736781,,975.4411333999597,975.4411333999597,0.025773999746888876,0.11529670003801584,3.0,6.023881500121206,,,,,,,968.8410662002861,968.8410662002861,12.098912599962205,956.7579570999369,956.7579570999369,1981,Moral,2024-08-20_10h43.42.109,MoralCondition_v2,2022.2.5,30.002892272895973,
14,0,14,0,1,0,1,0,,,,,,,,,,,,,,,,,,,,,,,,,,,,,,,,,,,,,,,,,,,,,,,,,,,,,,981.5246848999523,981.5246848999523,0.008444699924439192,0.11484669987112284,2.0,4.607051599770784,,,,,,,,,,,,1981,Moral,2024-08-20_10h43.42.109,MoralCondition_v2,2022.2.5,30.002892272895973,
14,0,14,0,2,0,2,0,,,,,,,,,,,,,,,,,,,,,,,,,,,,,,,,,,,,,,,,,,,,,,,,,,,,,,986.1578072998673,986.1578072998673,0.006789300125092268,0.09733009990304708,5.0,2.4584158998914063,,,,,,,,,,,,1981,Moral,2024-08-20_10h43.42.109,MoralCondition_v2,2022.2.5,30.002892272895973,
14,0,14,0,3,0,3,0,,,,,,,,,,,,,,,,,,,,,,,,,,,,,,,,,,,,,,,,,,,,,,,,,,,,,,988.6747507001273,988.6747507001273,0.008807700127363205,0.11418709997087717,2.0,1.8734029000625014,,,,,,,,,,,,1981,Moral,2024-08-20_10h43.42.109,MoralCondition_v2,2022.2.5,30.002892272895973,
14,0,14,0,4,0,4,0,,,,,,,,,,,,,,,,,,,,,,,,,,,,,,,,,,,,,,,,,,,,,,,,,,,,,,990.5745091000572,990.5745091000572,0.006623800378292799,0.09895300026983023,6.0,3.359829899854958,,,,,,,,,,,,1981,Moral,2024-08-20_10h43.42.109,MoralCondition_v2,2022.2.5,30.002892272895973,
14,0,14,0,5,0,5,0,,,,,,,,,,,,,,,,,,,,,,,,,,,,,,,,,,,,,,,,,,,,,,,,,,,,,,993.9911656999029,993.9911656999029,0.010004600044339895,0.11455910000950098,5.0,4.405431800056249,,,,,,,,,,,,1981,Moral,2024-08-20_10h43.42.109,MoralCondition_v2,2022.2.5,30.002892272895973,
14,0,14,0,6,0,6,0,,,,,,,,,,,,,,,,,,,,,,,,,,,,,,,,,,,,,,,,,,,,,,,,,,,,,,998.4244527001865,998.4244527001865,0.008059700019657612,0.09787889989092946,2.0,2.0908254999667406,,,,,,,,,,,,1981,Moral,2024-08-20_10h43.42.109,MoralCondition_v2,2022.2.5,30.002892272895973,
14,0,14,0,,,,,,,,,,,,,,,,,,,,,,,,,,,,,,,,,,,,,,,,,,,,,,,,,,,,,,,,,,,,,,,,1000.558093899861,1000.558093899861,0.0006813001818954945,0.09935649996623397,2.0,4.632958499714732,,,,,,1981,Moral,2024-08-20_10h43.42.109,MoralCondition_v2,2022.2.5,30.002892272895973,
15,0,15,0,0,0,0,0,,,,,,,,,,,,,,,,,,,,,1005.224668700248,0.00013349996879696846,0.09938080003485084,1011.2411281000823,6.015908099710941,,1011.4081453001127,1011.4081453001127,0.07260799966752529,0.18283989978954196,6.015979999676347,,1017.5077786999755,1017.5077786999755,1017.5077786999755,0.07033389993011951,0.182668199762702,1023.2077474999242,1023.4077432998456,6.01593489991501,6.116033199708909,1029.407741600182,12.015966499689966,1029.5413080998696,1029.5413080998696,0.016375699546188116,0.11591539951041341,up,0.4738415996544063,1030.074446900282,5.220016464591026e-05,0.09744889987632632,,1036.1077581001446,1036.1077581001446,0.025263499934226274,0.13062800001353025,6.0,3.7063878998160362,,,,,,,1029.5079799001105,1029.5079799001105,,1017.4077348001301,1017.4077348001301,1981,Moral,2024-08-20_10h43.42.109,MoralCondition_v2,2022.2.5,30.002892272895973,
15,0,15,0,1,0,1,0,,,,,,,,,,,,,,,,,,,,,,,,,,,,,,,,,,,,,,,,,,,,,,,,,,,,,,1039.8412343002856,1039.8412343002856,0.007419599685817957,0.09769860003143549,2.0,3.65777779975906,,,,,,,,,,,,1981,Moral,2024-08-20_10h43.42.109,MoralCondition_v2,2022.2.5,30.002892272895973,
15,0,15,0,2,0,2,0,,,,,,,,,,,,,,,,,,,,,,,,,,,,,,,,,,,,,,,,,,,,,,,,,,,,,,1043.5410243999213,1043.5410243999213,0.008920200169086456,0.0980417001992464,6.0,1.7903010002337396,,,,,,,,,,,,1981,Moral,2024-08-20_10h43.42.109,MoralCondition_v2,2022.2.5,30.002892272895973,
15,0,15,0,3,0,3,0,,,,,,,,,,,,,,,,,,,,,,,,,,,,,,,,,,,,,,,,,,,,,,,,,,,,,,1045.3912110999227,1045.3912110999227,0.008115199860185385,0.11454079998657107,2.0,2.474061499815434,,,,,,,,,,,,1981,Moral,2024-08-20_10h43.42.109,MoralCondition_v2,2022.2.5,30.002892272895973,
15,0,15,0,4,0,4,0,,,,,,,,,,,,,,,,,,,,,,,,,,,,,,,,,,,,,,,,,,,,,,,,,,,,,,1047.8909434000961,1047.8909434000961,0.007425100076943636,0.0981789999641478,2.0,1.9248572997748852,,,,,,,,,,,,1981,Moral,2024-08-20_10h43.42.109,MoralCondition_v2,2022.2.5,30.002892272895973,
15,0,15,0,5,0,5,0,,,,,,,,,,,,,,,,,,,,,,,,,,,,,,,,,,,,,,,,,,,,,,,,,,,,,,1049.8576910998672,1049.8576910998672,0.006279399618506432,0.09928529988974333,2.0,1.09416009997949,,,,,,,,,,,,1981,Moral,2024-08-20_10h43.42.109,MoralCondition_v2,2022.2.5,30.002892272895973,
15,0,15,0,6,0,6,0,,,,,,,,,,,,,,,,,,,,,,,,,,,,,,,,,,,,,,,,,,,,,,,,,,,,,,1051.0079312999733,1051.0079312999733,0.008408499881625175,0.11441490007564425,2.0,0.906854699831456,,,,,,,,,,,,1981,Moral,2024-08-20_10h43.42.109,MoralCondition_v2,2022.2.5,30.002892272895973,
15,0,15,0,,,,,,,,,,,,,,,,,,,,,,,,,,,,,,,,,,,,,,,,,,,,,,,,,,,,,,,,,,,,,,,,1051.9412450999953,1051.9412450999953,0.0013434998691082,0.0984005001373589,7.0,2.197848599869758,,,,,,1981,Moral,2024-08-20_10h43.42.109,MoralCondition_v2,2022.2.5,30.002892272895973,
16,0,16,0,0,0,0,0,,,,,,,,,,,,,,,,,,,,,1054.1747616999783,0.0001542000100016594,0.09919309988617897,1060.1909612999298,6.015817900188267,,1060.357802100014,1060.357802100014,0.06853820011019707,0.18252350017428398,6.01599740004167,,1066.4577200999483,1066.4577200999483,1066.4577200999483,0.06997889978811145,0.18249589996412396,1072.157602999825,1072.3576181000099,6.015826199669391,6.115974700078368,1078.357560600154,12.015770100057125,1078.4909378001466,1078.4909378001466,0.01608379976823926,0.11587429977953434,up,0.6362420995719731,1079.1743964999914,3.9600301533937454e-05,0.09798930026590824,1085.1740278000943,1085.1740278000943,1085.1740278000943,0.00990670034661889,0.09803340025246143,3.0,8.82240549987182,,,,,,,1078.4577215001918,1078.4577215001918,,1066.340761499945,1066.340761499945,1981,Moral,2024-08-20_10h43.42.109,MoralCondition_v2,2022.2.5,30.002892272895973,
16,0,16,0,1,0,1,0,,,,,,,,,,,,,,,,,,,,,,,,,,,,,,,,,,,,,,,,,,,,,,,,,,,,,,1094.0576956998557,1094.0576956998557,0.007190699689090252,0.11385079985484481,2.0,2.474324700422585,,,,,,,,,,,,1981,Moral,2024-08-20_10h43.42.109,MoralCondition_v2,2022.2.5,30.002892272895973,
16,0,16,0,2,0,2,0,,,,,,,,,,,,,,,,,,,,,,,,,,,,,,,,,,,,,,,,,,,,,,,,,,,,,,1096.5575451999903,1096.5575451999903,0.005662200041115284,0.09799899999052286,6.0,2.1933440999127924,,,,,,,,,,,,1981,Moral,2024-08-20_10h43.42.109,MoralCondition_v2,2022.2.5,30.002892272895973,
16,0,16,0,3,0,3,0,,,,,,,,,,,,,,,,,,,,,,,,,,,,,,,,,,,,,,,,,,,,,,,,,,,,,,1098.7907294002362,1098.7907294002362,0.008308100048452616,0.09823190001770854,5.0,5.957618500106037,,,,,,,,,,,,1981,Moral,2024-08-20_10h43.42.109,MoralCondition_v2,2022.2.5,30.002892272895973,
16,0,16,0,4,0,4,0,,,,,,,,,,,,,,,,,,,,,,,,,,,,,,,,,,,,,,,,,,,,,,,,,,,,,,1104.8075480000116,1104.8075480000116,0.007974700070917606,0.11432510009035468,5.0,1.4071827000007033,,,,,,,,,,,,1981,Moral,2024-08-20_10h43.42.109,MoralCondition_v2,2022.2.5,30.002892272895973,
16,0,16,0,5,0,5,0,,,,,,,,,,,,,,,,,,,,,,,,,,,,,,,,,,,,,,,,,,,,,,,,,,,,,,1106.2579077999108,1106.2579077999108,0.007780800107866526,0.11432379996404052,2.0,5.040743899997324,,,,,,,,,,,,1981,Moral,2024-08-20_10h43.42.109,MoralCondition_v2,2022.2.5,30.002892272895973,
16,0,16,0,6,0,6,0,,,,,,,,,,,,,,,,,,,,,,,,,,,,,,,,,,,,,,,,,,,,,,,,,,,,,,1111.324024000205,1111.324024000205,0.008116799872368574,0.0983584001660347,2.0,0.9908556998707354,,,,,,,,,,,,1981,Moral,2024-08-20_10h43.42.109,MoralCondition_v2,2022.2.5,30.002892272895973,
16,0,16,0,,,,,,,,,,,,,,,,,,,,,,,,,,,,,,,,,,,,,,,,,,,,,,,,,,,,,,,,,,,,,,,,1112.3575400998816,1112.3575400998816,0.0013864999637007713,0.09769500000402331,3.0,4.364244299940765,,,,,,1981,Moral,2024-08-20_10h43.42.109,MoralCondition_v2,2022.2.5,30.002892272895973,
17,0,17,0,0,0,0,0,,,,,,,,,,,,,,,,,,,,,1116.7576823998243,0.0001441999338567257,0.09931909991428256,1122.7741308002733,6.016002400312573,,1122.940665199887,1122.940665199887,0.07112610014155507,0.18265589978545904,6.0159073998220265,,1129.0405855998397,1129.0405855998397,1129.0405855998397,0.07223489973694086,0.18247269978746772,1134.7407297999598,1134.9410923998803,6.016233999747783,6.1158247999846935,1140.9407013999298,12.01585099985823,1141.0740799000487,1141.0740799000487,0.015979199670255184,0.1159095000475645,up,0.437126699835062,1141.5740565001033,2.840021625161171e-05,0.09881850006058812,,1147.5912645999342,1147.5912645999342,0.024844800122082233,0.11504200007766485,2.0,9.091571899596602,,,,,,,1141.0406801998615,1141.0406801998615,,1128.9407310001552,1128.9407310001552,1981,Moral,2024-08-20_10h43.42.109,MoralCondition_v2,2022.2.5,30.002892272895973,
17,0,17,0,1,0,1,0,,,,,,,,,,,,,,,,,,,,,,,,,,,,,,,,,,,,,,,,,,,,,,,,,,,,,,1156.7238822001964,1156.7238822001964,0.008198299910873175,0.09929329995065928,5.0,2.325068200007081,,,,,,,,,,,,1981,Moral,2024-08-20_10h43.42.109,MoralCondition_v2,2022.2.5,30.002892272895973,
17,0,17,0,2,0,2,0,,,,,,,,,,,,,,,,,,,,,,,,,,,,,,,,,,,,,,,,,,,,,,,,,,,,,,1159.0905017000623,1159.0905017000623,0.006606800016015768,0.09914859989657998,5.0,2.360263700131327,,,,,,,,,,,,1981,Moral,2024-08-20_10h43.42.109,MoralCondition_v2,2022.2.5,30.002892272895973,
17,0,17,0,3,0,3,0,,,,,,,,,,,,,,,,,,,,,,,,,,,,,,,,,,,,,,,,,,,,,,,,,,,,,,1161.5073326001875,1161.5073326001875,0.0075912997126579285,0.11409739963710308,7.0,1.6741798999719322,,,,,,,,,,,,1981,Moral,2024-08-20_10h43.42.109,MoralCondition_v2,2022.2.5,30.002892272895973,
17,0,17,0,4,0,4,0,,,,,,,,,,,,,,,,,,,,,,,,,,,,,,,,,,,,,,,,,,,,,,,,,,,,,,1163.2074632998556,1163.2074632998556,0.006548600271344185,0.09888550033792853,2.0,4.060348399914801,,,,,,,,,,,,1981,Moral,2024-08-20_10h43.42.109,MoralCondition_v2,2022.2.5,30.002892272895973,
17,0,17,0,5,0,5,0,,,,,,,,,,,,,,,,,,,,,,,,,,,,,,,,,,,,,,,,,,,,,,,,,,,,,,1167.307167199906,1167.307167199906,0.006841700058430433,0.09904639981687069,3.0,2.326809899881482,,,,,,,,,,,,1981,Moral,2024-08-20_10h43.42.109,MoralCondition_v2,2022.2.5,30.002892272895973,
17,0,17,0,6,0,6,0,,,,,,,,,,,,,,,,,,,,,,,,,,,,,,,,,,,,,,,,,,,,,,,,,,,,,,1169.6740325000137,1169.6740325000137,0.006770099978893995,0.09892069967463613,2.0,2.026095600333065,,,,,,,,,,,,1981,Moral,2024-08-20_10h43.42.109,MoralCondition_v2,2022.2.5,30.002892272895973,
17,0,17,0,,,,,,,,,,,,,,,,,,,,,,,,,,,,,,,,,,,,,,,,,,,,,,,,,,,,,,,,,,,,,,,,1171.7405401002616,1171.7405401002616,0.0013796002604067326,0.09771540015935898,2.0,4.9646787997335196,,,,,,1981,Moral,2024-08-20_10h43.42.109,MoralCondition_v2,2022.2.5,30.002892272895973,
18,0,18,0,0,0,0,0,,,,,,,,,,,,,,,,,,,,,1176.7407815000042,0.00027929991483688354,0.09815330011770129,1182.7405469999649,6.031309499870986,,1182.9240215001628,1182.9240215001628,0.06884179962798953,0.181498599704355,6.014607299584895,,1189.0237670000643,1189.0237670000643,1189.0237670000643,0.06911979988217354,0.18127679964527488,1194.7239371002652,1194.9239162998274,6.0146972998045385,6.114563899580389,1200.9240703000687,12.014823699835688,1201.0571683002636,1201.0571683002636,0.014592699706554413,0.11451569944620132,up,0.4538753996603191,1201.5571762002073,4.83999028801918e-05,0.09781270008534193,1207.5570664000697,1207.5570664000697,1207.5570664000697,0.009007600136101246,0.09795300010591745,3.0,14.889946700073779,,,,,,,1201.007071299944,1201.007071299944,,1188.9239322999492,1188.9239322999492,1981,Moral,2024-08-20_10h43.42.109,MoralCondition_v2,2022.2.5,30.002892272895973,
18,0,18,0,1,0,1,0,,,,,,,,,,,,,,,,,,,,,,,,,,,,,,,,,,,,,,,,,,,,,,,,,,,,,,1222.490633700043,1222.490633700043,0.008496600203216076,0.0973861999809742,3.0,5.190086700022221,,,,,,,,,,,,1981,Moral,2024-08-20_10h43.42.109,MoralCondition_v2,2022.2.5,30.002892272895973,
18,0,18,0,2,0,2,0,,,,,,,,,,,,,,,,,,,,,,,,,,,,,,,,,,,,,,,,,,,,,,,,,,,,,,1227.723708699923,1227.723708699923,0.007377800066024065,0.09843169990926981,7.0,2.65863800002262,,,,,,,,,,,,1981,Moral,2024-08-20_10h43.42.109,MoralCondition_v2,2022.2.5,30.002892272895973,
18,0,18,0,3,0,3,0,,,,,,,,,,,,,,,,,,,,,,,,,,,,,,,,,,,,,,,,,,,,,,,,,,,,,,1230.4236826999113,1230.4236826999113,0.00731180002912879,0.09790160041302443,2.0,5.4918324002064764,,,,,,,,,,,,1981,Moral,2024-08-20_10h43.42.109,MoralCondition_v2,2022.2.5,30.002892272895973,
18,0,18,0,4,0,4,0,,,,,,,,,,,,,,,,,,,,,,,,,,,,,,,,,,,,,,,,,,,,,,,,,,,,,,1235.956856300123,1235.956856300123,0.006940700113773346,0.09927769983187318,4.0,3.626942000351846,,,,,,,,,,,,1981,Moral,2024-08-20_10h43.42.109,MoralCondition_v2,2022.2.5,30.002892272895973,
18,0,18,0,5,0,5,0,,,,,,,,,,,,,,,,,,,,,,,,,,,,,,,,,,,,,,,,,,,,,,,,,,,,,,1239.623775899876,1239.623775899876,0.007943700067698956,0.09780180035158992,2.0,5.557836499996483,,,,,,,,,,,,1981,Moral,2024-08-20_10h43.42.109,MoralCondition_v2,2022.2.5,30.002892272895973,
18,0,18,0,6,0,6,0,,,,,,,,,,,,,,,,,,,,,,,,,,,,,,,,,,,,,,,,,,,,,,,,,,,,,,1245.2403414999135,1245.2403414999135,0.008409699890762568,0.11487240018323064,4.0,2.4405817999504507,,,,,,,,,,,,1981,Moral,2024-08-20_10h43.42.109,MoralCondition_v2,2022.2.5,30.002892272895973,
18,0,18,0,,,,,,,,,,,,,,,,,,,,,,,,,,,,,,,,,,,,,,,,,,,,,,,,,,,,,,,,,,,,,,,,1247.7070697001182,1247.7070697001182,0.0012734998017549515,0.09745969995856285,2.0,5.097522299736738,,,,,,1981,Moral,2024-08-20_10h43.42.109,MoralCondition_v2,2022.2.5,30.002892272895973,
19,0,19,0,0,0,0,0,,,,,,,,,,,,,,,,,,,,,1252.840574900154,0.0003151996061205864,0.09779499983415008,1258.8402716000564,6.0311421998776495,,1259.023551300168,1259.023551300168,0.06673039961606264,0.18118239985778928,6.014509399887174,,1265.1235707998276,1265.1235707998276,1265.1235707998276,0.06662629963830113,0.18106239987537265,1270.8235537,1271.0235684001818,6.01445799972862,6.114398699719459,1277.0235325000249,12.014468899462372,1277.156905000098,1277.156905000098,0.014575599692761898,0.11437049973756075,up,1.3627359997481108,1278.573505999986,3.840029239654541e-05,0.0982067002914846,1284.573602099903,1284.573602099903,1284.573602099903,0.009015300311148167,0.09799459995701909,4.0,5.390192800201476,,,,,,,1277.1235664999112,1277.1235664999112,,1265.0235592001118,1265.0235592001118,1981,Moral,2024-08-20_10h43.42.109,MoralCondition_v2,2022.2.5,30.002892272895973,
19,0,19,0,1,0,1,0,,,,,,,,,,,,,,,,,,,,,,,,,,,,,,,,,,,,,,,,,,,,,,,,,,,,,,1290.0069797998294,1290.0069797998294,0.006463800091296434,0.09887290000915527,7.0,1.693518899846822,,,,,,,,,,,,1981,Moral,2024-08-20_10h43.42.109,MoralCondition_v2,2022.2.5,30.002892272895973,
19,0,19,0,2,0,2,0,,,,,,,,,,,,,,,,,,,,,,,,,,,,,,,,,,,,,,,,,,,,,,,,,,,,,,1291.7400672002696,1291.7400672002696,0.007562700193375349,0.09812230011448264,2.0,4.024935200344771,,,,,,,,,,,,1981,Moral,2024-08-20_10h43.42.109,MoralCondition_v2,2022.2.5,30.002892272895973,
19,0,19,0,3,0,3,0,,,,,,,,,,,,,,,,,,,,,,,,,,,,,,,,,,,,,,,,,,,,,,,,,,,,,,1295.8068031999283,1295.8068031999283,0.006345599889755249,0.09922160021960735,2.0,0.9270649999380112,,,,,,,,,,,,1981,Moral,2024-08-20_10h43.42.109,MoralCondition_v2,2022.2.5,30.002892272895973,
19,0,19,0,4,0,4,0,,,,,,,,,,,,,,,,,,,,,,,,,,,,,,,,,,,,,,,,,,,,,,,,,,,,,,1296.7901905998588,1296.7901905998588,0.00820449972525239,0.11444729985669255,2.0,1.8739990000613034,,,,,,,,,,,,1981,Moral,2024-08-20_10h43.42.109,MoralCondition_v2,2022.2.5,30.002892272895973,
19,0,19,0,5,0,5,0,,,,,,,,,,,,,,,,,,,,,,,,,,,,,,,,,,,,,,,,,,,,,,,,,,,,,,1298.6903324001469,1298.6903324001469,0.007762500084936619,0.09765810007229447,2.0,1.323872399982065,,,,,,,,,,,,1981,Moral,2024-08-20_10h43.42.109,MoralCondition_v2,2022.2.5,30.002892272895973,
19,0,19,0,6,0,6,0,,,,,,,,,,,,,,,,,,,,,,,,,,,,,,,,,,,,,,,,,,,,,,,,,,,,,,1300.0567481000908,1300.0567481000908,0.007224800065159798,0.09770329995080829,4.0,2.6582137998193502,,,,,,,,,,,,1981,Moral,2024-08-20_10h43.42.109,MoralCondition_v2,2022.2.5,30.002892272895973,
19,0,19,0,,,,,,,,,,,,,,,,,,,,,,,,,,,,,,,,,,,,,,,,,,,,,,,,,,,,,,,,,,,,,,,,1302.7568454998545,1302.7568454998545,0.0006539998576045036,0.09919380024075508,2.0,2.099958499893546,,,,,,1981,Moral,2024-08-20_10h43.42.109,MoralCondition_v2,2022.2.5,30.002892272895973,
