loop.thisRepN,loop.thisTrialN,loop.thisN,loop.thisIndex,evaluate_all_emotions.thisRepN,evaluate_all_emotions.thisTrialN,evaluate_all_emotions.thisN,evaluate_all_emotions.thisIndex,sync_beep_1.started,p_port.started,p_port.stopped,sync_beep_1.stopped,sync_beep_2.started,sync_beep_2.stopped,sync_beep_3.started,sync_beep_3.stopped,sync_beep_4.started,sync_beep_4.stopped,baseline.started,p_port_2.started,p_port_2.stopped,baseline.stopped,p_port_3.started,Game_Start_Text.started,p_port_4.started,p_port_4.stopped,key_resp.started,key_resp.keys,key_resp.rt,fixation_cross.started,p_port_5.started,p_port_5.stopped,fixation_cross.stopped,p_port_6.started,player_image_intro.started,player_name_intro.started,p_port_7.started,p_port_7.stopped,p_port_8.started,player_image_offer.started,player_name_offer.started,proposed_split.started,p_port_9.started,p_port_9.stopped,proposed_split.stopped,accept_reject.started,p_port_15.started,p_port_15.stopped,accept_reject.stopped,p_port_10.started,arrow_instructions.started,offer_choice.started,p_port_11.started,p_port_11.stopped,offer_choice.keys,offer_choice.rt,Instructions_Affinity_Score.started,p_port_12.started,p_port_12.stopped,Instructions_Affinity_Score.stopped,Emotion_Image.started,AffinityScore.started,p_port_13.started,p_port_13.stopped,AffinityScore.response,AffinityScore.rt,Instruction.started,Moral_Disgust_Score.started,p_port_14.started,p_port_14.stopped,Moral_Disgust_Score.response,Moral_Disgust_Score.rt,player_image_offer.stopped,player_name_offer.stopped,player_image_intro.stopped,player_name_intro.stopped,p_port_6.stopped,p_port_8.stopped,p_port_10.stopped,participant,session,date,expName,psychopyVersion,frameRate,
,,,,,,,,20.159198520728385,0.0008993999799713492,0.11175909999292344,20.474642500048503,20.75795918002259,21.074645500048064,21.35821407996118,21.67472530005034,21.957998680043964,22.291273499955423,22.291273499955423,0.009717100067064166,0.11196600005496293,37.291419000015594,15.012024800060317,37.39141459995881,0.012118900078348815,0.11194460012484342,37.858054199954495,space,1.550498600001447,,,,,,,,,,,,,,,,,,,,,,,,,,,,,,,,,,,,,,,,,,,,,,,,,,,2635,Moral,2025-03-07_16h29.35.240,MoralCondition_v2,2022.2.5,29.99891403453524,
0,0,0,0,0,0,0,0,,,,,,,,,,,,,,,,,,,,,,39.45805729995482,0.002526999916881323,0.09850159997586161,45.45807010005228,6.031922099995427,45.791466400027275,45.791466400027275,0.19694829999934882,0.3321073999395594,6.031971300020814,51.791339299990796,51.791339299990796,51.791339299990796,0.09598570002708584,0.23184160003438592,57.491418099962175,57.658042300026864,6.031913400045596,6.131842500064522,63.65808269998524,12.031984000001103,63.791510300012305,63.791510300012305,0.032117700087837875,0.131857700063847,down,1.4535179000813514,65.29139429994393,4.540011286735535e-05,0.09741930000018328,71.30801879998762,71.30801879998762,71.30801879998762,0.007671700092032552,0.1141600999981165,5.0,9.807394000003114,,,,,,,,,,,,,,2635,Moral,2025-03-07_16h29.35.240,MoralCondition_v2,2022.2.5,29.99891403453524,
0,0,0,0,1,0,1,0,,,,,,,,,,,,,,,,,,,,,,,,,,,,,,,,,,,,,,,,,,,,,,,,,,,,,81.15814810001757,81.15814810001757,0.00962889997754246,0.11473859997931868,5.0,5.205982700106688,,,,,,,,,,,,,,2635,Moral,2025-03-07_16h29.35.240,MoralCondition_v2,2022.2.5,29.99891403453524,
0,0,0,0,2,0,2,0,,,,,,,,,,,,,,,,,,,,,,,,,,,,,,,,,,,,,,,,,,,,,,,,,,,,,86.40796480001882,86.40796480001882,0.018208299996331334,0.11405470001045614,3.0,3.2632958000758663,,,,,,,,,,,,,,2635,Moral,2025-03-07_16h29.35.240,MoralCondition_v2,2022.2.5,29.99891403453524,
0,0,0,0,3,0,3,0,,,,,,,,,,,,,,,,,,,,,,,,,,,,,,,,,,,,,,,,,,,,,,,,,,,,,89.70810379995964,89.70810379995964,0.009665200021117926,0.09766800003126264,3.0,3.1555759999901056,,,,,,,,,,,,,,2635,Moral,2025-03-07_16h29.35.240,MoralCondition_v2,2022.2.5,29.99891403453524,
0,0,0,0,4,0,4,0,,,,,,,,,,,,,,,,,,,,,,,,,,,,,,,,,,,,,,,,,,,,,,,,,,,,,92.90821799996775,92.90821799996775,0.011208800016902387,0.09765010001137853,5.0,3.487604200025089,,,,,,,,,,,,,,2635,Moral,2025-03-07_16h29.35.240,MoralCondition_v2,2022.2.5,29.99891403453524,
0,0,0,0,5,0,5,0,,,,,,,,,,,,,,,,,,,,,,,,,,,,,,,,,,,,,,,,,,,,,,,,,,,,,96.45814530004282,96.45814530004282,0.009242000058293343,0.11472650000359863,5.0,2.4395946000004187,,,,,,,,,,,,,,2635,Moral,2025-03-07_16h29.35.240,MoralCondition_v2,2022.2.5,29.99891403453524,
0,0,0,0,6,0,6,0,,,,,,,,,,,,,,,,,,,,,,,,,,,,,,,,,,,,,,,,,,,,,,,,,,,,,98.94154539995361,98.94154539995361,0.01092829997651279,0.11604780005291104,5.0,1.7394266000483185,,,,,,,,,,,,,,2635,Moral,2025-03-07_16h29.35.240,MoralCondition_v2,2022.2.5,29.99891403453524,
0,0,0,0,,,,,,,,,,,,,,,,,,,,,,,,,,,,,,,,,,,,,,,,,,,,,,,,,,,,,,,,,,,,,,,100.7080351000186,100.7080351000186,0.002086500055156648,0.09729190007783473,3.0,6.396448599989526,,,,,,,,2635,Moral,2025-03-07_16h29.35.240,MoralCondition_v2,2022.2.5,29.99891403453524,
1,0,1,0,0,0,0,0,,,,,,,,,,,,,,,,,,,,,,107.14175099995919,0.00014220003504306078,0.0994838000042364,113.15811850002501,6.016144099994563,113.35805449995678,113.35805449995678,0.10282030003145337,0.21584379998967052,6.015795100014657,119.42477080004755,119.42477080004755,119.42477080004755,0.08672360004857183,0.1823402000591159,125.12491829995997,125.32476770004723,6.015741100069135,6.115707900025882,131.32476640003733,12.015739700058475,131.4581064999802,131.4581064999802,0.015959400101564825,0.1154324000235647,down,1.083168899989687,132.59146729996428,3.8899946957826614e-05,0.09789510001428425,,138.62494070001412,138.62494070001412,0.02474739996250719,0.13133240002207458,5.0,2.4074170000385493,,,,,,,131.42479009996168,131.42479009996168,,,,,,2635,Moral,2025-03-07_16h29.35.240,MoralCondition_v2,2022.2.5,29.99891403453524,
1,0,1,0,1,0,1,0,,,,,,,,,,,,,,,,,,,,,,,,,,,,,,,,,,,,,,,,,,,,,,,,,,,,,141.05788269999903,141.05788269999903,0.008521500043570995,0.09746379998978227,5.0,2.423537499969825,,,,,,,,,,,,,,2635,Moral,2025-03-07_16h29.35.240,MoralCondition_v2,2022.2.5,29.99891403453524,
1,0,1,0,2,0,2,0,,,,,,,,,,,,,,,,,,,,,,,,,,,,,,,,,,,,,,,,,,,,,,,,,,,,,143.5248128999956,143.5248128999956,0.006370999966748059,0.09926389995962381,5.0,1.193891100003384,,,,,,,,,,,,,,2635,Moral,2025-03-07_16h29.35.240,MoralCondition_v2,2022.2.5,29.99891403453524,
1,0,1,0,3,0,3,0,,,,,,,,,,,,,,,,,,,,,,,,,,,,,,,,,,,,,,,,,,,,,,,,,,,,,144.7581196000101,144.7581196000101,0.006424400024116039,0.09942590002901852,5.0,2.6940566999837756,,,,,,,,,,,,,,2635,Moral,2025-03-07_16h29.35.240,MoralCondition_v2,2022.2.5,29.99891403453524,
1,0,1,0,4,0,4,0,,,,,,,,,,,,,,,,,,,,,,,,,,,,,,,,,,,,,,,,,,,,,,,,,,,,,147.50842019997071,147.50842019997071,0.007949999999254942,0.11396340001374483,4.0,4.373606899986044,,,,,,,,,,,,,,2635,Moral,2025-03-07_16h29.35.240,MoralCondition_v2,2022.2.5,29.99891403453524,
1,0,1,0,5,0,5,0,,,,,,,,,,,,,,,,,,,,,,,,,,,,,,,,,,,,,,,,,,,,,,,,,,,,,151.90811299998313,151.90811299998313,0.008004099945537746,0.09920109994709492,5.0,1.4256664999993518,,,,,,,,,,,,,,2635,Moral,2025-03-07_16h29.35.240,MoralCondition_v2,2022.2.5,29.99891403453524,
1,0,1,0,6,0,6,0,,,,,,,,,,,,,,,,,,,,,,,,,,,,,,,,,,,,,,,,,,,,,,,,,,,,,153.3746849000454,153.3746849000454,0.00643149996176362,0.09943559998646379,3.0,1.9938795000780374,,,,,,,,,,,,,,2635,Moral,2025-03-07_16h29.35.240,MoralCondition_v2,2022.2.5,29.99891403453524,
1,0,1,0,,,,,,,,,,,,,,,,,,,,,,,,,,,,,,,,,,,,,,,,,,,,,,,,,,,,,,,,,,,,,,,155.40806819999125,155.40806819999125,0.001397599931806326,0.09788599994499236,3.0,4.131037499988452,,,,,,,,2635,Moral,2025-03-07_16h29.35.240,MoralCondition_v2,2022.2.5,29.99891403453524,
2,0,2,0,0,0,0,0,,,,,,,,,,,,,,,,,,,,,,159.57500650000293,0.0002581999870017171,0.09784980001859367,165.5749160000123,6.031394000048749,165.75798710004892,165.75798710004892,0.07183920009993017,0.18124770000576973,6.014514200040139,171.8583396000322,171.8583396000322,171.8583396000322,0.07104460010305047,0.1813838001107797,177.5581207999494,177.758304100018,6.014790800050832,6.114492800086737,183.758189199958,12.014604600029998,183.89146700000856,183.89146700000856,0.014679600135423243,0.11462820007000118,up,0.7134362999349833,184.65815310005564,4.409998655319214e-05,0.09776520007289946,190.67458079999778,190.67458079999778,190.67458079999778,0.0098676000488922,0.11427710007410496,6.0,4.239150600042194,,,,,,,183.8581135000568,183.8581135000568,171.7582888000179,171.7582888000179,,,,2635,Moral,2025-03-07_16h29.35.240,MoralCondition_v2,2022.2.5,29.99891403453524,
2,0,2,0,1,0,1,0,,,,,,,,,,,,,,,,,,,,,,,,,,,,,,,,,,,,,,,,,,,,,,,,,,,,,194.9414442999987,194.9414442999987,0.008779500029049814,0.09656039997935295,2.0,2.788962700054981,,,,,,,,,,,,,,2635,Moral,2025-03-07_16h29.35.240,MoralCondition_v2,2022.2.5,29.99891403453524,
2,0,2,0,2,0,2,0,,,,,,,,,,,,,,,,,,,,,,,,,,,,,,,,,,,,,,,,,,,,,,,,,,,,,197.7747102000285,197.7747102000285,0.007543300045654178,0.09762900008354336,2.0,1.0243362000910565,,,,,,,,,,,,,,2635,Moral,2025-03-07_16h29.35.240,MoralCondition_v2,2022.2.5,29.99891403453524,
2,0,2,0,3,0,3,0,,,,,,,,,,,,,,,,,,,,,,,,,,,,,,,,,,,,,,,,,,,,,,,,,,,,,198.8414395999862,198.8414395999862,0.006732900044880807,0.09925160009879619,2.0,2.7269501000409946,,,,,,,,,,,,,,2635,Moral,2025-03-07_16h29.35.240,MoralCondition_v2,2022.2.5,29.99891403453524,
2,0,2,0,4,0,4,0,,,,,,,,,,,,,,,,,,,,,,,,,,,,,,,,,,,,,,,,,,,,,,,,,,,,,201.6250431999797,201.6250431999797,0.009434300009161234,0.1143770000198856,2.0,1.0729775000363588,,,,,,,,,,,,,,2635,Moral,2025-03-07_16h29.35.240,MoralCondition_v2,2022.2.5,29.99891403453524,
2,0,2,0,5,0,5,0,,,,,,,,,,,,,,,,,,,,,,,,,,,,,,,,,,,,,,,,,,,,,,,,,,,,,202.72499709995463,202.72499709995463,0.0076926000183448195,0.09738319995813072,2.0,1.4241129999281839,,,,,,,,,,,,,,2635,Moral,2025-03-07_16h29.35.240,MoralCondition_v2,2022.2.5,29.99891403453524,
2,0,2,0,6,0,6,0,,,,,,,,,,,,,,,,,,,,,,,,,,,,,,,,,,,,,,,,,,,,,,,,,,,,,204.19144109997433,204.19144109997433,0.005778999999165535,0.09909579996019602,2.0,0.7279010999482125,,,,,,,,,,,,,,2635,Moral,2025-03-07_16h29.35.240,MoralCondition_v2,2022.2.5,29.99891403453524,
2,0,2,0,,,,,,,,,,,,,,,,,,,,,,,,,,,,,,,,,,,,,,,,,,,,,,,,,,,,,,,,,,,,,,,204.95832390000578,204.95832390000578,0.0017033000476658344,0.09742560004815459,6.0,3.6970660999650136,,,,,,,,2635,Moral,2025-03-07_16h29.35.240,MoralCondition_v2,2022.2.5,29.99891403453524,
3,0,3,0,0,0,0,0,,,,,,,,,,,,,,,,,,,,,,208.69172350002918,0.0003358999965712428,0.11444179993122816,214.69148030003998,6.031030699959956,214.9415456999559,214.9415456999559,0.13714210002217442,0.24784860003273934,6.0143148000352085,220.9917217999464,220.9917217999464,220.9917217999464,0.09002380003221333,0.19768630003090948,226.69149350002408,226.89181689999532,6.031391600030474,6.1310660999733955,232.89170689997263,12.031202599988319,232.9913842000533,232.9913842000533,0.01408410002477467,0.09773530007805675,down,0.3653165000723675,233.39152730000205,7.730000652372837e-05,0.09791160002350807,239.3915390999755,239.3915390999755,239.3915390999755,0.009053900022991002,0.09783640003297478,3.0,2.5899290000088513,,,,,,,232.97454530000687,232.97454530000687,,,,,,2635,Moral,2025-03-07_16h29.35.240,MoralCondition_v2,2022.2.5,29.99891403453524,
3,0,3,0,1,0,1,0,,,,,,,,,,,,,,,,,,,,,,,,,,,,,,,,,,,,,,,,,,,,,,,,,,,,,242.0247697000159,242.0247697000159,0.0065608000149950385,0.09927889995742589,3.0,0.7603287999518216,,,,,,,,,,,,,,2635,Moral,2025-03-07_16h29.35.240,MoralCondition_v2,2022.2.5,29.99891403453524,
3,0,3,0,2,0,2,0,,,,,,,,,,,,,,,,,,,,,,,,,,,,,,,,,,,,,,,,,,,,,,,,,,,,,242.82486729999073,242.82486729999073,0.00813850003760308,0.09757350001018494,3.0,0.9239255000138655,,,,,,,,,,,,,,2635,Moral,2025-03-07_16h29.35.240,MoralCondition_v2,2022.2.5,29.99891403453524,
3,0,3,0,3,0,3,0,,,,,,,,,,,,,,,,,,,,,,,,,,,,,,,,,,,,,,,,,,,,,,,,,,,,,243.79138259997126,243.79138259997126,0.00665550003759563,0.09917850000783801,3.0,4.926994899986312,,,,,,,,,,,,,,2635,Moral,2025-03-07_16h29.35.240,MoralCondition_v2,2022.2.5,29.99891403453524,
3,0,3,0,4,0,4,0,,,,,,,,,,,,,,,,,,,,,,,,,,,,,,,,,,,,,,,,,,,,,,,,,,,,,248.75807860004716,248.75807860004716,0.007844000007025898,0.0977986000943929,3.0,3.157783200033009,,,,,,,,,,,,,,2635,Moral,2025-03-07_16h29.35.240,MoralCondition_v2,2022.2.5,29.99891403453524,
3,0,3,0,5,0,5,0,,,,,,,,,,,,,,,,,,,,,,,,,,,,,,,,,,,,,,,,,,,,,,,,,,,,,251.95827329996973,251.95827329996973,0.008195000002160668,0.09886190004181117,5.0,3.758556699962355,,,,,,,,,,,,,,2635,Moral,2025-03-07_16h29.35.240,MoralCondition_v2,2022.2.5,29.99891403453524,
3,0,3,0,6,0,6,0,,,,,,,,,,,,,,,,,,,,,,,,,,,,,,,,,,,,,,,,,,,,,,,,,,,,,255.7579314999748,255.7579314999748,0.0076422999845817685,0.09777250001206994,3.0,4.224636900005862,,,,,,,,,,,,,,2635,Moral,2025-03-07_16h29.35.240,MoralCondition_v2,2022.2.5,29.99891403453524,
3,0,3,0,,,,,,,,,,,,,,,,,,,,,,,,,,,,,,,,,,,,,,,,,,,,,,,,,,,,,,,,,,,,,,,260.0250858999789,260.0250858999789,0.0007130000740289688,0.0991488000145182,3.0,5.466336999903433,,,,,,,,2635,Moral,2025-03-07_16h29.35.240,MoralCondition_v2,2022.2.5,29.99891403453524,
4,0,4,0,0,0,0,0,,,,,,,,,,,,,,,,,,,,,,265.52499129995704,0.00020509993191808462,0.09840779996011406,271.5414874999551,6.015183299896307,271.7584311000537,271.7584311000537,0.11838769994210452,0.23169089993461967,6.031640799948946,277.82481270004064,277.82481270004064,277.82481270004064,0.08284849999472499,0.19852169998921454,283.52484590001404,283.72485630004667,6.031722199986689,6.131655300036073,289.7248289999552,12.03170189994853,289.85818029998336,289.85818029998336,0.03189460001885891,0.13191570003982633,down,0.8583413999294862,290.7581946999999,2.2699940018355846e-05,0.09940539998933673,,296.77470800001174,296.77470800001174,0.025322500034235418,0.11616119998507202,3.0,2.1584431000519544,,,,,,,289.8248652999755,289.8248652999755,,,,,,2635,Moral,2025-03-07_16h29.35.240,MoralCondition_v2,2022.2.5,29.99891403453524,
4,0,4,0,1,0,1,0,,,,,,,,,,,,,,,,,,,,,,,,,,,,,,,,,,,,,,,,,,,,,,,,,,,,,298.97484110004734,298.97484110004734,0.006617699982598424,0.09841600002255291,5.0,1.5264283999567851,,,,,,,,,,,,,,2635,Moral,2025-03-07_16h29.35.240,MoralCondition_v2,2022.2.5,29.99891403453524,
4,0,4,0,2,0,2,0,,,,,,,,,,,,,,,,,,,,,,,,,,,,,,,,,,,,,,,,,,,,,,,,,,,,,300.54143910005223,300.54143910005223,0.006546700024046004,0.09929730009753257,5.0,4.060255700023845,,,,,,,,,,,,,,2635,Moral,2025-03-07_16h29.35.240,MoralCondition_v2,2022.2.5,29.99891403453524,
4,0,4,0,3,0,3,0,,,,,,,,,,,,,,,,,,,,,,,,,,,,,,,,,,,,,,,,,,,,,,,,,,,,,304.6414863000391,304.6414863000391,0.007066700025461614,0.09791359992232174,5.0,1.3917456000344828,,,,,,,,,,,,,,2635,Moral,2025-03-07_16h29.35.240,MoralCondition_v2,2022.2.5,29.99891403453524,
4,0,4,0,4,0,4,0,,,,,,,,,,,,,,,,,,,,,,,,,,,,,,,,,,,,,,,,,,,,,,,,,,,,,306.0917885999661,306.0917885999661,0.007994999992661178,0.1142450999468565,5.0,1.0406535000074655,,,,,,,,,,,,,,2635,Moral,2025-03-07_16h29.35.240,MoralCondition_v2,2022.2.5,29.99891403453524,
4,0,4,0,5,0,5,0,,,,,,,,,,,,,,,,,,,,,,,,,,,,,,,,,,,,,,,,,,,,,,,,,,,,,307.15835719997995,307.15835719997995,0.007073800079524517,0.09885180008132011,5.0,0.9598502999870107,,,,,,,,,,,,,,2635,Moral,2025-03-07_16h29.35.240,MoralCondition_v2,2022.2.5,29.99891403453524,
4,0,4,0,6,0,6,0,,,,,,,,,,,,,,,,,,,,,,,,,,,,,,,,,,,,,,,,,,,,,,,,,,,,,308.1579706999473,308.1579706999473,0.00804520002566278,0.09811040002387017,5.0,1.057852300000377,,,,,,,,,,,,,,2635,Moral,2025-03-07_16h29.35.240,MoralCondition_v2,2022.2.5,29.99891403453524,
4,0,4,0,,,,,,,,,,,,,,,,,,,,,,,,,,,,,,,,,,,,,,,,,,,,,,,,,,,,,,,,,,,,,,,309.25810550001916,309.25810550001916,0.0014378000050783157,0.09927290002815425,3.0,2.5323232000228018,,,,,,,,2635,Moral,2025-03-07_16h29.35.240,MoralCondition_v2,2022.2.5,29.99891403453524,
5,0,5,0,0,0,0,0,,,,,,,,,,,,,,,,,,,,,,311.82507679995615,0.00014209991786628962,0.09972309996373951,317.824852699996,5.999279299983755,318.00845580000896,318.00845580000896,0.06782370002474636,0.18265870003961027,6.015949900029227,324.10836920002475,324.10836920002475,324.10836920002475,0.07352920004632324,0.18312229996081442,329.80825500003994,330.00823130004574,6.016042400035076,6.1159408000530675,336.0082659999607,12.01608660002239,336.1415613000281,336.1415613000281,0.016190399997867644,0.11619680002331734,down,0.527868999983184,336.7082077000523,4.299997817724943e-05,0.09767609997652471,,342.7247804000508,342.7247804000508,0.024338599992915988,0.11450149992015213,5.0,1.3910584999248385,,,,,,,336.1082435999997,336.1082435999997,324.00832100003026,324.00832100003026,6.099285000003874,,,2635,Moral,2025-03-07_16h29.35.240,MoralCondition_v2,2022.2.5,29.99891403453524,
5,0,5,0,1,0,1,0,,,,,,,,,,,,,,,,,,,,,,,,,,,,,,,,,,,,,,,,,,,,,,,,,,,,,344.17523799999617,344.17523799999617,0.007881500059738755,0.11379099998157471,5.0,1.8734197999583557,,,,,,,,,,,,,,2635,Moral,2025-03-07_16h29.35.240,MoralCondition_v2,2022.2.5,29.99891403453524,
5,0,5,0,2,0,2,0,,,,,,,,,,,,,,,,,,,,,,,,,,,,,,,,,,,,,,,,,,,,,,,,,,,,,346.0748955999734,346.0748955999734,0.00700049998704344,0.09796729998197407,5.0,1.3587743999669328,,,,,,,,,,,,,,2635,Moral,2025-03-07_16h29.35.240,MoralCondition_v2,2022.2.5,29.99891403453524,
5,0,5,0,3,0,3,0,,,,,,,,,,,,,,,,,,,,,,,,,,,,,,,,,,,,,,,,,,,,,,,,,,,,,347.4747595000081,347.4747595000081,0.0065101999789476395,0.09887370001524687,3.0,1.3268216999713331,,,,,,,,,,,,,,2635,Moral,2025-03-07_16h29.35.240,MoralCondition_v2,2022.2.5,29.99891403453524,
5,0,5,0,4,0,4,0,,,,,,,,,,,,,,,,,,,,,,,,,,,,,,,,,,,,,,,,,,,,,,,,,,,,,348.84140859998297,348.84140859998297,0.007368999999016523,0.09783370001241565,5.0,1.024800300016068,,,,,,,,,,,,,,2635,Moral,2025-03-07_16h29.35.240,MoralCondition_v2,2022.2.5,29.99891403453524,
5,0,5,0,5,0,5,0,,,,,,,,,,,,,,,,,,,,,,,,,,,,,,,,,,,,,,,,,,,,,,,,,,,,,349.9251932000043,349.9251932000043,0.007931499974802136,0.11397599999327213,5.0,0.6736727000679821,,,,,,,,,,,,,,2635,Moral,2025-03-07_16h29.35.240,MoralCondition_v2,2022.2.5,29.99891403453524,
5,0,5,0,6,0,6,0,,,,,,,,,,,,,,,,,,,,,,,,,,,,,,,,,,,,,,,,,,,,,,,,,,,,,350.6249523999868,350.6249523999868,0.006297699990682304,0.0988872000016272,5.0,1.0605778000317514,,,,,,,,,,,,,,2635,Moral,2025-03-07_16h29.35.240,MoralCondition_v2,2022.2.5,29.99891403453524,
5,0,5,0,,,,,,,,,,,,,,,,,,,,,,,,,,,,,,,,,,,,,,,,,,,,,,,,,,,,,,,,,,,,,,,351.7248539000284,351.7248539000284,0.0020487000001594424,0.09713970008306205,3.0,3.6964999999618158,,,,,,,,2635,Moral,2025-03-07_16h29.35.240,MoralCondition_v2,2022.2.5,29.99891403453524,
6,0,6,0,0,0,0,0,,,,,,,,,,,,,,,,,,,,,,355.45815710001625,0.0001221999991685152,0.09957229997962713,361.47489129996393,6.0161373999435455,361.64152519998606,361.64152519998606,0.07836349995341152,0.1829821999417618,6.016090400051326,367.74159770004917,367.74159770004917,367.74159770004917,0.07865150005090982,0.18278020003344864,373.44156009994913,373.64159919996746,6.01606619998347,6.11597070004791,379.6415863999864,12.016055700019933,379.77490560000297,379.77490560000297,0.016129700001329184,0.1159660000121221,up,0.43031510000582784,380.24157630000263,4.849990364164114e-05,0.09801279997918755,386.25816289999057,386.25816289999057,386.25816289999057,0.010391599964350462,0.11478379997424781,3.0,2.638607500004582,,,,,,,379.74153690005187,379.74153690005187,367.64156609994825,367.64156609994825,,,,2635,Moral,2025-03-07_16h29.35.240,MoralCondition_v2,2022.2.5,29.99891403453524,
6,0,6,0,1,0,1,0,,,,,,,,,,,,,,,,,,,,,,,,,,,,,,,,,,,,,,,,,,,,,,,,,,,,,388.9248291000258,388.9248291000258,0.006474400055594742,0.09908770001493394,5.0,1.1937451000558212,,,,,,,,,,,,,,2635,Moral,2025-03-07_16h29.35.240,MoralCondition_v2,2022.2.5,29.99891403453524,
6,0,6,0,2,0,2,0,,,,,,,,,,,,,,,,,,,,,,,,,,,,,,,,,,,,,,,,,,,,,,,,,,,,,390.1581446999917,390.1581446999917,0.006599599961191416,0.09927700005937368,5.0,0.6267220999579877,,,,,,,,,,,,,,2635,Moral,2025-03-07_16h29.35.240,MoralCondition_v2,2022.2.5,29.99891403453524,
6,0,6,0,3,0,3,0,,,,,,,,,,,,,,,,,,,,,,,,,,,,,,,,,,,,,,,,,,,,,,,,,,,,,390.8248901000479,390.8248901000479,0.009957899921573699,0.09713939996436238,5.0,0.6548833000706509,,,,,,,,,,,,,,2635,Moral,2025-03-07_16h29.35.240,MoralCondition_v2,2022.2.5,29.99891403453524,
6,0,6,0,4,0,4,0,,,,,,,,,,,,,,,,,,,,,,,,,,,,,,,,,,,,,,,,,,,,,,,,,,,,,391.52525439998135,391.52525439998135,0.0071546999970451,0.09742350003216416,5.0,0.8577497999649495,,,,,,,,,,,,,,2635,Moral,2025-03-07_16h29.35.240,MoralCondition_v2,2022.2.5,29.99891403453524,
6,0,6,0,5,0,5,0,,,,,,,,,,,,,,,,,,,,,,,,,,,,,,,,,,,,,,,,,,,,,,,,,,,,,392.4249189000111,392.4249189000111,0.006976500037126243,0.09897460008505732,5.0,1.359842500067316,,,,,,,,,,,,,,2635,Moral,2025-03-07_16h29.35.240,MoralCondition_v2,2022.2.5,29.99891403453524,
6,0,6,0,6,0,6,0,,,,,,,,,,,,,,,,,,,,,,,,,,,,,,,,,,,,,,,,,,,,,,,,,,,,,393.8248924999498,393.8248924999498,0.006950799957849085,0.09921669994946569,5.0,1.3936227000085637,,,,,,,,,,,,,,2635,Moral,2025-03-07_16h29.35.240,MoralCondition_v2,2022.2.5,29.99891403453524,
6,0,6,0,,,,,,,,,,,,,,,,,,,,,,,,,,,,,,,,,,,,,,,,,,,,,,,,,,,,,,,,,,,,,,,395.25830660003703,395.25830660003703,0.0010890000266954303,0.09838320000562817,3.0,1.765070000081323,,,,,,,,2635,Moral,2025-03-07_16h29.35.240,MoralCondition_v2,2022.2.5,29.99891403453524,
7,0,7,0,0,0,0,0,,,,,,,,,,,,,,,,,,,,,,397.0586275999667,0.0004235999658703804,0.09704889997374266,403.0583777000429,6.030470600002445,403.25860539998394,403.25860539998394,0.08900060004089028,0.19719740003347397,6.030238899984397,409.35824219998904,409.35824219998904,409.35824219998904,0.08402030006982386,0.1971989000448957,415.05820400000084,415.25846359995194,6.030581400031224,6.130248900037259,421.25821929995436,12.030332700000145,421.3915421999991,421.3915421999991,0.030437300098128617,0.13030760001856834,down,0.5736106999684125,422.0081362000201,1.3500102795660496e-05,0.09951420000288635,428.02505179995205,428.02505179995205,428.02505179995205,0.010993700008839369,0.11631740001030266,5.0,2.1063913999823853,,,,,,,421.358181299991,421.358181299991,409.25819630001206,409.25819630001206,,,,2635,Moral,2025-03-07_16h29.35.240,MoralCondition_v2,2022.2.5,29.99891403453524,
7,0,7,0,1,0,1,0,,,,,,,,,,,,,,,,,,,,,,,,,,,,,,,,,,,,,,,,,,,,,,,,,,,,,430.1750271000201,430.1750271000201,0.009622100042179227,0.11602730001322925,5.0,1.2074751999462023,,,,,,,,,,,,,,2635,Moral,2025-03-07_16h29.35.240,MoralCondition_v2,2022.2.5,29.99891403453524,
7,0,7,0,2,0,2,0,,,,,,,,,,,,,,,,,,,,,,,,,,,,,,,,,,,,,,,,,,,,,,,,,,,,,431.40817760000937,431.40817760000937,0.006944000022485852,0.09925690002273768,5.0,1.4933248000452295,,,,,,,,,,,,,,2635,Moral,2025-03-07_16h29.35.240,MoralCondition_v2,2022.2.5,29.99891403453524,
7,0,7,0,3,0,3,0,,,,,,,,,,,,,,,,,,,,,,,,,,,,,,,,,,,,,,,,,,,,,,,,,,,,,432.9415000999579,432.9415000999579,0.006771999993361533,0.0991611999925226,5.0,0.9601378999650478,,,,,,,,,,,,,,2635,Moral,2025-03-07_16h29.35.240,MoralCondition_v2,2022.2.5,29.99891403453524,
7,0,7,0,4,0,4,0,,,,,,,,,,,,,,,,,,,,,,,,,,,,,,,,,,,,,,,,,,,,,,,,,,,,,433.9583799999673,433.9583799999673,0.007874500006437302,0.11445090000052005,5.0,0.940748899942264,,,,,,,,,,,,,,2635,Moral,2025-03-07_16h29.35.240,MoralCondition_v2,2022.2.5,29.99891403453524,
7,0,7,0,5,0,5,0,,,,,,,,,,,,,,,,,,,,,,,,,,,,,,,,,,,,,,,,,,,,,,,,,,,,,434.924957399955,434.924957399955,0.007958099944517016,0.09726289997342974,5.0,0.8235874000238255,,,,,,,,,,,,,,2635,Moral,2025-03-07_16h29.35.240,MoralCondition_v2,2022.2.5,29.99891403453524,
7,0,7,0,6,0,6,0,,,,,,,,,,,,,,,,,,,,,,,,,,,,,,,,,,,,,,,,,,,,,,,,,,,,,435.79142380005214,435.79142380005214,0.00647770008072257,0.09901680005714297,3.0,1.0936685999622568,,,,,,,,,,,,,,2635,Moral,2025-03-07_16h29.35.240,MoralCondition_v2,2022.2.5,29.99891403453524,
7,0,7,0,,,,,,,,,,,,,,,,,,,,,,,,,,,,,,,,,,,,,,,,,,,,,,,,,,,,,,,,,,,,,,,436.9247502000071,436.9247502000071,0.0018851999193429947,0.09730759996455163,3.0,2.3965640000533313,,,,,,,,2635,Moral,2025-03-07_16h29.35.240,MoralCondition_v2,2022.2.5,29.99891403453524,
8,0,8,0,0,0,0,0,,,,,,,,,,,,,,,,,,,,,,439.3583874000469,0.0003360999980941415,0.09791350003797561,445.3748446999816,6.0144241999369115,445.5415298000444,445.5415298000444,0.07461030001286417,0.18113639997318387,6.014459799975157,451.6417569000041,451.6417569000041,451.6417569000041,0.06689010001718998,0.18111620005220175,457.3415252000559,457.54152780002914,6.014483200036921,6.114377900026739,463.54153339995537,12.01449039997533,463.6580320999492,463.6580320999492,0.014332500053569674,0.09775820001959801,up,0.7391353000421077,464.4415313999634,3.760005347430706e-05,0.09775439999066293,,470.4752986000385,470.4752986000385,0.025896599981933832,0.13142850005533546,3.0,1.9395480999955907,,,,,,,463.62465989997145,463.62465989997145,451.5247281000484,451.5247281000484,,,,2635,Moral,2025-03-07_16h29.35.240,MoralCondition_v2,2022.2.5,29.99891403453524,
8,0,8,0,1,0,1,0,,,,,,,,,,,,,,,,,,,,,,,,,,,,,,,,,,,,,,,,,,,,,,,,,,,,,472.45854470005725,472.45854470005725,0.008209999999962747,0.11430060002021492,5.0,1.706924100057222,,,,,,,,,,,,,,2635,Moral,2025-03-07_16h29.35.240,MoralCondition_v2,2022.2.5,29.99891403453524,
8,0,8,0,2,0,2,0,,,,,,,,,,,,,,,,,,,,,,,,,,,,,,,,,,,,,,,,,,,,,,,,,,,,,474.20807789999526,474.20807789999526,0.0074090000707656145,0.11387580004520714,3.0,2.741004800074734,,,,,,,,,,,,,,2635,Moral,2025-03-07_16h29.35.240,MoralCondition_v2,2022.2.5,29.99891403453524,
8,0,8,0,3,0,3,0,,,,,,,,,,,,,,,,,,,,,,,,,,,,,,,,,,,,,,,,,,,,,,,,,,,,,476.99170220003,476.99170220003,0.00799610000103712,0.11417580000124872,3.0,0.9404921000823379,,,,,,,,,,,,,,2635,Moral,2025-03-07_16h29.35.240,MoralCondition_v2,2022.2.5,29.99891403453524,
8,0,8,0,4,0,4,0,,,,,,,,,,,,,,,,,,,,,,,,,,,,,,,,,,,,,,,,,,,,,,,,,,,,,477.9582117999671,477.9582117999671,0.00796509999781847,0.09759779996238649,3.0,1.0906284999800846,,,,,,,,,,,,,,2635,Moral,2025-03-07_16h29.35.240,MoralCondition_v2,2022.2.5,29.99891403453524,
8,0,8,0,5,0,5,0,,,,,,,,,,,,,,,,,,,,,,,,,,,,,,,,,,,,,,,,,,,,,,,,,,,,,479.1082615000196,479.1082615000196,0.007784000015817583,0.11411069997120649,3.0,2.573962499969639,,,,,,,,,,,,,,2635,Moral,2025-03-07_16h29.35.240,MoralCondition_v2,2022.2.5,29.99891403453524,
8,0,8,0,6,0,6,0,,,,,,,,,,,,,,,,,,,,,,,,,,,,,,,,,,,,,,,,,,,,,,,,,,,,,481.7081361999735,481.7081361999735,0.007193699944764376,0.09797649993561208,3.0,1.2254123000893742,,,,,,,,,,,,,,2635,Moral,2025-03-07_16h29.35.240,MoralCondition_v2,2022.2.5,29.99891403453524,
8,0,8,0,,,,,,,,,,,,,,,,,,,,,,,,,,,,,,,,,,,,,,,,,,,,,,,,,,,,,,,,,,,,,,,482.9749837999698,482.9749837999698,0.0014178999699652195,0.09771780006121844,6.0,3.330903899972327,,,,,,,,2635,Moral,2025-03-07_16h29.35.240,MoralCondition_v2,2022.2.5,29.99891403453524,
9,0,9,0,0,0,0,0,,,,,,,,,,,,,,,,,,,,,,486.34150410001166,0.0002666000509634614,0.09781599999405444,492.3581912999507,6.014536899980158,492.52488549996633,492.52488549996633,0.08284759998787194,0.18164070008788258,6.014569099992514,498.6248702999437,498.6248702999437,498.6248702999437,0.07330600009299815,0.18124160007573664,504.32479820004664,504.52498250000644,6.0147236000048,6.114465200109407,510.5248150000116,12.014546800055541,510.65815230004955,510.65815230004955,0.014579600072465837,0.11448600003495812,up,0.698351199971512,511.4081394999521,4.870002157986164e-05,0.09790860000066459,517.4083512000507,517.4083512000507,517.4083512000507,0.00892819999717176,0.09791280003264546,3.0,2.3233517999760807,,,,,,,510.60799719998613,510.60799719998613,498.5248281999957,498.5248281999957,,,,2635,Moral,2025-03-07_16h29.35.240,MoralCondition_v2,2022.2.5,29.99891403453524,
9,0,9,0,1,0,1,0,,,,,,,,,,,,,,,,,,,,,,,,,,,,,,,,,,,,,,,,,,,,,,,,,,,,,519.7747238000156,519.7747238000156,0.007447600015439093,0.09799649997148663,3.0,1.4915440999902785,,,,,,,,,,,,,,2635,Moral,2025-03-07_16h29.35.240,MoralCondition_v2,2022.2.5,29.99891403453524,
9,0,9,0,2,0,2,0,,,,,,,,,,,,,,,,,,,,,,,,,,,,,,,,,,,,,,,,,,,,,,,,,,,,,521.3251350000501,521.3251350000501,0.00883629999589175,0.11405430000741035,3.0,0.8727741999318823,,,,,,,,,,,,,,2635,Moral,2025-03-07_16h29.35.240,MoralCondition_v2,2022.2.5,29.99891403453524,
9,0,9,0,3,0,3,0,,,,,,,,,,,,,,,,,,,,,,,,,,,,,,,,,,,,,,,,,,,,,,,,,,,,,522.2247571999906,522.2247571999906,0.007529699942097068,0.09936290001496673,3.0,0.8930361999664456,,,,,,,,,,,,,,2635,Moral,2025-03-07_16h29.35.240,MoralCondition_v2,2022.2.5,29.99891403453524,
9,0,9,0,4,0,4,0,,,,,,,,,,,,,,,,,,,,,,,,,,,,,,,,,,,,,,,,,,,,,,,,,,,,,523.1579432999715,523.1579432999715,0.007011499954387546,0.09909579996019602,5.0,1.3930753000313416,,,,,,,,,,,,,,2635,Moral,2025-03-07_16h29.35.240,MoralCondition_v2,2022.2.5,29.99891403453524,
9,0,9,0,5,0,5,0,,,,,,,,,,,,,,,,,,,,,,,,,,,,,,,,,,,,,,,,,,,,,,,,,,,,,524.5913408000488,524.5913408000488,0.0076988000655546784,0.09755609999410808,3.0,1.2578362999483943,,,,,,,,,,,,,,2635,Moral,2025-03-07_16h29.35.240,MoralCondition_v2,2022.2.5,29.99891403453524,
9,0,9,0,6,0,6,0,,,,,,,,,,,,,,,,,,,,,,,,,,,,,,,,,,,,,,,,,,,,,,,,,,,,,525.8915351999458,525.8915351999458,0.008488699910230935,0.09808819997124374,3.0,0.9905533000128344,,,,,,,,,,,,,,2635,Moral,2025-03-07_16h29.35.240,MoralCondition_v2,2022.2.5,29.99891403453524,
9,0,9,0,,,,,,,,,,,,,,,,,,,,,,,,,,,,,,,,,,,,,,,,,,,,,,,,,,,,,,,,,,,,,,,526.9248433000175,526.9248433000175,0.0014716999139636755,0.09727159992326051,6.0,2.763904400053434,,,,,,,,2635,Moral,2025-03-07_16h29.35.240,MoralCondition_v2,2022.2.5,29.99891403453524,
10,0,10,0,0,0,0,0,,,,,,,,,,,,,,,,,,,,,,529.7248112000525,0.0001466000685468316,0.0991605999879539,535.7414245000109,6.015834200079553,535.9081569999689,535.9081569999689,0.08146800007671118,0.18265030009206384,6.0158241000026464,542.0082086999901,542.0082086999901,542.0082086999901,0.07354090013541281,0.1826943000778556,547.7081008000532,547.9082446000539,6.016011900035664,6.115788400056772,553.9082383000059,12.015981400036253,554.0414150999859,554.0414150999859,0.01616450014989823,0.1157397001516074,down,4.291519499965943,558.3913797000423,3.979995381087065e-05,0.0979891000315547,564.4081999999471,564.4081999999471,564.4081999999471,0.010714199976064265,0.11467759998049587,5.0,2.7050050999969244,,,,,,,554.008093600045,554.008093600045,541.9082299999427,541.9082299999427,,,,2635,Moral,2025-03-07_16h29.35.240,MoralCondition_v2,2022.2.5,29.99891403453524,
10,0,10,0,1,0,1,0,,,,,,,,,,,,,,,,,,,,,,,,,,,,,,,,,,,,,,,,,,,,,,,,,,,,,567.1584447999485,567.1584447999485,0.008186399936676025,0.1144322999753058,5.0,1.9406913000857458,,,,,,,,,,,,,,2635,Moral,2025-03-07_16h29.35.240,MoralCondition_v2,2022.2.5,29.99891403453524,
10,0,10,0,2,0,2,0,,,,,,,,,,,,,,,,,,,,,,,,,,,,,,,,,,,,,,,,,,,,,,,,,,,,,569.1415838999674,569.1415838999674,0.007849000045098364,0.11434450000524521,5.0,0.7407871999312192,,,,,,,,,,,,,,2635,Moral,2025-03-07_16h29.35.240,MoralCondition_v2,2022.2.5,29.99891403453524,
10,0,10,0,3,0,3,0,,,,,,,,,,,,,,,,,,,,,,,,,,,,,,,,,,,,,,,,,,,,,,,,,,,,,569.9078612000449,569.9078612000449,0.007712999940849841,0.09774570004083216,5.0,0.6244218000210822,,,,,,,,,,,,,,2635,Moral,2025-03-07_16h29.35.240,MoralCondition_v2,2022.2.5,29.99891403453524,
10,0,10,0,4,0,4,0,,,,,,,,,,,,,,,,,,,,,,,,,,,,,,,,,,,,,,,,,,,,,,,,,,,,,570.5747269999702,570.5747269999702,0.006863099988549948,0.09949189994949847,3.0,1.1936333999037743,,,,,,,,,,,,,,2635,Moral,2025-03-07_16h29.35.240,MoralCondition_v2,2022.2.5,29.99891403453524,
10,0,10,0,5,0,5,0,,,,,,,,,,,,,,,,,,,,,,,,,,,,,,,,,,,,,,,,,,,,,,,,,,,,,571.8080973000033,571.8080973000033,0.006753600086085498,0.09928060008678585,5.0,1.0938677999656647,,,,,,,,,,,,,,2635,Moral,2025-03-07_16h29.35.240,MoralCondition_v2,2022.2.5,29.99891403453524,
10,0,10,0,6,0,6,0,,,,,,,,,,,,,,,,,,,,,,,,,,,,,,,,,,,,,,,,,,,,,,,,,,,,,572.9415520000039,572.9415520000039,0.006978300050832331,0.0983851000200957,5.0,0.7925737000769004,,,,,,,,,,,,,,2635,Moral,2025-03-07_16h29.35.240,MoralCondition_v2,2022.2.5,29.99891403453524,
10,0,10,0,,,,,,,,,,,,,,,,,,,,,,,,,,,,,,,,,,,,,,,,,,,,,,,,,,,,,,,,,,,,,,,573.7749863000354,573.7749863000354,0.0006998999742791057,0.09928510000463575,3.0,2.066439599962905,,,,,,,,2635,Moral,2025-03-07_16h29.35.240,MoralCondition_v2,2022.2.5,29.99891403453524,
11,0,11,0,0,0,0,0,,,,,,,,,,,,,,,,,,,,,,575.8747268000152,0.0004002000205218792,0.09719460003543645,581.8746965000173,6.03050340001937,582.0581974999513,582.0581974999513,0.0753220000769943,0.18075440009124577,6.013789499993436,588.1580167999491,588.1580167999491,588.1580167999491,0.06765140010975301,0.18066980002913624,593.8580482000252,594.0582799999975,6.014090800075792,6.113778300117701,600.0580290999496,12.013827500049956,600.1913541000104,600.1913541000104,0.013892300077714026,0.11385000008158386,up,0.6216922000749037,600.8747105000075,4.880002234131098e-05,0.09745060000568628,,606.9085055999458,606.9085055999458,0.02479890000540763,0.13083690009079874,3.0,3.040877600084059,,,,,,,600.1579718999565,600.1579718999565,588.058040700038,588.058040700038,,,,2635,Moral,2025-03-07_16h29.35.240,MoralCondition_v2,2022.2.5,29.99891403453524,
11,0,11,0,1,0,1,0,,,,,,,,,,,,,,,,,,,,,,,,,,,,,,,,,,,,,,,,,,,,,,,,,,,,,609.9914984999923,609.9914984999923,0.010035599931143224,0.11413709993939847,5.0,1.438378799939528,,,,,,,,,,,,,,2635,Moral,2025-03-07_16h29.35.240,MoralCondition_v2,2022.2.5,29.99891403453524,
11,0,11,0,2,0,2,0,,,,,,,,,,,,,,,,,,,,,,,,,,,,,,,,,,,,,,,,,,,,,,,,,,,,,611.4580395000521,611.4580395000521,0.007056400063447654,0.09805000002961606,3.0,1.3921268000267446,,,,,,,,,,,,,,2635,Moral,2025-03-07_16h29.35.240,MoralCondition_v2,2022.2.5,29.99891403453524,
11,0,11,0,3,0,3,0,,,,,,,,,,,,,,,,,,,,,,,,,,,,,,,,,,,,,,,,,,,,,,,,,,,,,612.9083142000018,612.9083142000018,0.008436899981461465,0.11444859998300672,3.0,1.2068820999702439,,,,,,,,,,,,,,2635,Moral,2025-03-07_16h29.35.240,MoralCondition_v2,2022.2.5,29.99891403453524,
11,0,11,0,4,0,4,0,,,,,,,,,,,,,,,,,,,,,,,,,,,,,,,,,,,,,,,,,,,,,,,,,,,,,614.1411948000314,614.1411948000314,0.007601600023917854,0.09786650002934039,3.0,1.1912435999838635,,,,,,,,,,,,,,2635,Moral,2025-03-07_16h29.35.240,MoralCondition_v2,2022.2.5,29.99891403453524,
11,0,11,0,5,0,5,0,,,,,,,,,,,,,,,,,,,,,,,,,,,,,,,,,,,,,,,,,,,,,,,,,,,,,615.3745664999587,615.3745664999587,0.006623600027523935,0.09913210000377148,3.0,1.1934907999821007,,,,,,,,,,,,,,2635,Moral,2025-03-07_16h29.35.240,MoralCondition_v2,2022.2.5,29.99891403453524,
11,0,11,0,6,0,6,0,,,,,,,,,,,,,,,,,,,,,,,,,,,,,,,,,,,,,,,,,,,,,,,,,,,,,616.6078426999738,616.6078426999738,0.007303499965928495,0.0995262999786064,3.0,0.6931297000264749,,,,,,,,,,,,,,2635,Moral,2025-03-07_16h29.35.240,MoralCondition_v2,2022.2.5,29.99891403453524,
11,0,11,0,,,,,,,,,,,,,,,,,,,,,,,,,,,,,,,,,,,,,,,,,,,,,,,,,,,,,,,,,,,,,,,617.3414967999561,617.3414967999561,0.0007374000269919634,0.09922740003094077,6.0,1.6329587999498472,,,,,,,,2635,Moral,2025-03-07_16h29.35.240,MoralCondition_v2,2022.2.5,29.99891403453524,
12,0,12,0,0,0,0,0,,,,,,,,,,,,,,,,,,,,,,619.0079805999994,0.00022909999825060368,0.1146932999836281,625.0247484999709,6.01460859994404,625.207761800033,625.207761800033,0.08349939994513988,0.19802230002824217,6.031454700045288,631.291288999957,631.291288999957,631.291288999957,0.08209330006502569,0.1816381000680849,636.9912895000307,637.191269599949,6.014667900046334,6.114926000009291,643.1912763,12.01467040006537,643.3245685000438,643.3245685000438,0.015000500017777085,0.11458749999292195,down,0.43230049998965114,643.7912724999478,4.299997817724943e-05,0.09786570002324879,649.7911137000192,649.7911137000192,649.7911137000192,0.00818409991916269,0.09773399995174259,5.0,2.0573358999099582,,,,,,,643.2914424999617,643.2914424999617,631.1911626999499,631.1911626999499,,,,2635,Moral,2025-03-07_16h29.35.240,MoralCondition_v2,2022.2.5,29.99891403453524,
12,0,12,0,1,0,1,0,,,,,,,,,,,,,,,,,,,,,,,,,,,,,,,,,,,,,,,,,,,,,,,,,,,,,651.9081571999704,651.9081571999704,0.008233699947595596,0.11477019998710603,5.0,0.9408109000651166,,,,,,,,,,,,,,2635,Moral,2025-03-07_16h29.35.240,MoralCondition_v2,2022.2.5,29.99891403453524,
12,0,12,0,2,0,2,0,,,,,,,,,,,,,,,,,,,,,,,,,,,,,,,,,,,,,,,,,,,,,,,,,,,,,652.8747368999757,652.8747368999757,0.006603099987842143,0.09864819992799312,5.0,0.9262138999765739,,,,,,,,,,,,,,2635,Moral,2025-03-07_16h29.35.240,MoralCondition_v2,2022.2.5,29.99891403453524,
12,0,12,0,3,0,3,0,,,,,,,,,,,,,,,,,,,,,,,,,,,,,,,,,,,,,,,,,,,,,,,,,,,,,653.841061300016,653.841061300016,0.005760300089605153,0.09943290008231997,3.0,5.1614149999804795,,,,,,,,,,,,,,2635,Moral,2025-03-07_16h29.35.240,MoralCondition_v2,2022.2.5,29.99891403453524,
12,0,12,0,4,0,4,0,,,,,,,,,,,,,,,,,,,,,,,,,,,,,,,,,,,,,,,,,,,,,,,,,,,,,659.0579225999536,659.0579225999536,0.007846699911169708,0.11399039998650551,5.0,1.1070081000216305,,,,,,,,,,,,,,2635,Moral,2025-03-07_16h29.35.240,MoralCondition_v2,2022.2.5,29.99891403453524,
12,0,12,0,5,0,5,0,,,,,,,,,,,,,,,,,,,,,,,,,,,,,,,,,,,,,,,,,,,,,,,,,,,,,660.1912730999757,660.1912730999757,0.006762599921785295,0.09915769996587187,5.0,0.7600702000781894,,,,,,,,,,,,,,2635,Moral,2025-03-07_16h29.35.240,MoralCondition_v2,2022.2.5,29.99891403453524,
12,0,12,0,6,0,6,0,,,,,,,,,,,,,,,,,,,,,,,,,,,,,,,,,,,,,,,,,,,,,,,,,,,,,660.9913548999466,660.9913548999466,0.007889300002716482,0.09768790006637573,5.0,0.7238850999856368,,,,,,,,,,,,,,2635,Moral,2025-03-07_16h29.35.240,MoralCondition_v2,2022.2.5,29.99891403453524,
12,0,12,0,,,,,,,,,,,,,,,,,,,,,,,,,,,,,,,,,,,,,,,,,,,,,,,,,,,,,,,,,,,,,,,661.7579565000487,661.7579565000487,0.0020979000255465508,0.09687010000925511,3.0,2.39589090005029,,,,,,,,2635,Moral,2025-03-07_16h29.35.240,MoralCondition_v2,2022.2.5,29.99891403453524,
13,0,13,0,0,0,0,0,,,,,,,,,,,,,,,,,,,,,,664.1914418999804,0.00027100008446723223,0.09782150003593415,670.2078710000496,6.014453400042839,670.4577537999721,670.4577537999721,0.15551280009094626,0.26488580007571727,6.031065400107764,676.4912367999787,676.4912367999787,676.4912367999787,0.08668800012674183,0.19795420009177178,682.1912620000076,682.3911073999479,6.031148500042036,6.131057200138457,688.391126499977,12.031119100051,688.5245763000567,688.5245763000567,0.031188600114546716,0.1311025001341477,up,0.6404409999959171,689.2244394000154,5.1200040616095066e-05,0.09801350010093302,,695.2577921999618,695.2577921999618,0.025980500038713217,0.1314360999967903,5.0,2.706311200046912,,,,,,,688.4910737000173,688.4910737000173,,,,,,2635,Moral,2025-03-07_16h29.35.240,MoralCondition_v2,2022.2.5,29.99891403453524,
13,0,13,0,1,0,1,0,,,,,,,,,,,,,,,,,,,,,,,,,,,,,,,,,,,,,,,,,,,,,,,,,,,,,697.9910719000036,697.9910719000036,0.006666100001893938,0.09908690000884235,5.0,2.7605222000274807,,,,,,,,,,,,,,2635,Moral,2025-03-07_16h29.35.240,MoralCondition_v2,2022.2.5,29.99891403453524,
13,0,13,0,2,0,2,0,,,,,,,,,,,,,,,,,,,,,,,,,,,,,,,,,,,,,,,,,,,,,,,,,,,,,700.7912702000467,700.7912702000467,0.009186399984173477,0.09805789997335523,5.0,0.8897897000424564,,,,,,,,,,,,,,2635,Moral,2025-03-07_16h29.35.240,MoralCondition_v2,2022.2.5,29.99891403453524,
13,0,13,0,3,0,3,0,,,,,,,,,,,,,,,,,,,,,,,,,,,,,,,,,,,,,,,,,,,,,,,,,,,,,701.7244257000275,701.7244257000275,0.00748639996163547,0.0980116999708116,5.0,0.6581280999816954,,,,,,,,,,,,,,2635,Moral,2025-03-07_16h29.35.240,MoralCondition_v2,2022.2.5,29.99891403453524,
13,0,13,0,4,0,4,0,,,,,,,,,,,,,,,,,,,,,,,,,,,,,,,,,,,,,,,,,,,,,,,,,,,,,702.4411351999734,702.4411351999734,0.007837199955247343,0.11420579999685287,3.0,1.907465200056322,,,,,,,,,,,,,,2635,Moral,2025-03-07_16h29.35.240,MoralCondition_v2,2022.2.5,29.99891403453524,
13,0,13,0,5,0,5,0,,,,,,,,,,,,,,,,,,,,,,,,,,,,,,,,,,,,,,,,,,,,,,,,,,,,,704.37439370004,704.37439370004,0.0061845999443903565,0.099048399948515,5.0,1.0271750000538304,,,,,,,,,,,,,,2635,Moral,2025-03-07_16h29.35.240,MoralCondition_v2,2022.2.5,29.99891403453524,
13,0,13,0,6,0,6,0,,,,,,,,,,,,,,,,,,,,,,,,,,,,,,,,,,,,,,,,,,,,,,,,,,,,,705.4411167999497,705.4411167999497,0.007498800056055188,0.09780959994532168,5.0,1.3582153000170365,,,,,,,,,,,,,,2635,Moral,2025-03-07_16h29.35.240,MoralCondition_v2,2022.2.5,29.99891403453524,
13,0,13,0,,,,,,,,,,,,,,,,,,,,,,,,,,,,,,,,,,,,,,,,,,,,,,,,,,,,,,,,,,,,,,,706.8412606000202,706.8412606000202,0.0014627999626100063,0.09737350000068545,3.0,1.6973940999014303,,,,,,,,2635,Moral,2025-03-07_16h29.35.240,MoralCondition_v2,2022.2.5,29.99891403453524,
14,0,14,0,0,0,0,0,,,,,,,,,,,,,,,,,,,,,,708.5745737999678,0.00016140006482601166,0.09901770006399602,714.5910684999544,6.015629300032742,714.7580461000325,714.7580461000325,0.08093280007597059,0.1823778001125902,6.015651800087653,720.8578937000129,720.8578937000129,720.8578937000129,0.07211710012052208,0.18235880008433014,726.5576646999689,726.7580510999542,6.016030800063163,6.115645700134337,732.7576866999734,12.015633100061677,732.8910410000244,732.8910410000244,0.015911500086076558,0.11567800014745444,down,0.4502561000408605,733.3910424000351,7.82000133767724e-05,0.09801079996395856,,739.4245344999945,739.4245344999945,0.02540659997612238,0.13136779994238168,5.0,1.8735579999629408,,,,,,,732.8577315999428,732.8577315999428,720.7577654999914,720.7577654999914,,,,2635,Moral,2025-03-07_16h29.35.240,MoralCondition_v2,2022.2.5,29.99891403453524,
14,0,14,0,1,0,1,0,,,,,,,,,,,,,,,,,,,,,,,,,,,,,,,,,,,,,,,,,,,,,,,,,,,,,741.3242280000122,741.3242280000122,0.007653500069864094,0.09783860004972667,5.0,0.7912361000198871,,,,,,,,,,,,,,2635,Moral,2025-03-07_16h29.35.240,MoralCondition_v2,2022.2.5,29.99891403453524,
14,0,14,0,2,0,2,0,,,,,,,,,,,,,,,,,,,,,,,,,,,,,,,,,,,,,,,,,,,,,,,,,,,,,742.1745566000463,742.1745566000463,0.007792299962602556,0.11404759995639324,5.0,0.7406190000474453,,,,,,,,,,,,,,2635,Moral,2025-03-07_16h29.35.240,MoralCondition_v2,2022.2.5,29.99891403453524,
14,0,14,0,3,0,3,0,,,,,,,,,,,,,,,,,,,,,,,,,,,,,,,,,,,,,,,,,,,,,,,,,,,,,742.9411615000572,742.9411615000572,0.008474200032651424,0.09767950000241399,3.0,1.423665100010112,,,,,,,,,,,,,,2635,Moral,2025-03-07_16h29.35.240,MoralCondition_v2,2022.2.5,29.99891403453524,
14,0,14,0,4,0,4,0,,,,,,,,,,,,,,,,,,,,,,,,,,,,,,,,,,,,,,,,,,,,,,,,,,,,,744.4077194000129,744.4077194000129,0.00932410010136664,0.09947830007877201,5.0,1.5244683999335393,,,,,,,,,,,,,,2635,Moral,2025-03-07_16h29.35.240,MoralCondition_v2,2022.2.5,29.99891403453524,
14,0,14,0,5,0,5,0,,,,,,,,,,,,,,,,,,,,,,,,,,,,,,,,,,,,,,,,,,,,,,,,,,,,,745.9743634000188,745.9743634000188,0.008397100027650595,0.09777280001435429,5.0,0.6238635999616235,,,,,,,,,,,,,,2635,Moral,2025-03-07_16h29.35.240,MoralCondition_v2,2022.2.5,29.99891403453524,
14,0,14,0,6,0,6,0,,,,,,,,,,,,,,,,,,,,,,,,,,,,,,,,,,,,,,,,,,,,,,,,,,,,,746.6580401000101,746.6580401000101,0.008668299997225404,0.1138899999205023,5.0,1.0064420000417158,,,,,,,,,,,,,,2635,Moral,2025-03-07_16h29.35.240,MoralCondition_v2,2022.2.5,29.99891403453524,
14,0,14,0,,,,,,,,,,,,,,,,,,,,,,,,,,,,,,,,,,,,,,,,,,,,,,,,,,,,,,,,,,,,,,,747.6910571999615,747.6910571999615,0.0012945999624207616,0.09762969997245818,3.0,1.8974850999657065,,,,,,,,2635,Moral,2025-03-07_16h29.35.240,MoralCondition_v2,2022.2.5,29.99891403453524,
15,0,15,0,0,0,0,0,,,,,,,,,,,,,,,,,,,,,,749.6245981999673,0.0001354999840259552,0.09936970006674528,755.6243248999817,5.999187699984759,755.7908847000217,755.7908847000217,0.06032260006759316,0.16592340008355677,5.999218300101347,761.8910138000501,761.8910138000501,761.8910138000501,0.0537022000644356,0.16613700008019805,767.5909458999522,767.7909354999429,5.999187000095844,6.099229200044647,773.7909381999634,11.999186900095083,773.9242821000516,773.9242821000516,7.70005863159895e-06,0.09902310010511428,up,1.896089999936521,775.8576113999588,3.929995000362396e-05,0.09786320000421256,781.8575125000207,781.8575125000207,781.8575125000207,0.009818300022743642,0.09785559994634241,3.0,3.3223412999650463,,,,,,,773.890926699969,773.890926699969,761.7909731999971,761.7909731999971,6.099228300037794,6.0992338000796735,12.099232300068252,2635,Moral,2025-03-07_16h29.35.240,MoralCondition_v2,2022.2.5,29.99891403453524,
15,0,15,0,1,0,1,0,,,,,,,,,,,,,,,,,,,,,,,,,,,,,,,,,,,,,,,,,,,,,,,,,,,,,785.2411537000444,785.2411537000444,0.007917099981568754,0.11437830002978444,3.0,1.8074539999943227,,,,,,,,,,,,,,2635,Moral,2025-03-07_16h29.35.240,MoralCondition_v2,2022.2.5,29.99891403453524,
15,0,15,0,2,0,2,0,,,,,,,,,,,,,,,,,,,,,,,,,,,,,,,,,,,,,,,,,,,,,,,,,,,,,787.0742429000093,787.0742429000093,0.007558500044979155,0.09778750000987202,3.0,1.2580686999717727,,,,,,,,,,,,,,2635,Moral,2025-03-07_16h29.35.240,MoralCondition_v2,2022.2.5,29.99891403453524,
15,0,15,0,3,0,3,0,,,,,,,,,,,,,,,,,,,,,,,,,,,,,,,,,,,,,,,,,,,,,,,,,,,,,788.3912075000117,788.3912075000117,0.008370199939236045,0.11467020004056394,3.0,0.8738585999235511,,,,,,,,,,,,,,2635,Moral,2025-03-07_16h29.35.240,MoralCondition_v2,2022.2.5,29.99891403453524,
15,0,15,0,4,0,4,0,,,,,,,,,,,,,,,,,,,,,,,,,,,,,,,,,,,,,,,,,,,,,,,,,,,,,789.2909534999635,789.2909534999635,0.00734869996085763,0.09866040002088994,3.0,0.9249316999921575,,,,,,,,,,,,,,2635,Moral,2025-03-07_16h29.35.240,MoralCondition_v2,2022.2.5,29.99891403453524,
15,0,15,0,5,0,5,0,,,,,,,,,,,,,,,,,,,,,,,,,,,,,,,,,,,,,,,,,,,,,,,,,,,,,790.2576900999993,790.2576900999993,0.00717250001616776,0.09779630007687956,5.0,1.2250446999678388,,,,,,,,,,,,,,2635,Moral,2025-03-07_16h29.35.240,MoralCondition_v2,2022.2.5,29.99891403453524,
15,0,15,0,6,0,6,0,,,,,,,,,,,,,,,,,,,,,,,,,,,,,,,,,,,,,,,,,,,,,,,,,,,,,791.5244009000016,791.5244009000016,0.0070321999955922365,0.09786449989769608,3.0,1.2587192999199033,,,,,,,,,,,,,,2635,Moral,2025-03-07_16h29.35.240,MoralCondition_v2,2022.2.5,29.99891403453524,
15,0,15,0,,,,,,,,,,,,,,,,,,,,,,,,,,,,,,,,,,,,,,,,,,,,,,,,,,,,,,,,,,,,,,,792.8243124999572,792.8243124999572,0.0007056000176817179,0.09906659997068346,6.0,2.1328568999888375,,,,,,,,2635,Moral,2025-03-07_16h29.35.240,MoralCondition_v2,2022.2.5,29.99891403453524,
16,0,16,0,0,0,0,0,,,,,,,,,,,,,,,,,,,,,,794.9911722999532,0.0003301999531686306,0.09782789996825159,801.0075362999924,6.014630499994382,801.1740121999756,801.1740121999756,0.08226809999905527,0.1811689999885857,6.0144603999797255,807.2740223000292,807.2740223000292,807.2740223000292,0.0768482000567019,0.18140200001653284,812.9742391000036,813.1741457999451,6.014515000046231,6.114422800019383,819.1741433000425,12.014557900023647,819.2906616999535,819.2906616999535,0.014483600039966404,0.09771970007568598,down,1.7140170999336988,821.0408646999858,2.659996971487999e-05,0.09859889990184456,,827.0573766999878,827.0573766999878,0.022816999931819737,0.11528509994968772,5.0,4.326656999997795,,,,,,,819.2741182999453,819.2741182999453,807.1741772999521,807.1741772999521,,,,2635,Moral,2025-03-07_16h29.35.240,MoralCondition_v2,2022.2.5,29.99891403453524,
16,0,16,0,1,0,1,0,,,,,,,,,,,,,,,,,,,,,,,,,,,,,,,,,,,,,,,,,,,,,,,,,,,,,831.4238543000538,831.4238543000538,0.007570900022983551,0.09752770001068711,5.0,1.357779899961315,,,,,,,,,,,,,,2635,Moral,2025-03-07_16h29.35.240,MoralCondition_v2,2022.2.5,29.99891403453524,
16,0,16,0,2,0,2,0,,,,,,,,,,,,,,,,,,,,,,,,,,,,,,,,,,,,,,,,,,,,,,,,,,,,,832.8241431999486,832.8241431999486,0.007169899996370077,0.09848229994531721,3.0,1.3587703000521287,,,,,,,,,,,,,,2635,Moral,2025-03-07_16h29.35.240,MoralCondition_v2,2022.2.5,29.99891403453524,
16,0,16,0,3,0,3,0,,,,,,,,,,,,,,,,,,,,,,,,,,,,,,,,,,,,,,,,,,,,,,,,,,,,,834.2240995999891,834.2240995999891,0.007700799964368343,0.09765100001823157,5.0,1.124259200063534,,,,,,,,,,,,,,2635,Moral,2025-03-07_16h29.35.240,MoralCondition_v2,2022.2.5,29.99891403453524,
16,0,16,0,4,0,4,0,,,,,,,,,,,,,,,,,,,,,,,,,,,,,,,,,,,,,,,,,,,,,,,,,,,,,835.3907235000515,835.3907235000515,0.00706559990067035,0.09900129993911833,5.0,0.7931635000277311,,,,,,,,,,,,,,2635,Moral,2025-03-07_16h29.35.240,MoralCondition_v2,2022.2.5,29.99891403453524,
16,0,16,0,5,0,5,0,,,,,,,,,,,,,,,,,,,,,,,,,,,,,,,,,,,,,,,,,,,,,,,,,,,,,836.2240464000497,836.2240464000497,0.006884499918669462,0.09926139994058758,5.0,0.7933019999181852,,,,,,,,,,,,,,2635,Moral,2025-03-07_16h29.35.240,MoralCondition_v2,2022.2.5,29.99891403453524,
16,0,16,0,6,0,6,0,,,,,,,,,,,,,,,,,,,,,,,,,,,,,,,,,,,,,,,,,,,,,,,,,,,,,837.0742083999794,837.0742083999794,0.007572700036689639,0.11431049997918308,5.0,0.7412447000388056,,,,,,,,,,,,,,2635,Moral,2025-03-07_16h29.35.240,MoralCondition_v2,2022.2.5,29.99891403453524,
16,0,16,0,,,,,,,,,,,,,,,,,,,,,,,,,,,,,,,,,,,,,,,,,,,,,,,,,,,,,,,,,,,,,,,837.8408599999966,837.8408599999966,0.0013511000433936715,0.09789810003712773,3.0,1.4642482000635937,,,,,,,,2635,Moral,2025-03-07_16h29.35.240,MoralCondition_v2,2022.2.5,29.99891403453524,
17,0,17,0,0,0,0,0,,,,,,,,,,,,,,,,,,,,,,839.3408865999663,0.00014800007920712233,0.09906610008329153,845.3576120999642,6.015760899987072,845.5241653999547,845.5241653999547,0.07621710002422333,0.1823284000856802,6.0156633000588045,851.6241150000133,851.6241150000133,851.6241150000133,0.07471590011846274,0.18251740012783557,857.324245100026,857.5241835999768,6.015827600029297,6.115609800093807,863.5241624000482,12.015809400123544,863.6573680000147,863.6573680000147,0.01586360007058829,0.11566170013975352,up,0.9475242999615148,864.6573680000147,4.439998883754015e-05,0.09777049999684095,870.6571757999482,870.6571757999482,870.6571757999482,0.00883019994944334,0.09786039998289198,3.0,6.023283499991521,,,,,,,863.6240771999583,863.6240771999583,851.5240870000562,851.5240870000562,,,,2635,Moral,2025-03-07_16h29.35.240,MoralCondition_v2,2022.2.5,29.99891403453524,
17,0,17,0,1,0,1,0,,,,,,,,,,,,,,,,,,,,,,,,,,,,,,,,,,,,,,,,,,,,,,,,,,,,,876.7240001000464,876.7240001000464,0.007091099978424609,0.09917439997661859,3.0,0.6597393000265583,,,,,,,,,,,,,,2635,Moral,2025-03-07_16h29.35.240,MoralCondition_v2,2022.2.5,29.99891403453524,
17,0,17,0,2,0,2,0,,,,,,,,,,,,,,,,,,,,,,,,,,,,,,,,,,,,,,,,,,,,,,,,,,,,,877.4238420999609,877.4238420999609,0.0077553000301122665,0.09769500000402331,3.0,0.6576197000686079,,,,,,,,,,,,,,2635,Moral,2025-03-07_16h29.35.240,MoralCondition_v2,2022.2.5,29.99891403453524,
17,0,17,0,3,0,3,0,,,,,,,,,,,,,,,,,,,,,,,,,,,,,,,,,,,,,,,,,,,,,,,,,,,,,878.124006500002,878.124006500002,0.005652499967254698,0.09896850003860891,5.0,1.4612264001043513,,,,,,,,,,,,,,2635,Moral,2025-03-07_16h29.35.240,MoralCondition_v2,2022.2.5,29.99891403453524,
17,0,17,0,4,0,4,0,,,,,,,,,,,,,,,,,,,,,,,,,,,,,,,,,,,,,,,,,,,,,,,,,,,,,879.6409292999888,879.6409292999888,0.008638900006189942,0.1146886000642553,3.0,1.7736392000224441,,,,,,,,,,,,,,2635,Moral,2025-03-07_16h29.35.240,MoralCondition_v2,2022.2.5,29.99891403453524,
17,0,17,0,5,0,5,0,,,,,,,,,,,,,,,,,,,,,,,,,,,,,,,,,,,,,,,,,,,,,,,,,,,,,881.440705499961,881.440705499961,0.006607700022868812,0.09920629998669028,3.0,1.1601704999338835,,,,,,,,,,,,,,2635,Moral,2025-03-07_16h29.35.240,MoralCondition_v2,2022.2.5,29.99891403453524,
17,0,17,0,6,0,6,0,,,,,,,,,,,,,,,,,,,,,,,,,,,,,,,,,,,,,,,,,,,,,,,,,,,,,882.640726499958,882.640726499958,0.006881900015287101,0.0983237000182271,3.0,0.8257095000008121,,,,,,,,,,,,,,2635,Moral,2025-03-07_16h29.35.240,MoralCondition_v2,2022.2.5,29.99891403453524,
17,0,17,0,,,,,,,,,,,,,,,,,,,,,,,,,,,,,,,,,,,,,,,,,,,,,,,,,,,,,,,,,,,,,,,883.507235600031,883.507235600031,0.0007453999714925885,0.09906369994860142,6.0,1.2665648999391124,,,,,,,,2635,Moral,2025-03-07_16h29.35.240,MoralCondition_v2,2022.2.5,29.99891403453524,
18,0,18,0,0,0,0,0,,,,,,,,,,,,,,,,,,,,,,884.8074147000443,0.00013299996498972178,0.09944679995533079,890.8072069999762,5.9993324999231845,890.9738636000548,890.9738636000548,0.057476499932818115,0.16601809998974204,5.999390100012533,897.0740479000378,897.0740479000378,897.0740479000378,0.05370389996096492,0.16615830000955611,902.7739127000095,902.9739295999752,5.999389300006442,6.099352200049907,908.9740901000332,11.999618300003931,909.1072565000504,909.1072565000504,0.00025809998624026775,0.09928700001910329,up,0.6815478999633342,909.840617800015,6.970006506890059e-05,0.09792870003730059,,915.8738068999955,915.8738068999955,0.025878500076942146,0.13117450010031462,5.0,2.8063377999933437,,,,,,,909.0739701000275,909.0739701000275,896.9739384000422,896.9739384000422,6.0993773000082,6.099382699932903,12.099440400023013,2635,Moral,2025-03-07_16h29.35.240,MoralCondition_v2,2022.2.5,29.99891403453524,
18,0,18,0,1,0,1,0,,,,,,,,,,,,,,,,,,,,,,,,,,,,,,,,,,,,,,,,,,,,,,,,,,,,,918.7071867999621,918.7071867999621,0.007392000057734549,0.09964750008657575,5.0,0.6596573999850079,,,,,,,,,,,,,,2635,Moral,2025-03-07_16h29.35.240,MoralCondition_v2,2022.2.5,29.99891403453524,
18,0,18,0,2,0,2,0,,,,,,,,,,,,,,,,,,,,,,,,,,,,,,,,,,,,,,,,,,,,,,,,,,,,,919.4072582999943,919.4072582999943,0.007614700007252395,0.09793899999931455,5.0,0.7582613000413403,,,,,,,,,,,,,,2635,Moral,2025-03-07_16h29.35.240,MoralCondition_v2,2022.2.5,29.99891403453524,
18,0,18,0,3,0,3,0,,,,,,,,,,,,,,,,,,,,,,,,,,,,,,,,,,,,,,,,,,,,,,,,,,,,,920.2071224000538,920.2071224000538,0.007935000001452863,0.09896500001195818,5.0,0.5588758999947459,,,,,,,,,,,,,,2635,Moral,2025-03-07_16h29.35.240,MoralCondition_v2,2022.2.5,29.99891403453524,
18,0,18,0,4,0,4,0,,,,,,,,,,,,,,,,,,,,,,,,,,,,,,,,,,,,,,,,,,,,,,,,,,,,,920.8072653999552,920.8072653999552,0.006986199994571507,0.09921180002857,3.0,1.0598659999668598,,,,,,,,,,,,,,2635,Moral,2025-03-07_16h29.35.240,MoralCondition_v2,2022.2.5,29.99891403453524,
18,0,18,0,5,0,5,0,,,,,,,,,,,,,,,,,,,,,,,,,,,,,,,,,,,,,,,,,,,,,,,,,,,,,921.9070012000157,921.9070012000157,0.007667600060813129,0.09778800001367927,5.0,1.291442499961704,,,,,,,,,,,,,,2635,Moral,2025-03-07_16h29.35.240,MoralCondition_v2,2022.2.5,29.99891403453524,
18,0,18,0,6,0,6,0,,,,,,,,,,,,,,,,,,,,,,,,,,,,,,,,,,,,,,,,,,,,,,,,,,,,,923.2404315000167,923.2404315000167,0.007801400031894445,0.09770010004285723,5.0,0.7242547000059858,,,,,,,,,,,,,,2635,Moral,2025-03-07_16h29.35.240,MoralCondition_v2,2022.2.5,29.99891403453524,
18,0,18,0,,,,,,,,,,,,,,,,,,,,,,,,,,,,,,,,,,,,,,,,,,,,,,,,,,,,,,,,,,,,,,,924.0071214999771,924.0071214999771,0.0007110000587999821,0.09928239998407662,3.0,2.7331124999327585,,,,,,,,2635,Moral,2025-03-07_16h29.35.240,MoralCondition_v2,2022.2.5,29.99891403453524,
19,0,19,0,0,0,0,0,,,,,,,,,,,,,,,,,,,,,,926.7741134000244,0.00034559995401650667,0.0975961999502033,932.7905707999598,6.014176599914208,932.9570239000022,932.9570239000022,0.07514229998923838,0.1809205999597907,6.014195799943991,939.0574158000527,939.0574158000527,939.0574158000527,0.07126799994148314,0.1809413000009954,944.7571174999466,944.9573531999486,6.014441399951465,6.114201599964872,950.9571579999756,12.014230399974622,951.0904681000393,951.0904681000393,0.014338599983602762,0.11392150004394352,up,0.31400170002598315,951.4404501999961,4.0599959902465343e-05,0.0980679999338463,,957.4569329000078,957.4569329000078,0.024681299924850464,0.11486589990090579,5.0,3.124402999994345,,,,,,,951.0571087000426,951.0571087000426,938.957214300055,938.957214300055,,,,2635,Moral,2025-03-07_16h29.35.240,MoralCondition_v2,2022.2.5,29.99891403453524,
19,0,19,0,1,0,1,0,,,,,,,,,,,,,,,,,,,,,,,,,,,,,,,,,,,,,,,,,,,,,,,,,,,,,960.6238415000262,960.6238415000262,0.007161500048823655,0.09780650003813207,5.0,1.0252391000976786,,,,,,,,,,,,,,2635,Moral,2025-03-07_16h29.35.240,MoralCondition_v2,2022.2.5,29.99891403453524,
19,0,19,0,2,0,2,0,,,,,,,,,,,,,,,,,,,,,,,,,,,,,,,,,,,,,,,,,,,,,,,,,,,,,961.6903706999728,961.6903706999728,0.006815199973061681,0.09911479998845607,5.0,1.0267873998964205,,,,,,,,,,,,,,2635,Moral,2025-03-07_16h29.35.240,MoralCondition_v2,2022.2.5,29.99891403453524,
19,0,19,0,3,0,3,0,,,,,,,,,,,,,,,,,,,,,,,,,,,,,,,,,,,,,,,,,,,,,,,,,,,,,962.7572289999807,962.7572289999807,0.007539200014434755,0.09846380003727973,5.0,0.8910170999588445,,,,,,,,,,,,,,2635,Moral,2025-03-07_16h29.35.240,MoralCondition_v2,2022.2.5,29.99891403453524,
19,0,19,0,4,0,4,0,,,,,,,,,,,,,,,,,,,,,,,,,,,,,,,,,,,,,,,,,,,,,,,,,,,,,963.6903459000168,963.6903459000168,0.006588399992324412,0.09931429999414831,5.0,1.1269169000443071,,,,,,,,,,,,,,2635,Moral,2025-03-07_16h29.35.240,MoralCondition_v2,2022.2.5,29.99891403453524,
19,0,19,0,5,0,5,0,,,,,,,,,,,,,,,,,,,,,,,,,,,,,,,,,,,,,,,,,,,,,,,,,,,,,964.8571841999656,964.8571841999656,0.007801700034178793,0.0980756999924779,5.0,0.7912109999451786,,,,,,,,,,,,,,2635,Moral,2025-03-07_16h29.35.240,MoralCondition_v2,2022.2.5,29.99891403453524,
19,0,19,0,6,0,6,0,,,,,,,,,,,,,,,,,,,,,,,,,,,,,,,,,,,,,,,,,,,,,,,,,,,,,965.6905915000243,965.6905915000243,0.007468400057405233,0.09735519997775555,3.0,1.59129359992221,,,,,,,,,,,,,,2635,Moral,2025-03-07_16h29.35.240,MoralCondition_v2,2022.2.5,29.99891403453524,
19,0,19,0,,,,,,,,,,,,,,,,,,,,,,,,,,,,,,,,,,,,,,,,,,,,,,,,,,,,,,,,,,,,,,,967.3238695999607,967.3238695999607,0.0006847999757155776,0.09928739990573376,3.0,1.6330352999502793,,,,,,,,2635,Moral,2025-03-07_16h29.35.240,MoralCondition_v2,2022.2.5,29.99891403453524,
