loop.thisRepN,loop.thisTrialN,loop.thisN,loop.thisIndex,evaluate_all_emotions.thisRepN,evaluate_all_emotions.thisTrialN,evaluate_all_emotions.thisN,evaluate_all_emotions.thisIndex,sync_beep_1.started,p_port.started,p_port.stopped,sync_beep_1.stopped,sync_beep_2.started,sync_beep_2.stopped,sync_beep_3.started,sync_beep_3.stopped,sync_beep_4.started,sync_beep_4.stopped,baseline.started,p_port_2.started,p_port_2.stopped,baseline.stopped,p_port_3.started,Game_Start_Text.started,p_port_4.started,p_port_4.stopped,key_resp.started,key_resp.keys,key_resp.rt,fixation_cross.started,p_port_5.started,p_port_5.stopped,fixation_cross.stopped,p_port_6.started,player_image_intro.started,player_name_intro.started,p_port_7.started,p_port_7.stopped,p_port_8.started,player_image_offer.started,player_name_offer.started,proposed_split.started,p_port_9.started,p_port_9.stopped,proposed_split.stopped,accept_reject.started,p_port_15.started,p_port_15.stopped,accept_reject.stopped,p_port_10.started,player_image_offer.stopped,player_name_offer.stopped,arrow_instructions.started,offer_choice.started,p_port_11.started,p_port_11.stopped,offer_choice.keys,offer_choice.rt,Instructions_Affinity_Score.started,p_port_12.started,p_port_12.stopped,Emotion_Image.started,AffinityScore.started,p_port_13.started,p_port_13.stopped,AffinityScore.response,AffinityScore.rt,Instruction.started,Moral_Disgust_Score.started,p_port_14.started,p_port_14.stopped,Moral_Disgust_Score.response,Moral_Disgust_Score.rt,Instructions_Affinity_Score.stopped,player_image_intro.stopped,player_name_intro.stopped,p_port_6.stopped,p_port_8.stopped,p_port_10.stopped,participant,session,date,expName,psychopyVersion,frameRate,
,,,,,,,,15.65118058002845,0.0008279000030597672,0.10030669999832753,15.951500500013935,16.218346320002457,16.53516350001155,16.81850722001109,17.135214300011285,17.435262420008076,17.75176040000224,17.75176040000224,0.03358479999587871,0.13365929998690262,32.76856830000179,15.017005599991535,32.86853810001048,0.01710459998867009,0.11694049998186529,33.33501090000209,space,2.583408699996653,,,,,,,,,,,,,,,,,,,,,,,,,,,,,,,,,,,,,,,,,,,,,,,,,,,2760,Moral,2025-02-25_16h19.24.199,MoralCondition_v2,2022.2.5,29.970574888815037,
0,0,0,0,0,0,0,0,,,,,,,,,,,,,,,,,,,,,,35.96872170000279,0.002638699996168725,0.09783800000150222,41.98519850001321,6.014462300008745,42.21848810001393,42.21848810001393,0.10476039999048226,0.24783529998967424,6.014466099994024,48.26864390000992,48.26864390000992,48.26864390000992,0.07222839999303687,0.1979655999894021,53.96852380000928,54.168543400010094,6.031220299992128,6.131259499990847,60.168493900011526,12.031230799984769,60.26850330000161,60.26850330000161,60.301843799999915,60.301843799999915,0.031363299989607185,0.13114139997924212,up,1.2614123999956064,61.60180910000054,1.8999999156221747e-05,0.09921539999777451,67.63518510000722,67.63518510000722,0.029008299999986775,0.13240159999986645,2.0,9.104680200005532,,,,,,,,,,,,,2760,Moral,2025-02-25_16h19.24.199,MoralCondition_v2,2022.2.5,29.970574888815037,
0,0,0,0,1,0,1,0,,,,,,,,,,,,,,,,,,,,,,,,,,,,,,,,,,,,,,,,,,,,,,,,,,,,,,76.78531950000615,76.78531950000615,0.00998980000440497,0.11443640000652522,1.0,3.6051023000036366,,,,,,,,,,,,,2760,Moral,2025-02-25_16h19.24.199,MoralCondition_v2,2022.2.5,29.970574888815037,
0,0,0,0,2,0,2,0,,,,,,,,,,,,,,,,,,,,,,,,,,,,,,,,,,,,,,,,,,,,,,,,,,,,,,80.43519840000954,80.43519840000954,0.009307200001785532,0.11466020000807475,5.0,3.8730675000115298,,,,,,,,,,,,,2760,Moral,2025-02-25_16h19.24.199,MoralCondition_v2,2022.2.5,29.970574888815037,
0,0,0,0,3,0,3,0,,,,,,,,,,,,,,,,,,,,,,,,,,,,,,,,,,,,,,,,,,,,,,,,,,,,,,84.35189920000266,84.35189920000266,0.011461399990366772,0.11407519999193028,2.0,2.8369715000008,,,,,,,,,,,,,2760,Moral,2025-02-25_16h19.24.199,MoralCondition_v2,2022.2.5,29.970574888815037,
0,0,0,0,4,0,4,0,,,,,,,,,,,,,,,,,,,,,,,,,,,,,,,,,,,,,,,,,,,,,,,,,,,,,,87.2351129000017,87.2351129000017,0.009343199999420904,0.1146908000082476,4.0,2.6064172000042163,,,,,,,,,,,,,2760,Moral,2025-02-25_16h19.24.199,MoralCondition_v2,2022.2.5,29.970574888815037,
0,0,0,0,5,0,5,0,,,,,,,,,,,,,,,,,,,,,,,,,,,,,,,,,,,,,,,,,,,,,,,,,,,,,,89.88522250000096,89.88522250000096,0.0108015999867348,0.1157449999882374,3.0,4.272514399999636,,,,,,,,,,,,,2760,Moral,2025-02-25_16h19.24.199,MoralCondition_v2,2022.2.5,29.970574888815037,
0,0,0,0,6,0,6,0,,,,,,,,,,,,,,,,,,,,,,,,,,,,,,,,,,,,,,,,,,,,,,,,,,,,,,94.20192710000265,94.20192710000265,0.010322400004952215,0.11437730000761803,3.0,3.7385536000074353,,,,,,,,,,,,,2760,Moral,2025-02-25_16h19.24.199,MoralCondition_v2,2022.2.5,29.970574888815037,
0,0,0,0,,,,,,,,,,,,,,,,,,,,,,,,,,,,,,,,,,,,,,,,,,,,,,,,,,,,,,,,,,,,,,,,97.96838660001231,97.96838660001231,0.0011579999991226941,0.09833829999843147,7.0,6.498531700010062,,,,,,,2760,Moral,2025-02-25_16h19.24.199,MoralCondition_v2,2022.2.5,29.970574888815037,
1,0,1,0,0,0,0,0,,,,,,,,,,,,,,,,,,,,,,104.50206530001014,0.00031939998734742403,0.09788309999566991,110.50178660001257,6.031195399991702,110.75185510001029,110.75185510001029,0.13832039998669643,0.2478895999956876,6.014605499993195,116.78511270000308,116.78511270000308,116.78511270000308,0.06952979997731745,0.18122959998436272,122.48517300000822,122.68522310000844,6.01463929998863,6.114559499983443,128.68532460001006,12.014750099988305,128.785186100009,128.785186100009,128.81851650000317,128.81851650000317,0.014763099970878102,0.11453359997540247,down,1.8649083999916911,130.7185041000048,4.990000161342323e-05,0.09777370000665542,136.71851750000496,136.71851750000496,0.008365500005311333,0.0976482000114629,5.0,5.357140099993558,,,,,,,136.71851750000496,,,,,,2760,Moral,2025-02-25_16h19.24.199,MoralCondition_v2,2022.2.5,29.970574888815037,
1,0,1,0,1,0,1,0,,,,,,,,,,,,,,,,,,,,,,,,,,,,,,,,,,,,,,,,,,,,,,,,,,,,,,142.11864980000246,142.11864980000246,0.007180700005847029,0.09785459999693558,5.0,1.8922925000078976,,,,,,,,,,,,,2760,Moral,2025-02-25_16h19.24.199,MoralCondition_v2,2022.2.5,29.970574888815037,
1,0,1,0,2,0,2,0,,,,,,,,,,,,,,,,,,,,,,,,,,,,,,,,,,,,,,,,,,,,,,,,,,,,,,144.0522370000108,144.0522370000108,0.007624499994562939,0.0987672999908682,2.0,2.359034299995983,,,,,,,,,,,,,2760,Moral,2025-02-25_16h19.24.199,MoralCondition_v2,2022.2.5,29.970574888815037,
1,0,1,0,3,0,3,0,,,,,,,,,,,,,,,,,,,,,,,,,,,,,,,,,,,,,,,,,,,,,,,,,,,,,,146.45200480001222,146.45200480001222,0.007249799993587658,0.09756999999808613,4.0,3.891590900006122,,,,,,,,,,,,,2760,Moral,2025-02-25_16h19.24.199,MoralCondition_v2,2022.2.5,29.970574888815037,
1,0,1,0,4,0,4,0,,,,,,,,,,,,,,,,,,,,,,,,,,,,,,,,,,,,,,,,,,,,,,,,,,,,,,150.38525250001112,150.38525250001112,0.007072100008372217,0.09755720000248402,5.0,3.1914016000082484,,,,,,,,,,,,,2760,Moral,2025-02-25_16h19.24.199,MoralCondition_v2,2022.2.5,29.970574888815037,
1,0,1,0,5,0,5,0,,,,,,,,,,,,,,,,,,,,,,,,,,,,,,,,,,,,,,,,,,,,,,,,,,,,,,153.61846110000624,153.61846110000624,0.007751500001177192,0.0993198000069242,5.0,2.8590381999965757,,,,,,,,,,,,,2760,Moral,2025-02-25_16h19.24.199,MoralCondition_v2,2022.2.5,29.970574888815037,
1,0,1,0,6,0,6,0,,,,,,,,,,,,,,,,,,,,,,,,,,,,,,,,,,,,,,,,,,,,,,,,,,,,,,156.518275800001,156.518275800001,0.005464000001666136,0.09927620000962634,3.0,2.9282792000012705,,,,,,,,,,,,,2760,Moral,2025-02-25_16h19.24.199,MoralCondition_v2,2022.2.5,29.970574888815037,
1,0,1,0,,,,,,,,,,,,,,,,,,,,,,,,,,,,,,,,,,,,,,,,,,,,,,,,,,,,,,,,,,,,,,,,159.48535680001078,159.48535680001078,0.0010829999955603853,0.09840200000326149,2.0,3.798819800009369,,,,,,,2760,Moral,2025-02-25_16h19.24.199,MoralCondition_v2,2022.2.5,29.970574888815037,
2,0,2,0,0,0,0,0,,,,,,,,,,,,,,,,,,,,,,163.31891060000635,0.0003274000046076253,0.09800350001023617,169.3185327000101,6.031283800009987,169.5354815000028,169.5354815000028,0.10914849999244325,0.214784800002235,6.0145629000035115,175.60185010000714,175.60185010000714,175.60185010000714,0.07051279999723192,0.1814682999975048,181.3018499000027,181.50185810000403,6.014627699987614,6.114597499996307,187.5018596000009,12.014587199984817,187.60187890000816,187.60187890000816,187.63518690000637,187.63518690000637,0.014871999985189177,0.11453089998394717,down,1.4962541999848327,189.16854030000104,4.460000491235405e-05,0.09764110000105575,195.20208580000326,195.20208580000326,0.0271095000061905,0.1311442000005627,5.0,6.138497299994924,,,,,,,,,,,,,2760,Moral,2025-02-25_16h19.24.199,MoralCondition_v2,2022.2.5,29.970574888815037,
2,0,2,0,1,0,1,0,,,,,,,,,,,,,,,,,,,,,,,,,,,,,,,,,,,,,,,,,,,,,,,,,,,,,,201.36842420000175,201.36842420000175,0.007473399993614294,0.09812510000483599,3.0,1.7245891999918967,,,,,,,,,,,,,2760,Moral,2025-02-25_16h19.24.199,MoralCondition_v2,2022.2.5,29.970574888815037,
2,0,2,0,2,0,2,0,,,,,,,,,,,,,,,,,,,,,,,,,,,,,,,,,,,,,,,,,,,,,,,,,,,,,,203.13526760000968,203.13526760000968,0.00636800000211224,0.09908220000215806,5.0,3.360479700000724,,,,,,,,,,,,,2760,Moral,2025-02-25_16h19.24.199,MoralCondition_v2,2022.2.5,29.970574888815037,
2,0,2,0,3,0,3,0,,,,,,,,,,,,,,,,,,,,,,,,,,,,,,,,,,,,,,,,,,,,,,,,,,,,,,206.5352336000069,206.5352336000069,0.007321199998841621,0.0991879999928642,5.0,1.9927572000015061,,,,,,,,,,,,,2760,Moral,2025-02-25_16h19.24.199,MoralCondition_v2,2022.2.5,29.970574888815037,
2,0,2,0,4,0,4,0,,,,,,,,,,,,,,,,,,,,,,,,,,,,,,,,,,,,,,,,,,,,,,,,,,,,,,208.5852034000127,208.5852034000127,0.009051499990164302,0.11428109998814762,5.0,2.139559500006726,,,,,,,,,,,,,2760,Moral,2025-02-25_16h19.24.199,MoralCondition_v2,2022.2.5,29.970574888815037,
2,0,2,0,5,0,5,0,,,,,,,,,,,,,,,,,,,,,,,,,,,,,,,,,,,,,,,,,,,,,,,,,,,,,,210.7518648000114,210.7518648000114,0.008165999999619089,0.09740669999155216,5.0,2.7904757000069367,,,,,,,,,,,,,2760,Moral,2025-02-25_16h19.24.199,MoralCondition_v2,2022.2.5,29.970574888815037,
2,0,2,0,6,0,6,0,,,,,,,,,,,,,,,,,,,,,,,,,,,,,,,,,,,,,,,,,,,,,,,,,,,,,,213.58520460000727,213.58520460000727,0.006560699999681674,0.09923290000006091,2.0,2.926939700002549,,,,,,,,,,,,,2760,Moral,2025-02-25_16h19.24.199,MoralCondition_v2,2022.2.5,29.970574888815037,
2,0,2,0,,,,,,,,,,,,,,,,,,,,,,,,,,,,,,,,,,,,,,,,,,,,,,,,,,,,,,,,,,,,,,,,216.5517843000125,216.5517843000125,0.0011660999880405143,0.0982835999893723,2.0,5.665091400005622,,,,,,,2760,Moral,2025-02-25_16h19.24.199,MoralCondition_v2,2022.2.5,29.970574888815037,
3,0,3,0,0,0,0,0,,,,,,,,,,,,,,,,,,,,,,222.25202960000024,0.0003161000058753416,0.0977197000029264,228.26858230000653,6.014388700001291,228.43535490000795,228.43535490000795,0.06819829999585636,0.18116290000034496,6.014330199992401,234.5354454000044,234.5354454000044,234.5354454000044,0.07005070000013802,0.18096339999465272,240.23521050000272,240.43521720000717,6.014326399992569,6.11430049999035,246.43522700000904,12.014388399999007,246.5352211000136,246.5352211000136,246.56862640001054,246.56862640001054,0.014525399994454347,0.11439009998866823,down,1.18654839998635,247.80187280000246,4.909999552182853e-05,0.09801509999670088,253.80211120001331,253.80211120001331,0.009160200002952479,0.0981616000062786,6.0,2.223009199995431,,,,,,,253.80211120001331,234.43519860001106,234.43519860001106,,,,2760,Moral,2025-02-25_16h19.24.199,MoralCondition_v2,2022.2.5,29.970574888815037,
3,0,3,0,1,0,1,0,,,,,,,,,,,,,,,,,,,,,,,,,,,,,,,,,,,,,,,,,,,,,,,,,,,,,,256.0853483000101,256.0853483000101,0.007949000006192364,0.11412730001029558,6.0,3.1738370999955805,,,,,,,,,,,,,2760,Moral,2025-02-25_16h19.24.199,MoralCondition_v2,2022.2.5,29.970574888815037,
3,0,3,0,2,0,2,0,,,,,,,,,,,,,,,,,,,,,,,,,,,,,,,,,,,,,,,,,,,,,,,,,,,,,,259.285308800012,259.285308800012,0.007717899992712773,0.09791879999102093,6.0,2.8244296000048053,,,,,,,,,,,,,2760,Moral,2025-02-25_16h19.24.199,MoralCondition_v2,2022.2.5,29.970574888815037,
3,0,3,0,3,0,3,0,,,,,,,,,,,,,,,,,,,,,,,,,,,,,,,,,,,,,,,,,,,,,,,,,,,,,,262.1517886000074,262.1517886000074,0.006744099999195896,0.09933579999778885,2.0,3.026913199995761,,,,,,,,,,,,,2760,Moral,2025-02-25_16h19.24.199,MoralCondition_v2,2022.2.5,29.970574888815037,
3,0,3,0,4,0,4,0,,,,,,,,,,,,,,,,,,,,,,,,,,,,,,,,,,,,,,,,,,,,,,,,,,,,,,265.2183783000073,265.2183783000073,0.007566200001747347,0.09934270000667311,5.0,3.759258600010071,,,,,,,,,,,,,2760,Moral,2025-02-25_16h19.24.199,MoralCondition_v2,2022.2.5,29.970574888815037,
3,0,3,0,5,0,5,0,,,,,,,,,,,,,,,,,,,,,,,,,,,,,,,,,,,,,,,,,,,,,,,,,,,,,,269.01849349999975,269.01849349999975,0.005687799988663755,0.09937369999533985,1.0,3.061354900011793,,,,,,,,,,,,,2760,Moral,2025-02-25_16h19.24.199,MoralCondition_v2,2022.2.5,29.970574888815037,
3,0,3,0,6,0,6,0,,,,,,,,,,,,,,,,,,,,,,,,,,,,,,,,,,,,,,,,,,,,,,,,,,,,,,272.11856460000854,272.11856460000854,0.008391299998038448,0.09831259999191388,5.0,6.09140330000082,,,,,,,,,,,,,2760,Moral,2025-02-25_16h19.24.199,MoralCondition_v2,2022.2.5,29.970574888815037,
3,0,3,0,,,,,,,,,,,,,,,,,,,,,,,,,,,,,,,,,,,,,,,,,,,,,,,,,,,,,,,,,,,,,,,,278.25177480001,278.25177480001,0.001028099999530241,0.09826529999554623,1.0,4.031890500002191,,,,,,,2760,Moral,2025-02-25_16h19.24.199,MoralCondition_v2,2022.2.5,29.970574888815037,
4,0,4,0,0,0,0,0,,,,,,,,,,,,,,,,,,,,,,282.31888830001117,0.00021419998665805906,0.09923749999143183,288.3185766000097,5.999112899997272,288.48538350001036,288.48538350001036,0.05786509998142719,0.16592959998524748,5.999110199991264,294.58512420000625,294.58512420000625,294.58512420000625,0.05803199998626951,0.1660694999882253,300.2851796000032,300.4851811000117,5.999227599982987,6.099132399976952,306.4851928999997,11.999191899987636,306.58520320001116,306.58520320001116,306.6185019000113,306.6185019000113,0.00014839998038951308,0.09917449997738004,up,1.3125300999818137,307.98516630000086,4.539999645203352e-05,0.09762339999724645,314.00165960000595,314.00165960000595,0.02517180000722874,0.11420599999837577,2.0,4.357022099997266,,,,,,,,294.4851871000137,294.4851871000137,6.099107199988794,6.099182299993117,12.09919589998026,2760,Moral,2025-02-25_16h19.24.199,MoralCondition_v2,2022.2.5,29.970574888815037,
4,0,4,0,1,0,1,0,,,,,,,,,,,,,,,,,,,,,,,,,,,,,,,,,,,,,,,,,,,,,,,,,,,,,,318.4016483000014,318.4016483000014,0.006786400001146831,0.09938590000092518,6.0,3.026760099994135,,,,,,,,,,,,,2760,Moral,2025-02-25_16h19.24.199,MoralCondition_v2,2022.2.5,29.970574888815037,
4,0,4,0,2,0,2,0,,,,,,,,,,,,,,,,,,,,,,,,,,,,,,,,,,,,,,,,,,,,,,,,,,,,,,321.46840070000326,321.46840070000326,0.007164899987401441,0.09906629999750294,5.0,2.792866199990385,,,,,,,,,,,,,2760,Moral,2025-02-25_16h19.24.199,MoralCondition_v2,2022.2.5,29.970574888815037,
4,0,4,0,3,0,3,0,,,,,,,,,,,,,,,,,,,,,,,,,,,,,,,,,,,,,,,,,,,,,,,,,,,,,,324.30171650000557,324.30171650000557,0.007467500006896444,0.09759780000604223,2.0,6.624577299997327,,,,,,,,,,,,,2760,Moral,2025-02-25_16h19.24.199,MoralCondition_v2,2022.2.5,29.970574888815037,
4,0,4,0,4,0,4,0,,,,,,,,,,,,,,,,,,,,,,,,,,,,,,,,,,,,,,,,,,,,,,,,,,,,,,330.96849450000445,330.96849450000445,0.006895600003190339,0.0991861000075005,2.0,2.4599665999994613,,,,,,,,,,,,,2760,Moral,2025-02-25_16h19.24.199,MoralCondition_v2,2022.2.5,29.970574888815037,
4,0,4,0,5,0,5,0,,,,,,,,,,,,,,,,,,,,,,,,,,,,,,,,,,,,,,,,,,,,,,,,,,,,,,333.46843850000005,333.46843850000005,0.0075151999917579815,0.09904319999623112,5.0,2.559326599992346,,,,,,,,,,,,,2760,Moral,2025-02-25_16h19.24.199,MoralCondition_v2,2022.2.5,29.970574888815037,
4,0,4,0,6,0,6,0,,,,,,,,,,,,,,,,,,,,,,,,,,,,,,,,,,,,,,,,,,,,,,,,,,,,,,336.0683505000052,336.0683505000052,0.0066023999970639125,0.09919360000640154,1.0,3.726904700000887,,,,,,,,,,,,,2760,Moral,2025-02-25_16h19.24.199,MoralCondition_v2,2022.2.5,29.970574888815037,
4,0,4,0,,,,,,,,,,,,,,,,,,,,,,,,,,,,,,,,,,,,,,,,,,,,,,,,,,,,,,,,,,,,,,,,339.835221500005,339.835221500005,0.001377900000079535,0.09763879999809433,7.0,6.1308602999924915,,,,,,,2760,Moral,2025-02-25_16h19.24.199,MoralCondition_v2,2022.2.5,29.970574888815037,
5,0,5,0,0,0,0,0,,,,,,,,,,,,,,,,,,,,,,346.0020353,0.00013439999020192772,0.09945979999611154,351.9849964000023,5.999296800000593,352.1682878000138,352.1682878000138,0.057460099982563406,0.16594019999320153,5.9992278999852715,358.2684314000071,358.2684314000071,358.2684314000071,0.05155329998524394,0.16616199997952208,363.9684905000031,364.1685300000099,5.9993717999896035,6.099266099976376,370.1684674999997,11.99928709998494,370.26847420001286,370.26847420001286,370.3018002000026,370.3018002000026,0.00014319998444989324,0.09922699998423923,up,1.8052741999854334,372.1684924000001,4.449998959898949e-05,0.09763889999885578,378.2020532000024,378.2020532000024,0.025495299996691756,0.13091639999765903,5.0,3.273211599997012,,,,,,,,358.16868890001206,358.16868890001206,6.082505999991554,6.0995551999949384,12.09930339998391,2760,Moral,2025-02-25_16h19.24.199,MoralCondition_v2,2022.2.5,29.970574888815037,
5,0,5,0,1,0,1,0,,,,,,,,,,,,,,,,,,,,,,,,,,,,,,,,,,,,,,,,,,,,,,,,,,,,,,381.501857500014,381.501857500014,0.010030799996457063,0.09752930000831839,2.0,1.8554632000013953,,,,,,,,,,,,,2760,Moral,2025-02-25_16h19.24.199,MoralCondition_v2,2022.2.5,29.970574888815037,
5,0,5,0,2,0,2,0,,,,,,,,,,,,,,,,,,,,,,,,,,,,,,,,,,,,,,,,,,,,,,,,,,,,,,383.4187654000125,383.4187654000125,0.007760599997709505,0.11439109999628272,5.0,2.9076157999952557,,,,,,,,,,,,,2760,Moral,2025-02-25_16h19.24.199,MoralCondition_v2,2022.2.5,29.970574888815037,
5,0,5,0,3,0,3,0,,,,,,,,,,,,,,,,,,,,,,,,,,,,,,,,,,,,,,,,,,,,,,,,,,,,,,386.3516679000022,386.3516679000022,0.006461600001784973,0.09925530001055449,5.0,2.5271158999967156,,,,,,,,,,,,,2760,Moral,2025-02-25_16h19.24.199,MoralCondition_v2,2022.2.5,29.970574888815037,
5,0,5,0,4,0,4,0,,,,,,,,,,,,,,,,,,,,,,,,,,,,,,,,,,,,,,,,,,,,,,,,,,,,,,388.9187155000109,388.9187155000109,0.006785899997339584,0.09820749999198597,2.0,6.192178500001319,,,,,,,,,,,,,2760,Moral,2025-02-25_16h19.24.199,MoralCondition_v2,2022.2.5,29.970574888815037,
5,0,5,0,5,0,5,0,,,,,,,,,,,,,,,,,,,,,,,,,,,,,,,,,,,,,,,,,,,,,,,,,,,,,,395.1518417000043,395.1518417000043,0.007373899992671795,0.09776869999768678,3.0,2.2912414000020362,,,,,,,,,,,,,2760,Moral,2025-02-25_16h19.24.199,MoralCondition_v2,2022.2.5,29.970574888815037,
5,0,5,0,6,0,6,0,,,,,,,,,,,,,,,,,,,,,,,,,,,,,,,,,,,,,,,,,,,,,,,,,,,,,,397.4851875000022,397.4851875000022,0.008113699994282797,0.09742279999773018,1.0,1.5236707000003662,,,,,,,,,,,,,2760,Moral,2025-02-25_16h19.24.199,MoralCondition_v2,2022.2.5,29.970574888815037,
5,0,5,0,,,,,,,,,,,,,,,,,,,,,,,,,,,,,,,,,,,,,,,,,,,,,,,,,,,,,,,,,,,,,,,,399.0520364000113,399.0520364000113,0.0014229000080376863,0.09834229999978561,7.0,9.99813959999301,,,,,,,2760,Moral,2025-02-25_16h19.24.199,MoralCondition_v2,2022.2.5,29.970574888815037,
6,0,6,0,0,0,0,0,,,,,,,,,,,,,,,,,,,,,,409.0853227000043,0.0003243999963160604,0.09743949999392498,415.0850805000082,6.030855000004522,415.2682831000129,415.2682831000129,0.06780309999885503,0.1809062999964226,6.014072399993893,421.3686774000089,421.3686774000089,421.3686774000089,0.0661334999895189,0.18079089999082498,427.06862900000124,427.26847950000956,6.014234199989005,6.114120099984575,433.26839710000786,12.014245399986976,433.3684088000009,433.3684088000009,433.40176860000065,433.40176860000065,0.01431529998080805,0.11409279998042621,up,2.3221306999912485,435.7683801000094,3.139999171253294e-05,0.09805439999036025,441.7682189000043,441.7682189000043,0.009805399997276254,0.09808709999197163,1.0,1.8555832999991253,,,,,,,441.7682189000043,421.2684084000066,421.2684084000066,,,,2760,Moral,2025-02-25_16h19.24.199,MoralCondition_v2,2022.2.5,29.970574888815037,
6,0,6,0,1,0,1,0,,,,,,,,,,,,,,,,,,,,,,,,,,,,,,,,,,,,,,,,,,,,,,,,,,,,,,443.6682112000126,443.6682112000126,0.005795700009912252,0.09913820000656415,4.0,2.944471800001338,,,,,,,,,,,,,2760,Moral,2025-02-25_16h19.24.199,MoralCondition_v2,2022.2.5,29.970574888815037,
6,0,6,0,2,0,2,0,,,,,,,,,,,,,,,,,,,,,,,,,,,,,,,,,,,,,,,,,,,,,,,,,,,,,,446.65167340000335,446.65167340000335,0.0058160000044154,0.1326688999979524,5.0,3.211464000007254,,,,,,,,,,,,,2760,Moral,2025-02-25_16h19.24.199,MoralCondition_v2,2022.2.5,29.970574888815037,
6,0,6,0,3,0,3,0,,,,,,,,,,,,,,,,,,,,,,,,,,,,,,,,,,,,,,,,,,,,,,,,,,,,,,449.91846230000374,449.91846230000374,0.007850100009818561,0.11429490000591613,5.0,1.5077201999956742,,,,,,,,,,,,,2760,Moral,2025-02-25_16h19.24.199,MoralCondition_v2,2022.2.5,29.970574888815037,
6,0,6,0,4,0,4,0,,,,,,,,,,,,,,,,,,,,,,,,,,,,,,,,,,,,,,,,,,,,,,,,,,,,,,451.45170670001244,451.45170670001244,0.007061000011162832,0.09853750000183936,3.0,2.3591689000022598,,,,,,,,,,,,,2760,Moral,2025-02-25_16h19.24.199,MoralCondition_v2,2022.2.5,29.970574888815037,
6,0,6,0,5,0,5,0,,,,,,,,,,,,,,,,,,,,,,,,,,,,,,,,,,,,,,,,,,,,,,,,,,,,,,453.8517509000085,453.8517509000085,0.007490699994377792,0.09792979998746887,2.0,4.124805200000992,,,,,,,,,,,,,2760,Moral,2025-02-25_16h19.24.199,MoralCondition_v2,2022.2.5,29.970574888815037,
6,0,6,0,6,0,6,0,,,,,,,,,,,,,,,,,,,,,,,,,,,,,,,,,,,,,,,,,,,,,,,,,,,,,,458.0182361000043,458.0182361000043,0.007566200001747347,0.097866600000998,5.0,3.5913941000035265,,,,,,,,,,,,,2760,Moral,2025-02-25_16h19.24.199,MoralCondition_v2,2022.2.5,29.970574888815037,
6,0,6,0,,,,,,,,,,,,,,,,,,,,,,,,,,,,,,,,,,,,,,,,,,,,,,,,,,,,,,,,,,,,,,,,461.6517631000024,461.6517631000024,0.0011627000058069825,0.09794079999846872,7.0,2.46461249999993,,,,,,,2760,Moral,2025-02-25_16h19.24.199,MoralCondition_v2,2022.2.5,29.970574888815037,
7,0,7,0,0,0,0,0,,,,,,,,,,,,,,,,,,,,,,464.1517055000004,0.0005147999909240752,0.09760779999487568,470.15163230001053,6.031022399998619,470.3351738000056,470.3351738000056,0.07112949999282137,0.18084699999599252,6.014247999992222,476.4351011000108,476.4351011000108,476.4351011000108,0.07239279997884296,0.1809342999913497,482.1349762000027,482.3349198000069,6.014219699980458,6.114259299982223,488.3350824000081,12.014478199984296,488.43509270000504,488.43509270000504,488.46834020000824,488.46834020000824,0.014506799983792007,0.11422449997917283,up,1.7514917999942554,490.2682316000137,3.9300008211284876e-05,0.09787450000294484,496.2849947000068,496.2849947000068,0.009496600003330968,0.11475839999911841,2.0,2.906182999999146,,,,,,,496.2849947000068,476.3350002000079,476.3350002000079,,,,2760,Moral,2025-02-25_16h19.24.199,MoralCondition_v2,2022.2.5,29.970574888815037,
7,0,7,0,1,0,1,0,,,,,,,,,,,,,,,,,,,,,,,,,,,,,,,,,,,,,,,,,,,,,,,,,,,,,,499.21843040001113,499.21843040001113,0.008596800005761907,0.09921880000911187,5.0,1.6250181999930646,,,,,,,,,,,,,2760,Moral,2025-02-25_16h19.24.199,MoralCondition_v2,2022.2.5,29.970574888815037,
7,0,7,0,2,0,2,0,,,,,,,,,,,,,,,,,,,,,,,,,,,,,,,,,,,,,,,,,,,,,,,,,,,,,,500.9017337000114,500.9017337000114,0.00870210000721272,0.11472589999902993,4.0,2.1405011999886483,,,,,,,,,,,,,2760,Moral,2025-02-25_16h19.24.199,MoralCondition_v2,2022.2.5,29.970574888815037,
7,0,7,0,3,0,3,0,,,,,,,,,,,,,,,,,,,,,,,,,,,,,,,,,,,,,,,,,,,,,,,,,,,,,,503.0681927000114,503.0681927000114,0.007730499986791983,0.0977944999904139,2.0,3.3242986000113888,,,,,,,,,,,,,2760,Moral,2025-02-25_16h19.24.199,MoralCondition_v2,2022.2.5,29.970574888815037,
7,0,7,0,4,0,4,0,,,,,,,,,,,,,,,,,,,,,,,,,,,,,,,,,,,,,,,,,,,,,,,,,,,,,,506.43492700000934,506.43492700000934,0.007900199998402968,0.09787800000049174,2.0,2.624177799996687,,,,,,,,,,,,,2760,Moral,2025-02-25_16h19.24.199,MoralCondition_v2,2022.2.5,29.970574888815037,
7,0,7,0,5,0,5,0,,,,,,,,,,,,,,,,,,,,,,,,,,,,,,,,,,,,,,,,,,,,,,,,,,,,,,509.10155860001396,509.10155860001396,0.0069565000012516975,0.09925380001368467,3.0,2.7932841000001645,,,,,,,,,,,,,2760,Moral,2025-02-25_16h19.24.199,MoralCondition_v2,2022.2.5,29.970574888815037,
7,0,7,0,6,0,6,0,,,,,,,,,,,,,,,,,,,,,,,,,,,,,,,,,,,,,,,,,,,,,,,,,,,,,,511.93492640000477,511.93492640000477,0.007777799997711554,0.09787409999989904,1.0,1.7243680999963544,,,,,,,,,,,,,2760,Moral,2025-02-25_16h19.24.199,MoralCondition_v2,2022.2.5,29.970574888815037,
7,0,7,0,,,,,,,,,,,,,,,,,,,,,,,,,,,,,,,,,,,,,,,,,,,,,,,,,,,,,,,,,,,,,,,,513.701492600012,513.701492600012,0.0008129000052576885,0.09918319999997038,7.0,2.1996183000010205,,,,,,,2760,Moral,2025-02-25_16h19.24.199,MoralCondition_v2,2022.2.5,29.970574888815037,
8,0,8,0,0,0,0,0,,,,,,,,,,,,,,,,,,,,,,515.9350747000135,0.0002631999959703535,0.0981065999949351,521.9515306000103,6.0147336999943946,522.1348034000112,522.1348034000112,0.09643969999160618,0.19839639999554493,6.031431199982762,528.2349025000003,528.2349025000003,528.2349025000003,0.09217899998475332,0.19830639997962862,533.9349770000117,534.1348699000082,6.031452199982596,6.131430599984014,540.1348331000045,12.031417399979546,540.2350185000105,540.2350185000105,540.2681571000139,540.2681571000139,0.03178829998068977,0.13135369998053648,down,2.350930199987488,542.668327300009,4.669999179895967e-05,0.0980173999996623,548.684645500005,548.684645500005,0.025006800002302043,0.11478910000005271,2.0,5.790698700002395,,,,,,,,528.1348478,528.1348478,,,,2760,Moral,2025-02-25_16h19.24.199,MoralCondition_v2,2022.2.5,29.970574888815037,
8,0,8,0,1,0,1,0,,,,,,,,,,,,,,,,,,,,,,,,,,,,,,,,,,,,,,,,,,,,,,,,,,,,,,554.534823000009,554.534823000009,0.007873900001868606,0.11400060000596568,4.0,2.0739761000004364,,,,,,,,,,,,,2760,Moral,2025-02-25_16h19.24.199,MoralCondition_v2,2022.2.5,29.970574888815037,
8,0,8,0,2,0,2,0,,,,,,,,,,,,,,,,,,,,,,,,,,,,,,,,,,,,,,,,,,,,,,,,,,,,,,556.6347778000054,556.6347778000054,0.0066910000023199245,0.09927320000133477,5.0,5.193319599988172,,,,,,,,,,,,,2760,Moral,2025-02-25_16h19.24.199,MoralCondition_v2,2022.2.5,29.970574888815037,
8,0,8,0,3,0,3,0,,,,,,,,,,,,,,,,,,,,,,,,,,,,,,,,,,,,,,,,,,,,,,,,,,,,,,561.868080900007,561.868080900007,0.007717600004980341,0.09768049999547657,5.0,1.9576836000051117,,,,,,,,,,,,,2760,Moral,2025-02-25_16h19.24.199,MoralCondition_v2,2022.2.5,29.970574888815037,
8,0,8,0,4,0,4,0,,,,,,,,,,,,,,,,,,,,,,,,,,,,,,,,,,,,,,,,,,,,,,,,,,,,,,563.8680906000081,563.8680906000081,0.0074610999872675166,0.09894119999080431,5.0,3.8592400000052294,,,,,,,,,,,,,2760,Moral,2025-02-25_16h19.24.199,MoralCondition_v2,2022.2.5,29.970574888815037,
8,0,8,0,5,0,5,0,,,,,,,,,,,,,,,,,,,,,,,,,,,,,,,,,,,,,,,,,,,,,,,,,,,,,,567.768335300003,567.768335300003,0.008616799997980706,0.09898090000206139,3.0,3.2581353999994462,,,,,,,,,,,,,2760,Moral,2025-02-25_16h19.24.199,MoralCondition_v2,2022.2.5,29.970574888815037,
8,0,8,0,6,0,6,0,,,,,,,,,,,,,,,,,,,,,,,,,,,,,,,,,,,,,,,,,,,,,,,,,,,,,,571.0680788000027,571.0680788000027,0.008023100002901629,0.09765679998963606,3.0,2.7571968999982346,,,,,,,,,,,,,2760,Moral,2025-02-25_16h19.24.199,MoralCondition_v2,2022.2.5,29.970574888815037,
8,0,8,0,,,,,,,,,,,,,,,,,,,,,,,,,,,,,,,,,,,,,,,,,,,,,,,,,,,,,,,,,,,,,,,,573.8680494,573.8680494,0.0011908000014955178,0.09810990000551101,6.0,3.3982766999979503,,,,,,,2760,Moral,2025-02-25_16h19.24.199,MoralCondition_v2,2022.2.5,29.970574888815037,
9,0,9,0,0,0,0,0,,,,,,,,,,,,,,,,,,,,,,577.3014624000061,0.0001365000061923638,0.09911350000766106,583.3180598000035,6.015774600004079,583.5013032000134,583.5013032000134,0.09758829999191221,0.1990605000028154,5.999030399994808,589.5679890000029,589.5679890000029,589.5679890000029,0.06359889998566359,0.16574429998581763,595.2680215,595.5015869000053,5.999059499983559,6.099202199984575,601.5013695000089,11.999003599994467,601.5511938000127,601.5511938000127,601.6012978000072,601.6012978000072,-0.0003924000193364918,0.0990031999826897,down,1.8338108999887481,603.4846859000099,4.549999721348286e-05,0.09764990000985563,609.5011675000133,609.5011675000133,0.02603829999861773,0.11431859999720473,5.0,3.9893224999977974,,,,,,,,589.5679890000029,589.5679890000029,,6.099077299993951,12.098887999993167,2760,Moral,2025-02-25_16h19.24.199,MoralCondition_v2,2022.2.5,29.970574888815037,
9,0,9,0,1,0,1,0,,,,,,,,,,,,,,,,,,,,,,,,,,,,,,,,,,,,,,,,,,,,,,,,,,,,,,613.5346604000079,613.5346604000079,0.006619199994020164,0.09910500000114553,5.0,1.9269760999886785,,,,,,,,,,,,,2760,Moral,2025-02-25_16h19.24.199,MoralCondition_v2,2022.2.5,29.970574888815037,
9,0,9,0,2,0,2,0,,,,,,,,,,,,,,,,,,,,,,,,,,,,,,,,,,,,,,,,,,,,,,,,,,,,,,615.5012261000084,615.5012261000084,0.005996299994876608,0.09857699999702163,3.0,1.8602582000021357,,,,,,,,,,,,,2760,Moral,2025-02-25_16h19.24.199,MoralCondition_v2,2022.2.5,29.970574888815037,
9,0,9,0,3,0,3,0,,,,,,,,,,,,,,,,,,,,,,,,,,,,,,,,,,,,,,,,,,,,,,,,,,,,,,617.4011356000119,617.4011356000119,0.008066399997915141,0.09857820000615902,3.0,4.224851499995566,,,,,,,,,,,,,2760,Moral,2025-02-25_16h19.24.199,MoralCondition_v2,2022.2.5,29.970574888815037,
9,0,9,0,4,0,4,0,,,,,,,,,,,,,,,,,,,,,,,,,,,,,,,,,,,,,,,,,,,,,,,,,,,,,,621.6680901000072,621.6680901000072,0.006551099999342114,0.09926019998965785,5.0,1.8601174999930663,,,,,,,,,,,,,2760,Moral,2025-02-25_16h19.24.199,MoralCondition_v2,2022.2.5,29.970574888815037,
9,0,9,0,5,0,5,0,,,,,,,,,,,,,,,,,,,,,,,,,,,,,,,,,,,,,,,,,,,,,,,,,,,,,,623.584734700009,623.584734700009,0.008268300007330254,0.11450670000340324,2.0,1.940579500005697,,,,,,,,,,,,,2760,Moral,2025-02-25_16h19.24.199,MoralCondition_v2,2022.2.5,29.970574888815037,
9,0,9,0,6,0,6,0,,,,,,,,,,,,,,,,,,,,,,,,,,,,,,,,,,,,,,,,,,,,,,,,,,,,,,625.5512276000081,625.5512276000081,0.008358499995665625,0.09823479999613483,2.0,2.424282799998764,,,,,,,,,,,,,2760,Moral,2025-02-25_16h19.24.199,MoralCondition_v2,2022.2.5,29.970574888815037,
9,0,9,0,,,,,,,,,,,,,,,,,,,,,,,,,,,,,,,,,,,,,,,,,,,,,,,,,,,,,,,,,,,,,,,,628.0178366000036,628.0178366000036,0.001324099997873418,0.09807829999772366,2.0,1.8644519000081345,,,,,,,2760,Moral,2025-02-25_16h19.24.199,MoralCondition_v2,2022.2.5,29.970574888815037,
10,0,10,0,0,0,0,0,,,,,,,,,,,,,,,,,,,,,,629.9181132000085,0.00035000000207219273,0.0978295000095386,635.917857700013,6.0310141000081785,636.1013653000118,636.1013653000118,0.07085859999642707,0.1812381999916397,6.014270100000431,642.2013432000094,642.2013432000094,642.2013432000094,0.06940449999819975,0.18119920000026468,647.9011499000044,648.1011512000114,6.014291299987235,6.114270299993223,654.1011282000109,12.014264499986893,654.2011290000082,654.2011290000082,654.2344532999996,654.2344532999996,0.01446929998928681,0.11425309999322053,up,1.6655958999908762,655.9344813000062,3.919999289792031e-05,0.0978051999991294,661.9509105000034,661.9509105000034,0.02405249999719672,0.1143584999954328,4.0,3.1247498000011547,,,,,,,,642.1011638000055,642.1011638000055,,,,2760,Moral,2025-02-25_16h19.24.199,MoralCondition_v2,2022.2.5,29.970574888815037,
10,0,10,0,1,0,1,0,,,,,,,,,,,,,,,,,,,,,,,,,,,,,,,,,,,,,,,,,,,,,,,,,,,,,,665.1177790000074,665.1177790000074,0.008869199999026023,0.09886199999891687,5.0,2.0910011999949347,,,,,,,,,,,,,2760,Moral,2025-02-25_16h19.24.199,MoralCondition_v2,2022.2.5,29.970574888815037,
10,0,10,0,2,0,2,0,,,,,,,,,,,,,,,,,,,,,,,,,,,,,,,,,,,,,,,,,,,,,,,,,,,,,,667.2511378000054,667.2511378000054,0.007632199994986877,0.09825860000273678,4.0,2.2583473999984562,,,,,,,,,,,,,2760,Moral,2025-02-25_16h19.24.199,MoralCondition_v2,2022.2.5,29.970574888815037,
10,0,10,0,3,0,3,0,,,,,,,,,,,,,,,,,,,,,,,,,,,,,,,,,,,,,,,,,,,,,,,,,,,,,,669.5679203000036,669.5679203000036,0.007941100004245527,0.11465370000223629,4.0,3.3410423999885097,,,,,,,,,,,,,2760,Moral,2025-02-25_16h19.24.199,MoralCondition_v2,2022.2.5,29.970574888815037,
10,0,10,0,4,0,4,0,,,,,,,,,,,,,,,,,,,,,,,,,,,,,,,,,,,,,,,,,,,,,,,,,,,,,,672.9345871000114,672.9345871000114,0.006621599997743033,0.09939270000904799,5.0,2.1272898000024725,,,,,,,,,,,,,2760,Moral,2025-02-25_16h19.24.199,MoralCondition_v2,2022.2.5,29.970574888815037,
10,0,10,0,5,0,5,0,,,,,,,,,,,,,,,,,,,,,,,,,,,,,,,,,,,,,,,,,,,,,,,,,,,,,,675.1010344000097,675.1010344000097,0.006669099995633587,0.09932689998822752,2.0,2.5267794000101276,,,,,,,,,,,,,2760,Moral,2025-02-25_16h19.24.199,MoralCondition_v2,2022.2.5,29.970574888815037,
10,0,10,0,6,0,6,0,,,,,,,,,,,,,,,,,,,,,,,,,,,,,,,,,,,,,,,,,,,,,,,,,,,,,,677.6682926000067,677.6682926000067,0.006428499997127801,0.09834719999344088,2.0,1.3261668000050122,,,,,,,,,,,,,2760,Moral,2025-02-25_16h19.24.199,MoralCondition_v2,2022.2.5,29.970574888815037,
10,0,10,0,,,,,,,,,,,,,,,,,,,,,,,,,,,,,,,,,,,,,,,,,,,,,,,,,,,,,,,,,,,,,,,,679.0344225000008,679.0344225000008,0.001326800003880635,0.0980727999994997,7.0,3.297579499994754,,,,,,,2760,Moral,2025-02-25_16h19.24.199,MoralCondition_v2,2022.2.5,29.970574888815037,
11,0,11,0,0,0,0,0,,,,,,,,,,,,,,,,,,,,,,682.3680875000136,0.00014540000120177865,0.09934790000261273,688.3676949000073,5.99915570000303,688.5508780000091,688.5508780000091,0.07221650000428781,0.18241559999296442,6.015780599991558,694.6509407000121,694.6509407000121,694.6509407000121,0.07204609998734668,0.18247699999483302,700.351006300014,700.5510481000092,6.015875399985816,6.116043099988019,706.5509734000079,12.015769499994349,706.651305300009,706.651305300009,706.6848938000039,706.6848938000039,0.016249499982222915,0.11614889999327715,down,1.0379028999886941,707.7844337000133,4.949999856762588e-05,0.09759510000003502,713.8177932000108,713.8177932000108,0.025451299996348098,0.13117540000530425,2.0,2.6065832000022056,,,,,,,,694.5510563000134,694.5510563000134,,,,2760,Moral,2025-02-25_16h19.24.199,MoralCondition_v2,2022.2.5,29.970574888815037,
11,0,11,0,1,0,1,0,,,,,,,,,,,,,,,,,,,,,,,,,,,,,,,,,,,,,,,,,,,,,,,,,,,,,,716.4511306000059,716.4511306000059,0.007991899998160079,0.09738410000863951,4.0,5.257122499999241,,,,,,,,,,,,,2760,Moral,2025-02-25_16h19.24.199,MoralCondition_v2,2022.2.5,29.970574888815037,
11,0,11,0,2,0,2,0,,,,,,,,,,,,,,,,,,,,,,,,,,,,,,,,,,,,,,,,,,,,,,,,,,,,,,721.7510917000036,721.7510917000036,0.0070466000033775344,0.09940239999559708,5.0,2.8265423999982886,,,,,,,,,,,,,2760,Moral,2025-02-25_16h19.24.199,MoralCondition_v2,2022.2.5,29.970574888815037,
11,0,11,0,3,0,3,0,,,,,,,,,,,,,,,,,,,,,,,,,,,,,,,,,,,,,,,,,,,,,,,,,,,,,,724.6343141000107,724.6343141000107,0.008079799998085946,0.11408400000073016,3.0,4.1737603999936255,,,,,,,,,,,,,2760,Moral,2025-02-25_16h19.24.199,MoralCondition_v2,2022.2.5,29.970574888815037,
11,0,11,0,4,0,4,0,,,,,,,,,,,,,,,,,,,,,,,,,,,,,,,,,,,,,,,,,,,,,,,,,,,,,,728.8511014000105,728.8511014000105,0.008067599992500618,0.11399949999758974,5.0,3.6734276000061072,,,,,,,,,,,,,2760,Moral,2025-02-25_16h19.24.199,MoralCondition_v2,2022.2.5,29.970574888815037,
11,0,11,0,5,0,5,0,,,,,,,,,,,,,,,,,,,,,,,,,,,,,,,,,,,,,,,,,,,,,,,,,,,,,,732.5678138000076,732.5678138000076,0.00792360000195913,0.1141090000019176,5.0,3.274060099996859,,,,,,,,,,,,,2760,Moral,2025-02-25_16h19.24.199,MoralCondition_v2,2022.2.5,29.970574888815037,
11,0,11,0,6,0,6,0,,,,,,,,,,,,,,,,,,,,,,,,,,,,,,,,,,,,,,,,,,,,,,,,,,,,,,735.884615300005,735.884615300005,0.00778649999119807,0.11407919999328442,5.0,1.3741122000064934,,,,,,,,,,,,,2760,Moral,2025-02-25_16h19.24.199,MoralCondition_v2,2022.2.5,29.970574888815037,
11,0,11,0,,,,,,,,,,,,,,,,,,,,,,,,,,,,,,,,,,,,,,,,,,,,,,,,,,,,,,,,,,,,,,,,737.2844232000061,737.2844232000061,0.0007416000007651746,0.09936110000126064,1.0,4.4330977000063285,,,,,,,2760,Moral,2025-02-25_16h19.24.199,MoralCondition_v2,2022.2.5,29.970574888815037,
12,0,12,0,0,0,0,0,,,,,,,,,,,,,,,,,,,,,,741.7508267000085,0.0004008999967481941,0.09734259999822825,747.7509063000034,6.030730699989363,747.9509721000068,747.9509721000068,0.08988689999387134,0.19745629998215009,6.0305988999898545,754.051028300004,754.051028300004,754.051028300004,0.08731949998764321,0.19751889997860417,759.750841400004,759.9509137000132,6.0307504999800585,6.130986699979985,765.9508272000094,12.030648399988422,766.0507876000047,766.0507876000047,766.0841511000035,766.0841511000035,0.030772299971431494,0.130607399973087,up,2.1511862999905134,768.2842433000042,5.3499999921768904e-05,0.09789330000057817,774.3008344000118,774.3008344000118,0.009153999999398366,0.11464119999436662,2.0,2.2063380000035977,,,,,,,774.3008344000118,753.9509474000079,753.9509474000079,,,,2760,Moral,2025-02-25_16h19.24.199,MoralCondition_v2,2022.2.5,29.970574888815037,
12,0,12,0,1,0,1,0,,,,,,,,,,,,,,,,,,,,,,,,,,,,,,,,,,,,,,,,,,,,,,,,,,,,,,776.5343319000094,776.5343319000094,0.007482700006221421,0.09710790000099223,3.0,2.7242469000048004,,,,,,,,,,,,,2760,Moral,2025-02-25_16h19.24.199,MoralCondition_v2,2022.2.5,29.970574888815037,
12,0,12,0,2,0,2,0,,,,,,,,,,,,,,,,,,,,,,,,,,,,,,,,,,,,,,,,,,,,,,,,,,,,,,779.3176521000132,779.3176521000132,0.008609199998318218,0.1142495000094641,1.0,2.739967000001343,,,,,,,,,,,,,2760,Moral,2025-02-25_16h19.24.199,MoralCondition_v2,2022.2.5,29.970574888815037,
12,0,12,0,3,0,3,0,,,,,,,,,,,,,,,,,,,,,,,,,,,,,,,,,,,,,,,,,,,,,,,,,,,,,,782.0844134000072,782.0844134000072,0.010583399998722598,0.09771489999548066,2.0,5.35495589999482,,,,,,,,,,,,,2760,Moral,2025-02-25_16h19.24.199,MoralCondition_v2,2022.2.5,29.970574888815037,
12,0,12,0,4,0,4,0,,,,,,,,,,,,,,,,,,,,,,,,,,,,,,,,,,,,,,,,,,,,,,,,,,,,,,787.4840863999998,787.4840863999998,0.006688599998597056,0.09909479999623727,5.0,1.9599943999928655,,,,,,,,,,,,,2760,Moral,2025-02-25_16h19.24.199,MoralCondition_v2,2022.2.5,29.970574888815037,
12,0,12,0,5,0,5,0,,,,,,,,,,,,,,,,,,,,,,,,,,,,,,,,,,,,,,,,,,,,,,,,,,,,,,789.4842999000102,789.4842999000102,0.007668499994906597,0.09746049999375828,2.0,3.0909184999909485,,,,,,,,,,,,,2760,Moral,2025-02-25_16h19.24.199,MoralCondition_v2,2022.2.5,29.970574888815037,
12,0,12,0,6,0,6,0,,,,,,,,,,,,,,,,,,,,,,,,,,,,,,,,,,,,,,,,,,,,,,,,,,,,,,792.6173745000124,792.6173745000124,0.00714210000296589,0.09939149999991059,4.0,2.2267502000031527,,,,,,,,,,,,,2760,Moral,2025-02-25_16h19.24.199,MoralCondition_v2,2022.2.5,29.970574888815037,
12,0,12,0,,,,,,,,,,,,,,,,,,,,,,,,,,,,,,,,,,,,,,,,,,,,,,,,,,,,,,,,,,,,,,,,794.8839510000107,794.8839510000107,0.0010043999936897308,0.09833799999614712,2.0,5.998567699993146,,,,,,,2760,Moral,2025-02-25_16h19.24.199,MoralCondition_v2,2022.2.5,29.970574888815037,
13,0,13,0,0,0,0,0,,,,,,,,,,,,,,,,,,,,,,800.9177523000108,0.00039060000563040376,0.09755030000815168,806.9340239000012,6.014189100009389,807.1008103000058,807.1008103000058,0.07575410000572447,0.18106240000633989,6.0141419999999925,813.2005230000068,813.2005230000068,813.2005230000068,0.07093909999821335,0.18084760000056121,818.9006315000006,819.1006582000118,6.014154999997118,6.11423890000151,825.1007330000139,12.014246299993829,825.2006840000104,825.2006840000104,825.2338199000078,825.2338199000078,0.014365999988513067,0.11407929999404587,down,1.3536094000010053,826.6339567000105,7.270000060088933e-05,0.09832940000342205,832.6506836000044,832.6506836000044,0.008935999998357147,0.11471029999665916,2.0,2.3400655000004917,,,,,,,832.6506836000044,813.1006658000115,813.1006658000115,,,,2760,Moral,2025-02-25_16h19.24.199,MoralCondition_v2,2022.2.5,29.970574888815037,
13,0,13,0,1,0,1,0,,,,,,,,,,,,,,,,,,,,,,,,,,,,,,,,,,,,,,,,,,,,,,,,,,,,,,835.0172658000083,835.0172658000083,0.006458300005760975,0.09861700001056306,2.0,1.3597485999925993,,,,,,,,,,,,,2760,Moral,2025-02-25_16h19.24.199,MoralCondition_v2,2022.2.5,29.970574888815037,
13,0,13,0,2,0,2,0,,,,,,,,,,,,,,,,,,,,,,,,,,,,,,,,,,,,,,,,,,,,,,,,,,,,,,836.417219400013,836.417219400013,0.00637240000651218,0.09932259999914095,3.0,1.8604081999947084,,,,,,,,,,,,,2760,Moral,2025-02-25_16h19.24.199,MoralCondition_v2,2022.2.5,29.970574888815037,
13,0,13,0,3,0,3,0,,,,,,,,,,,,,,,,,,,,,,,,,,,,,,,,,,,,,,,,,,,,,,,,,,,,,,838.3173845000128,838.3173845000128,0.007477999999537133,0.09763350000139326,2.0,1.325004500002251,,,,,,,,,,,,,2760,Moral,2025-02-25_16h19.24.199,MoralCondition_v2,2022.2.5,29.970574888815037,
13,0,13,0,4,0,4,0,,,,,,,,,,,,,,,,,,,,,,,,,,,,,,,,,,,,,,,,,,,,,,,,,,,,,,839.6838186000095,839.6838186000095,0.008448199994745664,0.09798530000261962,6.0,2.0905112999898847,,,,,,,,,,,,,2760,Moral,2025-02-25_16h19.24.199,MoralCondition_v2,2022.2.5,29.970574888815037,
13,0,13,0,5,0,5,0,,,,,,,,,,,,,,,,,,,,,,,,,,,,,,,,,,,,,,,,,,,,,,,,,,,,,,841.8172762000031,841.8172762000031,0.007279099998413585,0.09924160000809934,2.0,3.892967399995541,,,,,,,,,,,,,2760,Moral,2025-02-25_16h19.24.199,MoralCondition_v2,2022.2.5,29.970574888815037,
13,0,13,0,6,0,6,0,,,,,,,,,,,,,,,,,,,,,,,,,,,,,,,,,,,,,,,,,,,,,,,,,,,,,,845.7506761000113,845.7506761000113,0.007565499996417202,0.0980487000051653,2.0,3.0579744999995455,,,,,,,,,,,,,2760,Moral,2025-02-25_16h19.24.199,MoralCondition_v2,2022.2.5,29.970574888815037,
13,0,13,0,,,,,,,,,,,,,,,,,,,,,,,,,,,,,,,,,,,,,,,,,,,,,,,,,,,,,,,,,,,,,,,,848.8504393000039,848.8504393000039,0.0016905999946175143,0.09781669999938458,2.0,2.2643570999935037,,,,,,,2760,Moral,2025-02-25_16h19.24.199,MoralCondition_v2,2022.2.5,29.970574888815037,
14,0,14,0,0,0,0,0,,,,,,,,,,,,,,,,,,,,,,851.1506192000088,0.00037939999310765415,0.09741010000288952,857.1671674000099,6.014229399996111,857.3336460000137,857.3336460000137,0.07907689998683054,0.1809083999833092,6.014033899991773,863.4339830000099,863.4339830000099,863.4339830000099,0.07695239999156911,0.1809130999899935,869.1337480000075,869.3339667000109,6.014382999986992,6.11420489999,875.3338501000107,12.014295999979367,875.4337907000008,875.4337907000008,875.467123800001,875.467123800001,0.01432709998334758,0.11429439997300506,up,1.4562915999995312,876.9671099000116,4.050000279676169e-05,0.09817460000340361,882.9836728000082,882.9836728000082,0.025584700008039363,0.11494490000768565,6.0,2.923409700000775,,,,,,,,863.3338565000013,863.3338565000013,,,,2760,Moral,2025-02-25_16h19.24.199,MoralCondition_v2,2022.2.5,29.970574888815037,
14,0,14,0,1,0,1,0,,,,,,,,,,,,,,,,,,,,,,,,,,,,,,,,,,,,,,,,,,,,,,,,,,,,,,885.9504294000071,885.9504294000071,0.007389100006548688,0.0977911999943899,1.0,2.891455799996038,,,,,,,,,,,,,2760,Moral,2025-02-25_16h19.24.199,MoralCondition_v2,2022.2.5,29.970574888815037,
14,0,14,0,2,0,2,0,,,,,,,,,,,,,,,,,,,,,,,,,,,,,,,,,,,,,,,,,,,,,,,,,,,,,,888.9010165000072,888.9010165000072,0.011820799991255626,0.11416379999718629,1.0,2.2701390000001993,,,,,,,,,,,,,2760,Moral,2025-02-25_16h19.24.199,MoralCondition_v2,2022.2.5,29.970574888815037,
14,0,14,0,3,0,3,0,,,,,,,,,,,,,,,,,,,,,,,,,,,,,,,,,,,,,,,,,,,,,,,,,,,,,,891.2003731000004,891.2003731000004,0.0072029000002657995,0.097417899989523,1.0,1.6243554999964545,,,,,,,,,,,,,2760,Moral,2025-02-25_16h19.24.199,MoralCondition_v2,2022.2.5,29.970574888815037,
14,0,14,0,4,0,4,0,,,,,,,,,,,,,,,,,,,,,,,,,,,,,,,,,,,,,,,,,,,,,,,,,,,,,,892.8839392000082,892.8839392000082,0.008371700008865446,0.11448709999967832,5.0,2.207091999996919,,,,,,,,,,,,,2760,Moral,2025-02-25_16h19.24.199,MoralCondition_v2,2022.2.5,29.970574888815037,
14,0,14,0,5,0,5,0,,,,,,,,,,,,,,,,,,,,,,,,,,,,,,,,,,,,,,,,,,,,,,,,,,,,,,895.1337232000078,895.1337232000078,0.008096200006548315,0.11438729999645147,1.0,3.940797900009784,,,,,,,,,,,,,2760,Moral,2025-02-25_16h19.24.199,MoralCondition_v2,2022.2.5,29.970574888815037,
14,0,14,0,6,0,6,0,,,,,,,,,,,,,,,,,,,,,,,,,,,,,,,,,,,,,,,,,,,,,,,,,,,,,,899.1172975000081,899.1172975000081,0.007714400009717792,0.11424980001174845,1.0,1.007562600003439,,,,,,,,,,,,,2760,Moral,2025-02-25_16h19.24.199,MoralCondition_v2,2022.2.5,29.970574888815037,
14,0,14,0,,,,,,,,,,,,,,,,,,,,,,,,,,,,,,,,,,,,,,,,,,,,,,,,,,,,,,,,,,,,,,,,900.1504744000122,900.1504744000122,0.0007401000038953498,0.09936609999567736,7.0,6.032905699990806,,,,,,,2760,Moral,2025-02-25_16h19.24.199,MoralCondition_v2,2022.2.5,29.970574888815037,
15,0,15,0,0,0,0,0,,,,,,,,,,,,,,,,,,,,,,906.2171809000138,0.00013349999790079892,0.09925299999304116,912.2169971000112,5.99923809999018,912.3837629000045,912.3837629000045,0.053740899995318614,0.16617059998679906,5.999223899998469,918.4838213000039,918.4838213000039,918.4838213000039,0.05267429997911677,0.16601559998525772,924.1836142000102,924.3837612000061,5.9994356999814045,6.099177499985672,930.3836001000018,11.99919959998806,930.483830600002,930.483830600002,930.5169581000082,930.5169581000082,0.0003383999865036458,0.09917439997661859,down,1.653859799989732,932.2336253000103,0.00012539999443106353,0.09803680000186432,938.233464200006,938.233464200006,0.008182699995813891,0.09791909999330528,5.0,3.191085700003896,,,,,,,938.233464200006,918.3835492000071,918.3835492000071,6.0993596999906,6.099122299987357,12.099428399989847,2760,Moral,2025-02-25_16h19.24.199,MoralCondition_v2,2022.2.5,29.970574888815037,
15,0,15,0,1,0,1,0,,,,,,,,,,,,,,,,,,,,,,,,,,,,,,,,,,,,,,,,,,,,,,,,,,,,,,941.4667049000127,941.4667049000127,0.0075127000018255785,0.09797729999991134,1.0,2.3245057000021916,,,,,,,,,,,,,2760,Moral,2025-02-25_16h19.24.199,MoralCondition_v2,2022.2.5,29.970574888815037,
15,0,15,0,2,0,2,0,,,,,,,,,,,,,,,,,,,,,,,,,,,,,,,,,,,,,,,,,,,,,,,,,,,,,,943.833604600004,943.833604600004,0.008568699995521456,0.09768239999539219,1.0,1.95704459999979,,,,,,,,,,,,,2760,Moral,2025-02-25_16h19.24.199,MoralCondition_v2,2022.2.5,29.970574888815037,
15,0,15,0,3,0,3,0,,,,,,,,,,,,,,,,,,,,,,,,,,,,,,,,,,,,,,,,,,,,,,,,,,,,,,945.8337615000055,945.8337615000055,0.0073675000021466985,0.09734550000575837,6.0,4.524216499994509,,,,,,,,,,,,,2760,Moral,2025-02-25_16h19.24.199,MoralCondition_v2,2022.2.5,29.970574888815037,
15,0,15,0,4,0,4,0,,,,,,,,,,,,,,,,,,,,,,,,,,,,,,,,,,,,,,,,,,,,,,,,,,,,,,950.4001594000001,950.4001594000001,0.0077957000030437484,0.09776570000394713,1.0,1.9246303000109037,,,,,,,,,,,,,2760,Moral,2025-02-25_16h19.24.199,MoralCondition_v2,2022.2.5,29.970574888815037,
15,0,15,0,5,0,5,0,,,,,,,,,,,,,,,,,,,,,,,,,,,,,,,,,,,,,,,,,,,,,,,,,,,,,,952.3668368000071,952.3668368000071,0.006625799986068159,0.09918319999997038,1.0,3.126974799990421,,,,,,,,,,,,,2760,Moral,2025-02-25_16h19.24.199,MoralCondition_v2,2022.2.5,29.970574888815037,
15,0,15,0,6,0,6,0,,,,,,,,,,,,,,,,,,,,,,,,,,,,,,,,,,,,,,,,,,,,,,,,,,,,,,955.5337833000085,955.5337833000085,0.0070368000015150756,0.09852919999684673,1.0,0.7927423000073759,,,,,,,,,,,,,2760,Moral,2025-02-25_16h19.24.199,MoralCondition_v2,2022.2.5,29.970574888815037,
15,0,15,0,,,,,,,,,,,,,,,,,,,,,,,,,,,,,,,,,,,,,,,,,,,,,,,,,,,,,,,,,,,,,,,,956.3671249000035,956.3671249000035,0.001381900001433678,0.09788650000700727,2.0,6.830669400005718,,,,,,,2760,Moral,2025-02-25_16h19.24.199,MoralCondition_v2,2022.2.5,29.970574888815037,
16,0,16,0,0,0,0,0,,,,,,,,,,,,,,,,,,,,,,963.2336654000101,0.00030729999707546085,0.09778880000521895,969.2501351000101,6.014296599998488,969.416696500004,969.416696500004,0.07011889999557752,0.18097829999169335,6.014251299988246,975.5170320000034,975.5170320000034,975.5170320000034,0.07457919999433216,0.18116469998494722,981.2168663000048,981.4167973000003,6.014318099987577,6.114393299983931,987.4167580000067,12.014305999982753,987.5167059000087,987.5167059000087,987.5500678000099,987.5500678000099,0.014373299985891208,0.1140138999762712,up,0.3326749999978347,987.9334430000017,4.8900008550845087e-05,0.09795219999796245,993.9668152000086,993.9668152000086,0.025412900009541772,0.13112259999616072,1.0,2.7067651999968803,,,,,,,,975.4167575000029,975.4167575000029,,,,2760,Moral,2025-02-25_16h19.24.199,MoralCondition_v2,2022.2.5,29.970574888815037,
16,0,16,0,1,0,1,0,,,,,,,,,,,,,,,,,,,,,,,,,,,,,,,,,,,,,,,,,,,,,,,,,,,,,,996.6999896000052,996.6999896000052,0.007852299997466616,0.09775220000301488,3.0,4.290875299993786,,,,,,,,,,,,,2760,Moral,2025-02-25_16h19.24.199,MoralCondition_v2,2022.2.5,29.970574888815037,
16,0,16,0,2,0,2,0,,,,,,,,,,,,,,,,,,,,,,,,,,,,,,,,,,,,,,,,,,,,,,,,,,,,,,1001.0333354000031,1001.0333354000031,0.007272000002558343,0.09755150000273716,1.0,2.4915466000093147,,,,,,,,,,,,,2760,Moral,2025-02-25_16h19.24.199,MoralCondition_v2,2022.2.5,29.970574888815037,
16,0,16,0,3,0,3,0,,,,,,,,,,,,,,,,,,,,,,,,,,,,,,,,,,,,,,,,,,,,,,,,,,,,,,1003.583381400007,1003.583381400007,0.008506199999828823,0.11418540000158828,4.0,2.5401373999920906,,,,,,,,,,,,,2760,Moral,2025-02-25_16h19.24.199,MoralCondition_v2,2022.2.5,29.970574888815037,
16,0,16,0,4,0,4,0,,,,,,,,,,,,,,,,,,,,,,,,,,,,,,,,,,,,,,,,,,,,,,,,,,,,,,1006.1498315000063,1006.1498315000063,0.007224100001621991,0.09803280000051018,1.0,1.725526299997,,,,,,,,,,,,,2760,Moral,2025-02-25_16h19.24.199,MoralCondition_v2,2022.2.5,29.970574888815037,
16,0,16,0,5,0,5,0,,,,,,,,,,,,,,,,,,,,,,,,,,,,,,,,,,,,,,,,,,,,,,,,,,,,,,1007.9334854000044,1007.9334854000044,0.00803979999909643,0.11452200000348967,1.0,0.8075716000021202,,,,,,,,,,,,,2760,Moral,2025-02-25_16h19.24.199,MoralCondition_v2,2022.2.5,29.970574888815037,
16,0,16,0,6,0,6,0,,,,,,,,,,,,,,,,,,,,,,,,,,,,,,,,,,,,,,,,,,,,,,,,,,,,,,1008.7664900000091,1008.7664900000091,0.008304699993459508,0.09715519999735989,7.0,2.2231691000051796,,,,,,,,,,,,,2760,Moral,2025-02-25_16h19.24.199,MoralCondition_v2,2022.2.5,29.970574888815037,
16,0,16,0,,,,,,,,,,,,,,,,,,,,,,,,,,,,,,,,,,,,,,,,,,,,,,,,,,,,,,,,,,,,,,,,1011.0332245000027,1011.0332245000027,0.0013340000004973263,0.09745000000111759,7.0,4.4641876999958185,,,,,,,2760,Moral,2025-02-25_16h19.24.199,MoralCondition_v2,2022.2.5,29.970574888815037,
17,0,17,0,0,0,0,0,,,,,,,,,,,,,,,,,,,,,,1015.5333847000002,0.00010720000136643648,0.09930400000303052,1021.5499597000016,6.015990800005966,1021.7165945000015,1021.7165945000015,0.0715860999916913,0.18257779999112245,6.015949599997839,1027.8164504000015,1027.8164504000015,1027.8164504000015,0.07084379998559598,0.1827630999905523,1033.5165214000008,1033.7165344000096,6.015969899992342,6.11586899998656,1039.7165349999996,12.015898199984804,1039.8165265999996,1039.8165265999996,1039.849881400005,1039.849881400005,0.01605229997949209,0.11583599998266436,down,1.0407050999929197,1040.9498936000018,5.649999366141856e-05,0.09792000000015832,1046.9665052000055,1046.9665052000055,0.010111900002812035,0.11470000000554137,2.0,7.838674600003287,,,,,,,1046.9665052000055,1027.716565300012,1027.716565300012,,,,2760,Moral,2025-02-25_16h19.24.199,MoralCondition_v2,2022.2.5,29.970574888815037,
17,0,17,0,1,0,1,0,,,,,,,,,,,,,,,,,,,,,,,,,,,,,,,,,,,,,,,,,,,,,,,,,,,,,,1054.8500188000035,1054.8500188000035,0.007964299991726875,0.1143480000027921,6.0,2.140637100004824,,,,,,,,,,,,,2760,Moral,2025-02-25_16h19.24.199,MoralCondition_v2,2022.2.5,29.970574888815037,
17,0,17,0,2,0,2,0,,,,,,,,,,,,,,,,,,,,,,,,,,,,,,,,,,,,,,,,,,,,,,,,,,,,,,1057.0335587000009,1057.0335587000009,0.007664800010388717,0.11402079999970738,2.0,3.1408121999993455,,,,,,,,,,,,,2760,Moral,2025-02-25_16h19.24.199,MoralCondition_v2,2022.2.5,29.970574888815037,
17,0,17,0,3,0,3,0,,,,,,,,,,,,,,,,,,,,,,,,,,,,,,,,,,,,,,,,,,,,,,,,,,,,,,1060.1997599000024,1060.1997599000024,0.00652500000433065,0.09914489999937359,1.0,1.9269906999979867,,,,,,,,,,,,,2760,Moral,2025-02-25_16h19.24.199,MoralCondition_v2,2022.2.5,29.970574888815037,
17,0,17,0,4,0,4,0,,,,,,,,,,,,,,,,,,,,,,,,,,,,,,,,,,,,,,,,,,,,,,,,,,,,,,1062.1663559000008,1062.1663559000008,0.0066020999947795644,0.09932589999516495,1.0,0.760697200006689,,,,,,,,,,,,,2760,Moral,2025-02-25_16h19.24.199,MoralCondition_v2,2022.2.5,29.970574888815037,
17,0,17,0,5,0,5,0,,,,,,,,,,,,,,,,,,,,,,,,,,,,,,,,,,,,,,,,,,,,,,,,,,,,,,1062.9665822000097,1062.9665822000097,0.007524700005888008,0.09751200000755489,3.0,6.8243587000033585,,,,,,,,,,,,,2760,Moral,2025-02-25_16h19.24.199,MoralCondition_v2,2022.2.5,29.970574888815037,
17,0,17,0,6,0,6,0,,,,,,,,,,,,,,,,,,,,,,,,,,,,,,,,,,,,,,,,,,,,,,,,,,,,,,1069.8330852000072,1069.8330852000072,0.007104200005414896,0.09841140000207815,1.0,1.7254870000033407,,,,,,,,,,,,,2760,Moral,2025-02-25_16h19.24.199,MoralCondition_v2,2022.2.5,29.970574888815037,
17,0,17,0,,,,,,,,,,,,,,,,,,,,,,,,,,,,,,,,,,,,,,,,,,,,,,,,,,,,,,,,,,,,,,,,1071.5998555000115,1071.5998555000115,0.0006846000032965094,0.09916260000318289,1.0,8.466301199994632,,,,,,,2760,Moral,2025-02-25_16h19.24.199,MoralCondition_v2,2022.2.5,29.970574888815037,
18,0,18,0,0,0,0,0,,,,,,,,,,,,,,,,,,,,,,1080.0997207000037,0.0002283000067109242,0.09852840000530705,1086.1163404000108,6.015033600007882,1086.2831406000041,1086.2831406000041,0.07481730000290554,0.1819058999972185,6.014979100000346,1092.3831463000097,1092.3831463000097,1092.3831463000097,0.07236609999381471,0.18178729999635834,1098.082983100001,1098.2829750000092,6.0150183999940054,6.115065199992387,1104.2829586000007,12.015028099995106,1104.3829578000004,1104.3829578000004,1104.4164312000066,1104.4164312000066,0.015169599995715544,0.11495649999415036,up,0.9227930999913951,1105.3996012999996,5.3499999921768904e-05,0.09777259999827947,1111.4164017000003,1111.4164017000003,0.0255273000075249,0.11438230000203475,1.0,2.1897958999907132,,,,,,,,1092.2829756000137,1092.2829756000137,,,,2760,Moral,2025-02-25_16h19.24.199,MoralCondition_v2,2022.2.5,29.970574888815037,
18,0,18,0,1,0,1,0,,,,,,,,,,,,,,,,,,,,,,,,,,,,,,,,,,,,,,,,,,,,,,,,,,,,,,1113.6495805000013,1113.6495805000013,0.007024600010481663,0.09732030000304803,7.0,1.5577533000032417,,,,,,,,,,,,,2760,Moral,2025-02-25_16h19.24.199,MoralCondition_v2,2022.2.5,29.970574888815037,
18,0,18,0,2,0,2,0,,,,,,,,,,,,,,,,,,,,,,,,,,,,,,,,,,,,,,,,,,,,,,,,,,,,,,1115.2664435000042,1115.2664435000042,0.0079457999963779,0.11445629999798257,1.0,2.4422484999959124,,,,,,,,,,,,,2760,Moral,2025-02-25_16h19.24.199,MoralCondition_v2,2022.2.5,29.970574888815037,
18,0,18,0,3,0,3,0,,,,,,,,,,,,,,,,,,,,,,,,,,,,,,,,,,,,,,,,,,,,,,,,,,,,,,1117.7327290000103,1117.7327290000103,0.006960800004890189,0.0983023000007961,5.0,1.8589024000102654,,,,,,,,,,,,,2760,Moral,2025-02-25_16h19.24.199,MoralCondition_v2,2022.2.5,29.970574888815037,
18,0,18,0,4,0,4,0,,,,,,,,,,,,,,,,,,,,,,,,,,,,,,,,,,,,,,,,,,,,,,,,,,,,,,1119.6330856000131,1119.6330856000131,0.007660300005227327,0.0976175000105286,1.0,1.5244322999933502,,,,,,,,,,,,,2760,Moral,2025-02-25_16h19.24.199,MoralCondition_v2,2022.2.5,29.970574888815037,
18,0,18,0,5,0,5,0,,,,,,,,,,,,,,,,,,,,,,,,,,,,,,,,,,,,,,,,,,,,,,,,,,,,,,1121.2164917000046,1121.2164917000046,0.008875100000295788,0.1143073999992339,1.0,2.072922200008179,,,,,,,,,,,,,2760,Moral,2025-02-25_16h19.24.199,MoralCondition_v2,2022.2.5,29.970574888815037,
18,0,18,0,6,0,6,0,,,,,,,,,,,,,,,,,,,,,,,,,,,,,,,,,,,,,,,,,,,,,,,,,,,,,,1123.3161887000024,1123.3161887000024,0.007142699992982671,0.0975066999963019,3.0,1.291461500004516,,,,,,,,,,,,,2760,Moral,2025-02-25_16h19.24.199,MoralCondition_v2,2022.2.5,29.970574888815037,
18,0,18,0,,,,,,,,,,,,,,,,,,,,,,,,,,,,,,,,,,,,,,,,,,,,,,,,,,,,,,,,,,,,,,,,1124.6496157000074,1124.6496157000074,0.0006951999966986477,0.09937100000388455,2.0,7.166735899998457,,,,,,,2760,Moral,2025-02-25_16h19.24.199,MoralCondition_v2,2022.2.5,29.970574888815037,
19,0,19,0,0,0,0,0,,,,,,,,,,,,,,,,,,,,,,1131.8496440000017,0.0002445999998599291,0.09811039999476634,1137.8661067000066,6.014680099993711,1138.0493616000022,1138.0493616000022,0.09212459999253042,0.19807799998670816,6.031303299998399,1144.1494497000094,1144.1494497000094,1144.1494497000094,0.0911385999788763,0.19806949998019263,1149.8494004000095,1150.0494239000109,6.03132279998681,6.13155769999139,1156.0494990000007,12.031413899981999,1156.1495888000063,1156.1495888000063,1156.1828091000061,1156.1828091000061,0.031624699986423366,0.13124379997316282,down,0.660037999987253,1156.8827130000136,4.8699992476031184e-05,0.09765199999674223,1162.8825948000012,1162.8825948000012,0.009050799999386072,0.09779580000031274,3.0,3.122920499998145,,,,,,,1162.8825948000012,1144.0495231000095,1144.0495231000095,,,,2760,Moral,2025-02-25_16h19.24.199,MoralCondition_v2,2022.2.5,29.970574888815037,
19,0,19,0,1,0,1,0,,,,,,,,,,,,,,,,,,,,,,,,,,,,,,,,,,,,,,,,,,,,,,,,,,,,,,1166.0494876000012,1166.0494876000012,0.006790100000216626,0.099226299993461,2.0,1.760242099990137,,,,,,,,,,,,,2760,Moral,2025-02-25_16h19.24.199,MoralCondition_v2,2022.2.5,29.970574888815037,
19,0,19,0,2,0,2,0,,,,,,,,,,,,,,,,,,,,,,,,,,,,,,,,,,,,,,,,,,,,,,,,,,,,,,1167.8491493000038,1167.8491493000038,0.006577800013474189,0.09907040001417045,1.0,2.6269175999914296,,,,,,,,,,,,,2760,Moral,2025-02-25_16h19.24.199,MoralCondition_v2,2022.2.5,29.970574888815037,
19,0,19,0,3,0,3,0,,,,,,,,,,,,,,,,,,,,,,,,,,,,,,,,,,,,,,,,,,,,,,,,,,,,,,1170.5159940000012,1170.5159940000012,0.005459199994220398,0.09937959999660961,1.0,1.0280995999928564,,,,,,,,,,,,,2760,Moral,2025-02-25_16h19.24.199,MoralCondition_v2,2022.2.5,29.970574888815037,
19,0,19,0,4,0,4,0,,,,,,,,,,,,,,,,,,,,,,,,,,,,,,,,,,,,,,,,,,,,,,,,,,,,,,1171.5830528000079,1171.5830528000079,0.006970400005229749,0.0982788000110304,6.0,1.9922952000051737,,,,,,,,,,,,,2760,Moral,2025-02-25_16h19.24.199,MoralCondition_v2,2022.2.5,29.970574888815037,
19,0,19,0,5,0,5,0,,,,,,,,,,,,,,,,,,,,,,,,,,,,,,,,,,,,,,,,,,,,,,,,,,,,,,1173.6159198000096,1173.6159198000096,0.008610000004409812,0.0991442999948049,2.0,4.024824599997373,,,,,,,,,,,,,2760,Moral,2025-02-25_16h19.24.199,MoralCondition_v2,2022.2.5,29.970574888815037,
19,0,19,0,6,0,6,0,,,,,,,,,,,,,,,,,,,,,,,,,,,,,,,,,,,,,,,,,,,,,,,,,,,,,,1177.6829940000025,1177.6829940000025,0.007108400008291937,0.09832350000215229,3.0,2.1588741000014124,,,,,,,,,,,,,2760,Moral,2025-02-25_16h19.24.199,MoralCondition_v2,2022.2.5,29.970574888815037,
19,0,19,0,,,,,,,,,,,,,,,,,,,,,,,,,,,,,,,,,,,,,,,,,,,,,,,,,,,,,,,,,,,,,,,,1179.8826643000066,1179.8826643000066,0.0006606000097235665,0.09901930000341963,1.0,2.666329899991979,,,,,,,2760,Moral,2025-02-25_16h19.24.199,MoralCondition_v2,2022.2.5,29.970574888815037,
