loop.thisRepN,loop.thisTrialN,loop.thisN,loop.thisIndex,evaluate_all_emotions.thisRepN,evaluate_all_emotions.thisTrialN,evaluate_all_emotions.thisN,evaluate_all_emotions.thisIndex,sync_beep_1.started,p_port.started,p_port.stopped,sync_beep_1.stopped,sync_beep_2.started,sync_beep_2.stopped,sync_beep_3.started,sync_beep_3.stopped,sync_beep_4.started,baseline.started,p_port_2.started,p_port_2.stopped,baseline.stopped,p_port_3.started,p_port_3.stopped,Game_Start_Text.started,p_port_4.started,p_port_4.stopped,key_resp.started,key_resp.keys,key_resp.rt,fixation_cross.started,p_port_5.started,p_port_5.stopped,fixation_cross.stopped,p_port_6.started,player_image_intro.started,player_name_intro.started,p_port_7.started,p_port_7.stopped,p_port_8.started,player_image_offer.started,player_name_offer.started,proposed_split.started,p_port_9.started,p_port_9.stopped,proposed_split.stopped,accept_reject.started,p_port_15.started,p_port_15.stopped,accept_reject.stopped,p_port_10.started,arrow_instructions.started,offer_choice.started,p_port_11.started,p_port_11.stopped,offer_choice.keys,offer_choice.rt,Instructions_Affinity_Score.started,p_port_12.started,p_port_12.stopped,Emotion_Image.started,AffinityScore.started,p_port_13.started,p_port_13.stopped,AffinityScore.response,AffinityScore.rt,Instruction.started,Moral_Disgust_Score.started,p_port_14.started,p_port_14.stopped,Moral_Disgust_Score.response,Moral_Disgust_Score.rt,player_image_offer.stopped,player_name_offer.stopped,Instructions_Affinity_Score.stopped,player_image_intro.stopped,player_name_intro.stopped,p_port_8.stopped,p_port_10.stopped,p_port_6.stopped,participant,session,date,expName,psychopyVersion,frameRate,
,,,,,,,,13.038047349499537,0.000897199846804142,0.11571889976039529,13.352852900046855,13.619744249666109,13.919601599685848,14.219853149773552,14.51958779990673,14.819494549697264,15.15286079980433,0.00128099974244833,0.0993286999873817,30.152927899733186,14.99947899999097,15.09912330005318,30.252937299665064,-0.00033930037170648575,0.099274099804461,30.719578499905765,space,4.166835500393063,,,,,,,,,,,,,,,,,,,,,,,,,,,,,,,,,,,,,,,,,,,,,,,,,,,2777,Moral,2025-02-13_13h17.40.857,MoralCondition_v2,2022.2.5,29.98311949386534,
0,0,0,0,0,0,0,0,,,,,,,,,,,,,,,,,,,,,,34.919580299872905,0.001415099948644638,0.09789450000971556,40.91956890001893,6.031268199905753,41.15328019997105,41.15328019997105,0.08888190006837249,0.23128469986841083,6.031264599878341,47.2698193998076,47.2698193998076,47.2698193998076,0.10855189990252256,0.24797770008444786,52.96957629965618,53.10288459993899,6.014649000018835,6.114558400120586,59.102897899691015,12.014624599833041,59.23621149966493,59.23621149966493,0.014845599886029959,0.11451399978250265,up,1.441587700508535,60.71954379975796,4.3400097638368607e-05,0.0978651000186801,66.75287129962817,66.75287129962817,0.025676799938082695,0.13126070005819201,2.0,3.539979999884963,,,,,,,,,,,,,,,2777,Moral,2025-02-13_13h17.40.857,MoralCondition_v2,2022.2.5,29.98311949386534,
0,0,0,0,1,0,1,0,,,,,,,,,,,,,,,,,,,,,,,,,,,,,,,,,,,,,,,,,,,,,,,,,,,,70.33642049971968,70.33642049971968,0.008433599956333637,0.11378900008276105,3.0,3.706310199573636,,,,,,,,,,,,,,,2777,Moral,2025-02-13_13h17.40.857,MoralCondition_v2,2022.2.5,29.98311949386534,
0,0,0,0,2,0,2,0,,,,,,,,,,,,,,,,,,,,,,,,,,,,,,,,,,,,,,,,,,,,,,,,,,,,74.08626749971882,74.08626749971882,0.01142500014975667,0.11464300006628036,1.0,4.437949499581009,,,,,,,,,,,,,,,2777,Moral,2025-02-13_13h17.40.857,MoralCondition_v2,2022.2.5,29.98311949386534,
0,0,0,0,3,0,3,0,,,,,,,,,,,,,,,,,,,,,,,,,,,,,,,,,,,,,,,,,,,,,,,,,,,,78.56950389966369,78.56950389966369,0.01095520006492734,0.11610820004716516,4.0,5.706057000439614,,,,,,,,,,,,,,,2777,Moral,2025-02-13_13h17.40.857,MoralCondition_v2,2022.2.5,29.98311949386534,
0,0,0,0,4,0,4,0,,,,,,,,,,,,,,,,,,,,,,,,,,,,,,,,,,,,,,,,,,,,,,,,,,,,84.3195666000247,84.3195666000247,0.010730199981480837,0.11421329993754625,1.0,6.87102479999885,,,,,,,,,,,,,,,2777,Moral,2025-02-13_13h17.40.857,MoralCondition_v2,2022.2.5,29.98311949386534,
0,0,0,0,5,0,5,0,,,,,,,,,,,,,,,,,,,,,,,,,,,,,,,,,,,,,,,,,,,,,,,,,,,,91.21948589989915,91.21948589989915,0.011153500061482191,0.09821859980002046,5.0,8.487923599779606,,,,,,,,,,,,,,,2777,Moral,2025-02-13_13h17.40.857,MoralCondition_v2,2022.2.5,29.98311949386534,
0,0,0,0,6,0,6,0,,,,,,,,,,,,,,,,,,,,,,,,,,,,,,,,,,,,,,,,,,,,,,,,,,,,99.76952029997483,99.76952029997483,0.010599699802696705,0.11462099989876151,2.0,3.4052783004008234,,,,,,,,,,,,,,,2777,Moral,2025-02-13_13h17.40.857,MoralCondition_v2,2022.2.5,29.98311949386534,
0,0,0,0,,,,,,,,,,,,,,,,,,,,,,,,,,,,,,,,,,,,,,,,,,,,,,,,,,,,,,,,,,,,,,103.20295139960945,103.20295139960945,0.0007012002170085907,0.0990670002065599,6.0,11.766889200080186,,,,,,,,,2777,Moral,2025-02-13_13h17.40.857,MoralCondition_v2,2022.2.5,29.98311949386534,
1,0,1,0,0,0,0,0,,,,,,,,,,,,,,,,,,,,,,115.00281239999458,0.0002748998813331127,0.09811049979180098,121.00275159999728,6.031422399915755,121.28618329996243,121.28618329996243,0.163856599945575,0.28160749981179833,6.014481700025499,127.30256839981303,127.30256839981303,127.30256839981303,0.0999569995328784,0.1981776999309659,133.0027463999577,133.20280569978058,6.031440699938685,6.1315490999259055,139.2027075998485,12.031379699707031,139.33619149960577,139.33619149960577,0.03161369962617755,0.13166219973936677,up,2.0613449001684785,141.4156468999572,2.0300038158893585e-05,0.10290449997410178,147.43600709969178,147.43600709969178,0.036244699731469154,0.13624649960547686,4.0,5.038402299862355,,,,,,,139.3027249998413,139.3027249998413,147.43600709969178,,,,,,2777,Moral,2025-02-13_13h17.40.857,MoralCondition_v2,2022.2.5,29.98311949386534,
1,0,1,0,1,0,1,0,,,,,,,,,,,,,,,,,,,,,,,,,,,,,,,,,,,,,,,,,,,,,,,,,,,,152.50264379987493,152.50264379987493,0.007304599974304438,0.09928029961884022,5.0,5.42623330000788,,,,,,,,,,,,,,,2777,Moral,2025-02-13_13h17.40.857,MoralCondition_v2,2022.2.5,29.98311949386534,
1,0,1,0,2,0,2,0,,,,,,,,,,,,,,,,,,,,,,,,,,,,,,,,,,,,,,,,,,,,,,,,,,,,157.96979819983244,157.96979819983244,0.0073401001282036304,0.09828389994800091,5.0,5.058578799944371,,,,,,,,,,,,,,,2777,Moral,2025-02-13_13h17.40.857,MoralCondition_v2,2022.2.5,29.98311949386534,
1,0,1,0,3,0,3,0,,,,,,,,,,,,,,,,,,,,,,,,,,,,,,,,,,,,,,,,,,,,,,,,,,,,163.06930390000343,163.06930390000343,0.0074616000056266785,0.0984013001434505,1.0,3.65887810010463,,,,,,,,,,,,,,,2777,Moral,2025-02-13_13h17.40.857,MoralCondition_v2,2022.2.5,29.98311949386534,
1,0,1,0,4,0,4,0,,,,,,,,,,,,,,,,,,,,,,,,,,,,,,,,,,,,,,,,,,,,,,,,,,,,166.7692595999688,166.7692595999688,0.0076199001632630825,0.09848539996892214,6.0,3.3914593998342752,,,,,,,,,,,,,,,2777,Moral,2025-02-13_13h17.40.857,MoralCondition_v2,2022.2.5,29.98311949386534,
1,0,1,0,5,0,5,0,,,,,,,,,,,,,,,,,,,,,,,,,,,,,,,,,,,,,,,,,,,,,,,,,,,,170.20263229962438,170.20263229962438,0.006804300006479025,0.09908229997381568,7.0,4.160350400023162,,,,,,,,,,,,,,,2777,Moral,2025-02-13_13h17.40.857,MoralCondition_v2,2022.2.5,29.98311949386534,
1,0,1,0,6,0,6,0,,,,,,,,,,,,,,,,,,,,,,,,,,,,,,,,,,,,,,,,,,,,,,,,,,,,174.40261229965836,174.40261229965836,0.006400600075721741,0.09905839990824461,6.0,4.493847200181335,,,,,,,,,,,,,,,2777,Moral,2025-02-13_13h17.40.857,MoralCondition_v2,2022.2.5,29.98311949386534,
1,0,1,0,,,,,,,,,,,,,,,,,,,,,,,,,,,,,,,,,,,,,,,,,,,,,,,,,,,,,,,,,,,,,,178.93595519987866,178.93595519987866,0.0006852997466921806,0.0991648999042809,6.0,6.066239699721336,,,,,,,,,2777,Moral,2025-02-13_13h17.40.857,MoralCondition_v2,2022.2.5,29.98311949386534,
2,0,2,0,0,0,0,0,,,,,,,,,,,,,,,,,,,,,,185.03628979995847,0.00044419988989830017,0.09750139992684126,191.03596600005403,6.030913900118321,191.25238239997998,191.25238239997998,0.10917990002781153,0.21402759989723563,6.014166099950671,197.31931719975546,197.31931719975546,197.31931719975546,0.07405269984155893,0.18075979966670275,203.01924369996414,203.2194025996141,6.014350999612361,6.114383899606764,209.21942609967664,12.014409999828786,209.35272089997306,209.35272089997306,0.01472009951248765,0.11432629963383079,up,1.8853696007281542,211.28601849963889,3.7999823689460754e-05,0.09798040008172393,217.31925749965012,217.31925749965012,0.026219800114631653,0.1312027000822127,3.0,3.372767799999565,,,,,,,209.31948439963162,209.31948439963162,,,,,,,2777,Moral,2025-02-13_13h17.40.857,MoralCondition_v2,2022.2.5,29.98311949386534,
2,0,2,0,1,0,1,0,,,,,,,,,,,,,,,,,,,,,,,,,,,,,,,,,,,,,,,,,,,,,,,,,,,,220.71919839968905,220.71919839968905,0.006822400260716677,0.09905820013955235,6.0,6.493283300194889,,,,,,,,,,,,,,,2777,Moral,2025-02-13_13h17.40.857,MoralCondition_v2,2022.2.5,29.98311949386534,
2,0,2,0,2,0,2,0,,,,,,,,,,,,,,,,,,,,,,,,,,,,,,,,,,,,,,,,,,,,,,,,,,,,227.25259769987315,227.25259769987315,0.0076095000840723515,0.09777989983558655,2.0,5.2578863999806345,,,,,,,,,,,,,,,2777,Moral,2025-02-13_13h17.40.857,MoralCondition_v2,2022.2.5,29.98311949386534,
2,0,2,0,3,0,3,0,,,,,,,,,,,,,,,,,,,,,,,,,,,,,,,,,,,,,,,,,,,,,,,,,,,,232.55255669960752,232.55255669960752,0.007794299628585577,0.09857609961181879,4.0,3.0578410997986794,,,,,,,,,,,,,,,2777,Moral,2025-02-13_13h17.40.857,MoralCondition_v2,2022.2.5,29.98311949386534,
2,0,2,0,4,0,4,0,,,,,,,,,,,,,,,,,,,,,,,,,,,,,,,,,,,,,,,,,,,,,,,,,,,,235.65250109974295,235.65250109974295,0.006671200040727854,0.09916740003973246,1.0,2.1932832999154925,,,,,,,,,,,,,,,2777,Moral,2025-02-13_13h17.40.857,MoralCondition_v2,2022.2.5,29.98311949386534,
2,0,2,0,5,0,5,0,,,,,,,,,,,,,,,,,,,,,,,,,,,,,,,,,,,,,,,,,,,,,,,,,,,,237.88589419983327,237.88589419983327,0.006695599760860205,0.09913769969716668,3.0,4.960006600245833,,,,,,,,,,,,,,,2777,Moral,2025-02-13_13h17.40.857,MoralCondition_v2,2022.2.5,29.98311949386534,
2,0,2,0,6,0,6,0,,,,,,,,,,,,,,,,,,,,,,,,,,,,,,,,,,,,,,,,,,,,,,,,,,,,242.88564379978925,242.88564379978925,0.007092500105500221,0.0984676000662148,3.0,6.558996099978685,,,,,,,,,,,,,,,2777,Moral,2025-02-13_13h17.40.857,MoralCondition_v2,2022.2.5,29.98311949386534,
2,0,2,0,,,,,,,,,,,,,,,,,,,,,,,,,,,,,,,,,,,,,,,,,,,,,,,,,,,,,,,,,,,,,,249.48566759983078,249.48566759983078,0.0018551000393927097,0.09721489995718002,6.0,12.130420399829745,,,,,,,,,2777,Moral,2025-02-13_13h17.40.857,MoralCondition_v2,2022.2.5,29.98311949386534,
3,0,3,0,0,0,0,0,,,,,,,,,,,,,,,,,,,,,,261.6526792999357,0.00025569973513484,0.09817999973893166,267.65267009986565,6.031666999682784,267.8524567000568,267.8524567000568,0.0957638998515904,0.19833949953317642,6.031607499811798,273.9526557000354,273.9526557000354,273.9526557000354,0.09202169952914119,0.19882579986006021,279.65240929974243,279.8524175998755,6.031425999477506,6.131490699481219,285.8523764000274,12.031387299764901,285.9857445000671,285.9857445000671,0.03157049976289272,0.13135349936783314,up,1.7162223006598651,287.7524051996879,3.829970955848694e-05,0.09791649971157312,293.7857172996737,293.7857172996737,0.02899019978940487,0.13141499971970916,4.0,3.470025399699807,,,,,,,285.95239879982546,285.95239879982546,,273.85257489979267,273.85257489979267,,,,2777,Moral,2025-02-13_13h17.40.857,MoralCondition_v2,2022.2.5,29.98311949386534,
3,0,3,0,1,0,1,0,,,,,,,,,,,,,,,,,,,,,,,,,,,,,,,,,,,,,,,,,,,,,,,,,,,,297.2858455996029,297.2858455996029,0.006482200231403112,0.09883080003783107,6.0,2.527232399675995,,,,,,,,,,,,,,,2777,Moral,2025-02-13_13h17.40.857,MoralCondition_v2,2022.2.5,29.98311949386534,
3,0,3,0,2,0,2,0,,,,,,,,,,,,,,,,,,,,,,,,,,,,,,,,,,,,,,,,,,,,,,,,,,,,299.85230889962986,299.85230889962986,0.00686760013923049,0.09726110007613897,3.0,4.624590000137687,,,,,,,,,,,,,,,2777,Moral,2025-02-13_13h17.40.857,MoralCondition_v2,2022.2.5,29.98311949386534,
3,0,3,0,3,0,3,0,,,,,,,,,,,,,,,,,,,,,,,,,,,,,,,,,,,,,,,,,,,,,,,,,,,,304.51885710004717,304.51885710004717,0.0068177999928593636,0.09949219971895218,1.0,1.8934923000633717,,,,,,,,,,,,,,,2777,Moral,2025-02-13_13h17.40.857,MoralCondition_v2,2022.2.5,29.98311949386534,
3,0,3,0,4,0,4,0,,,,,,,,,,,,,,,,,,,,,,,,,,,,,,,,,,,,,,,,,,,,,,,,,,,,306.4523056000471,306.4523056000471,0.007502499967813492,0.09790530009195209,2.0,2.924711700063199,,,,,,,,,,,,,,,2777,Moral,2025-02-13_13h17.40.857,MoralCondition_v2,2022.2.5,29.98311949386534,
3,0,3,0,5,0,5,0,,,,,,,,,,,,,,,,,,,,,,,,,,,,,,,,,,,,,,,,,,,,,,,,,,,,309.41931109968573,309.41931109968573,0.007768200244754553,0.0973495002835989,3.0,2.924466600175947,,,,,,,,,,,,,,,2777,Moral,2025-02-13_13h17.40.857,MoralCondition_v2,2022.2.5,29.98311949386534,
3,0,3,0,6,0,6,0,,,,,,,,,,,,,,,,,,,,,,,,,,,,,,,,,,,,,,,,,,,,,,,,,,,,312.38566230004653,312.38566230004653,0.007274100091308355,0.09797310037538409,3.0,1.8917938000522554,,,,,,,,,,,,,,,2777,Moral,2025-02-13_13h17.40.857,MoralCondition_v2,2022.2.5,29.98311949386534,
3,0,3,0,,,,,,,,,,,,,,,,,,,,,,,,,,,,,,,,,,,,,,,,,,,,,,,,,,,,,,,,,,,,,,314.31915090000257,314.31915090000257,0.0006784000433981419,0.09939840016886592,6.0,8.26659379992634,,,,,,,,,2777,Moral,2025-02-13_13h17.40.857,MoralCondition_v2,2022.2.5,29.98311949386534,
4,0,4,0,0,0,0,0,,,,,,,,,,,,,,,,,,,,,,322.61919269990176,0.00015240022912621498,0.09929129993543029,328.63565710000694,6.015752000268549,328.8190534999594,328.8190534999594,0.08123320015147328,0.19915860006585717,5.999069599900395,334.8859474998899,334.8859474998899,334.8859474998899,0.056546099949628115,0.16593590006232262,340.5855498998426,340.78559159999713,5.999133499804884,6.099019799847156,346.7855414999649,11.999086000025272,346.91887769987807,346.91887769987807,-0.0006174999289214611,0.09901960007846355,up,1.7270431006327271,348.6855514999479,4.189973697066307e-05,0.09774280013516545,354.7188455997966,354.7188455997966,0.02555010002106428,0.13103060005232692,1.0,3.9063152000308037,,,,,,,346.86868509976193,346.86868509976193,,334.8859474998899,334.8859474998899,6.099069400224835,12.09883760008961,,2777,Moral,2025-02-13_13h17.40.857,MoralCondition_v2,2022.2.5,29.98311949386534,
4,0,4,0,1,0,1,0,,,,,,,,,,,,,,,,,,,,,,,,,,,,,,,,,,,,,,,,,,,,,,,,,,,,358.65227129962295,358.65227129962295,0.008037500083446503,0.09707859996706247,6.0,3.6236550002358854,,,,,,,,,,,,,,,2777,Moral,2025-02-13_13h17.40.857,MoralCondition_v2,2022.2.5,29.98311949386534,
4,0,4,0,2,0,2,0,,,,,,,,,,,,,,,,,,,,,,,,,,,,,,,,,,,,,,,,,,,,,,,,,,,,362.3188409996219,362.3188409996219,0.0066581000573933125,0.09897080017253757,7.0,2.4266959000378847,,,,,,,,,,,,,,,2777,Moral,2025-02-13_13h17.40.857,MoralCondition_v2,2022.2.5,29.98311949386534,
4,0,4,0,3,0,3,0,,,,,,,,,,,,,,,,,,,,,,,,,,,,,,,,,,,,,,,,,,,,,,,,,,,,364.78554849978536,364.78554849978536,0.006736900191754103,0.09941000025719404,5.0,4.593640000093728,,,,,,,,,,,,,,,2777,Moral,2025-02-13_13h17.40.857,MoralCondition_v2,2022.2.5,29.98311949386534,
4,0,4,0,4,0,4,0,,,,,,,,,,,,,,,,,,,,,,,,,,,,,,,,,,,,,,,,,,,,,,,,,,,,369.4356355997734,369.4356355997734,0.009376799687743187,0.1142930998466909,5.0,2.2392625003121793,,,,,,,,,,,,,,,2777,Moral,2025-02-13_13h17.40.857,MoralCondition_v2,2022.2.5,29.98311949386534,
4,0,4,0,5,0,5,0,,,,,,,,,,,,,,,,,,,,,,,,,,,,,,,,,,,,,,,,,,,,,,,,,,,,371.70208449987695,371.70208449987695,0.006689299829304218,0.09906629985198379,4.0,1.860027499962598,,,,,,,,,,,,,,,2777,Moral,2025-02-13_13h17.40.857,MoralCondition_v2,2022.2.5,29.98311949386534,
4,0,4,0,6,0,6,0,,,,,,,,,,,,,,,,,,,,,,,,,,,,,,,,,,,,,,,,,,,,,,,,,,,,373.6021060999483,373.6021060999483,0.007976899854838848,0.09739860007539392,5.0,3.590486000292003,,,,,,,,,,,,,,,2777,Moral,2025-02-13_13h17.40.857,MoralCondition_v2,2022.2.5,29.98311949386534,
4,0,4,0,,,,,,,,,,,,,,,,,,,,,,,,,,,,,,,,,,,,,,,,,,,,,,,,,,,,,,,,,,,,,,377.235547399614,377.235547399614,0.0007133996114134789,0.09957579988986254,2.0,8.599933099932969,,,,,,,,,2777,Moral,2025-02-13_13h17.40.857,MoralCondition_v2,2022.2.5,29.98311949386534,
5,0,5,0,0,0,0,0,,,,,,,,,,,,,,,,,,,,,,385.86899139964953,0.00013669999316334724,0.09910620003938675,391.85182169964537,5.999024100136012,392.0185446999967,392.0185446999967,0.04334930004552007,0.1491902000270784,6.015967899933457,398.1519539998844,398.1519539998844,398.1519539998844,0.07114350004121661,0.18241010000929236,403.851920499932,404.05220869975165,6.015995900146663,6.115737400017679,410.05194679973647,12.015750700142235,410.1852742996998,410.1852742996998,0.01592679973691702,0.11565679963678122,up,1.3722266000695527,411.60197660000995,2.6499852538108826e-05,0.09866919973865151,417.60182749992236,417.60182749992236,0.009850599803030491,0.09848569985479116,4.0,2.1235019001178443,,,,,,,410.15196199994534,410.15196199994534,417.60182749992236,398.0186759000644,398.0186759000644,,,6.082439499907196,2777,Moral,2025-02-13_13h17.40.857,MoralCondition_v2,2022.2.5,29.98311949386534,
5,0,5,0,1,0,1,0,,,,,,,,,,,,,,,,,,,,,,,,,,,,,,,,,,,,,,,,,,,,,,,,,,,,419.7684484999627,419.7684484999627,0.007419799920171499,0.0978795001283288,7.0,3.3247905001044273,,,,,,,,,,,,,,,2777,Moral,2025-02-13_13h17.40.857,MoralCondition_v2,2022.2.5,29.98311949386534,
5,0,5,0,2,0,2,0,,,,,,,,,,,,,,,,,,,,,,,,,,,,,,,,,,,,,,,,,,,,,,,,,,,,423.1351858996786,423.1351858996786,0.007405899930745363,0.09804089972749352,4.0,3.5916891996748745,,,,,,,,,,,,,,,2777,Moral,2025-02-13_13h17.40.857,MoralCondition_v2,2022.2.5,29.98311949386534,
5,0,5,0,3,0,3,0,,,,,,,,,,,,,,,,,,,,,,,,,,,,,,,,,,,,,,,,,,,,,,,,,,,,426.76858379971236,426.76858379971236,0.008542099967598915,0.09918239992111921,1.0,2.591562900226563,,,,,,,,,,,,,,,2777,Moral,2025-02-13_13h17.40.857,MoralCondition_v2,2022.2.5,29.98311949386534,
5,0,5,0,4,0,4,0,,,,,,,,,,,,,,,,,,,,,,,,,,,,,,,,,,,,,,,,,,,,,,,,,,,,429.4018653999083,429.4018653999083,0.0067623998038470745,0.09917770000174642,5.0,2.5936161000281572,,,,,,,,,,,,,,,2777,Moral,2025-02-13_13h17.40.857,MoralCondition_v2,2022.2.5,29.98311949386534,
5,0,5,0,5,0,5,0,,,,,,,,,,,,,,,,,,,,,,,,,,,,,,,,,,,,,,,,,,,,,,,,,,,,432.0351661997847,432.0351661997847,0.007303100079298019,0.09801789978519082,7.0,1.9918093997985125,,,,,,,,,,,,,,,2777,Moral,2025-02-13_13h17.40.857,MoralCondition_v2,2022.2.5,29.98311949386534,
5,0,5,0,6,0,6,0,,,,,,,,,,,,,,,,,,,,,,,,,,,,,,,,,,,,,,,,,,,,,,,,,,,,434.0686371996999,434.0686371996999,0.0077713001519441605,0.09769520023837686,6.0,4.757655499968678,,,,,,,,,,,,,,,2777,Moral,2025-02-13_13h17.40.857,MoralCondition_v2,2022.2.5,29.98311949386534,
5,0,5,0,,,,,,,,,,,,,,,,,,,,,,,,,,,,,,,,,,,,,,,,,,,,,,,,,,,,,,,,,,,,,,438.8690396999009,438.8690396999009,0.0014239000156521797,0.09783910028636456,2.0,8.397227599751204,,,,,,,,,2777,Moral,2025-02-13_13h17.40.857,MoralCondition_v2,2022.2.5,29.98311949386534,
6,0,6,0,0,0,0,0,,,,,,,,,,,,,,,,,,,,,,447.30210469989106,0.00013509998098015785,0.09929380007088184,453.3184739998542,6.015781300142407,453.5516256997362,453.5516256997362,0.14643449988216162,0.2491525001823902,6.01573419990018,459.5851358999498,459.5851358999498,459.5851358999498,0.07956179976463318,0.1825886000879109,465.28517049970105,465.48506869981065,6.015738899819553,6.115828599780798,471.4850685996935,12.015741500072181,471.6182573996484,471.6182573996484,0.016014799941331148,0.11565259983763099,up,1.7955443002283573,473.4518721997738,4.239985719323158e-05,0.09739529993385077,479.485026799608,479.485026799608,0.026163799688220024,0.13077359972521663,5.0,4.105579499620944,,,,,,,471.58514759968966,471.58514759968966,,,,,,,2777,Moral,2025-02-13_13h17.40.857,MoralCondition_v2,2022.2.5,29.98311949386534,
6,0,6,0,1,0,1,0,,,,,,,,,,,,,,,,,,,,,,,,,,,,,,,,,,,,,,,,,,,,,,,,,,,,483.61815779982135,483.61815779982135,0.007119399961084127,0.09939520014449954,7.0,2.659882899839431,,,,,,,,,,,,,,,2777,Moral,2025-02-13_13h17.40.857,MoralCondition_v2,2022.2.5,29.98311949386534,
6,0,6,0,2,0,2,0,,,,,,,,,,,,,,,,,,,,,,,,,,,,,,,,,,,,,,,,,,,,,,,,,,,,486.31826809979975,486.31826809979975,0.007800200022757053,0.09909970033913851,1.0,1.925658299587667,,,,,,,,,,,,,,,2777,Moral,2025-02-13_13h17.40.857,MoralCondition_v2,2022.2.5,29.98311949386534,
6,0,6,0,3,0,3,0,,,,,,,,,,,,,,,,,,,,,,,,,,,,,,,,,,,,,,,,,,,,,,,,,,,,488.2850031000562,488.2850031000562,0.006809999700635672,0.09944949997588992,5.0,5.6935630002990365,,,,,,,,,,,,,,,2777,Moral,2025-02-13_13h17.40.857,MoralCondition_v2,2022.2.5,29.98311949386534,
6,0,6,0,4,0,4,0,,,,,,,,,,,,,,,,,,,,,,,,,,,,,,,,,,,,,,,,,,,,,,,,,,,,494.01834809966385,494.01834809966385,0.006742000114172697,0.09915480017662048,6.0,1.226873700041324,,,,,,,,,,,,,,,2777,Moral,2025-02-13_13h17.40.857,MoralCondition_v2,2022.2.5,29.98311949386534,
6,0,6,0,5,0,5,0,,,,,,,,,,,,,,,,,,,,,,,,,,,,,,,,,,,,,,,,,,,,,,,,,,,,495.2848926000297,495.2848926000297,0.007890100125223398,0.09925410011783242,4.0,3.692245699930936,,,,,,,,,,,,,,,2777,Moral,2025-02-13_13h17.40.857,MoralCondition_v2,2022.2.5,29.98311949386534,
6,0,6,0,6,0,6,0,,,,,,,,,,,,,,,,,,,,,,,,,,,,,,,,,,,,,,,,,,,,,,,,,,,,499.0181354000233,499.0181354000233,0.00729720015078783,0.0980799999088049,4.0,1.8584002000279725,,,,,,,,,,,,,,,2777,Moral,2025-02-13_13h17.40.857,MoralCondition_v2,2022.2.5,29.98311949386534,
6,0,6,0,,,,,,,,,,,,,,,,,,,,,,,,,,,,,,,,,,,,,,,,,,,,,,,,,,,,,,,,,,,,,,500.91825569979846,500.91825569979846,0.0014165998436510563,0.09808090003207326,2.0,4.864432899747044,,,,,,,,,2777,Moral,2025-02-13_13h17.40.857,MoralCondition_v2,2022.2.5,29.98311949386534,
7,0,7,0,0,0,0,0,,,,,,,,,,,,,,,,,,,,,,505.81861039996147,0.00014030002057552338,0.09947409993037581,511.8182520000264,5.999483100138605,512.0018442999572,512.0018442999572,0.07033720007166266,0.18274950003251433,6.016015199944377,518.1016953997314,518.1016953997314,518.1016953997314,0.07224870007485151,0.18296469980850816,523.8017341997474,524.001526999753,6.016092299949378,6.11599380010739,530.0015382999554,12.01603819988668,530.1348243998364,530.1348243998364,0.016246499959379435,0.11594439996406436,up,1.7110136006958783,531.9021035996266,4.950026050209999e-05,0.09798210021108389,537.9013641998172,537.9013641998172,0.009628599975258112,0.09808490006253123,1.0,3.3894715001806617,,,,,,,530.1015490000136,530.1015490000136,537.9013641998172,518.0015598000027,518.0015598000027,,,6.099499400239438,2777,Moral,2025-02-13_13h17.40.857,MoralCondition_v2,2022.2.5,29.98311949386534,
7,0,7,0,1,0,1,0,,,,,,,,,,,,,,,,,,,,,,,,,,,,,,,,,,,,,,,,,,,,,,,,,,,,541.33485189965,541.33485189965,0.006686999928206205,0.09922019997611642,7.0,10.360215699765831,,,,,,,,,,,,,,,2777,Moral,2025-02-13_13h17.40.857,MoralCondition_v2,2022.2.5,29.98311949386534,
7,0,7,0,2,0,2,0,,,,,,,,,,,,,,,,,,,,,,,,,,,,,,,,,,,,,,,,,,,,,,,,,,,,551.7347284997813,551.7347284997813,0.007388800382614136,0.09841320011764765,6.0,2.8250776999630034,,,,,,,,,,,,,,,2777,Moral,2025-02-13_13h17.40.857,MoralCondition_v2,2022.2.5,29.98311949386534,
7,0,7,0,3,0,3,0,,,,,,,,,,,,,,,,,,,,,,,,,,,,,,,,,,,,,,,,,,,,,,,,,,,,554.601323899813,554.601323899813,0.006711900234222412,0.09904990019276738,4.0,1.8931956002488732,,,,,,,,,,,,,,,2777,Moral,2025-02-13_13h17.40.857,MoralCondition_v2,2022.2.5,29.98311949386534,
7,0,7,0,4,0,4,0,,,,,,,,,,,,,,,,,,,,,,,,,,,,,,,,,,,,,,,,,,,,,,,,,,,,556.5516178999096,556.5516178999096,0.00771640008315444,0.11453080037608743,5.0,5.607431400101632,,,,,,,,,,,,,,,2777,Moral,2025-02-13_13h17.40.857,MoralCondition_v2,2022.2.5,29.98311949386534,
7,0,7,0,5,0,5,0,,,,,,,,,,,,,,,,,,,,,,,,,,,,,,,,,,,,,,,,,,,,,,,,,,,,562.2016388997436,562.2016388997436,0.008148299995809793,0.11458330042660236,5.0,2.6404468999244273,,,,,,,,,,,,,,,2777,Moral,2025-02-13_13h17.40.857,MoralCondition_v2,2022.2.5,29.98311949386534,
7,0,7,0,6,0,6,0,,,,,,,,,,,,,,,,,,,,,,,,,,,,,,,,,,,,,,,,,,,,,,,,,,,,564.8684299997985,564.8684299997985,0.005518900230526924,0.09731069998815656,4.0,1.5929335998371243,,,,,,,,,,,,,,,2777,Moral,2025-02-13_13h17.40.857,MoralCondition_v2,2022.2.5,29.98311949386534,
7,0,7,0,,,,,,,,,,,,,,,,,,,,,,,,,,,,,,,,,,,,,,,,,,,,,,,,,,,,,,,,,,,,,,566.5015887999907,566.5015887999907,0.0007132003083825111,0.09913270035758615,2.0,5.766158299986273,,,,,,,,,2777,Moral,2025-02-13_13h17.40.857,MoralCondition_v2,2022.2.5,29.98311949386534,
8,0,8,0,0,0,0,0,,,,,,,,,,,,,,,,,,,,,,572.3012876999564,0.00041820015758275986,0.09703770000487566,578.3179496000521,6.0136040998622775,578.5180116998963,578.5180116998963,0.09816960012540221,0.21372220013290644,6.013625899795443,584.5847938000225,584.5847938000225,584.5847938000225,0.06874509993940592,0.1803676998242736,590.2845772998407,590.4845509999432,6.013624100014567,6.113499399740249,596.484581799712,12.013730600010604,596.6178590999916,596.6178590999916,0.013736999593675137,0.11358339991420507,up,1.3717338000424206,598.0512095000595,5.519995465874672e-05,0.09799929987639189,604.0680660996586,604.0680660996586,0.009121499955654144,0.1148254000581801,3.0,7.673516999930143,,,,,,,596.5845106998459,596.5845106998459,604.0680660996586,,,,,,2777,Moral,2025-02-13_13h17.40.857,MoralCondition_v2,2022.2.5,29.98311949386534,
8,0,8,0,1,0,1,0,,,,,,,,,,,,,,,,,,,,,,,,,,,,,,,,,,,,,,,,,,,,,,,,,,,,611.7846617000178,611.7846617000178,0.008455200120806694,0.11439750017598271,1.0,3.4072449998930097,,,,,,,,,,,,,,,2777,Moral,2025-02-13_13h17.40.857,MoralCondition_v2,2022.2.5,29.98311949386534,
8,0,8,0,2,0,2,0,,,,,,,,,,,,,,,,,,,,,,,,,,,,,,,,,,,,,,,,,,,,,,,,,,,,615.2179264998995,615.2179264998995,0.006589099764823914,0.09896449977532029,4.0,2.360312200151384,,,,,,,,,,,,,,,2777,Moral,2025-02-13_13h17.40.857,MoralCondition_v2,2022.2.5,29.98311949386534,
8,0,8,0,3,0,3,0,,,,,,,,,,,,,,,,,,,,,,,,,,,,,,,,,,,,,,,,,,,,,,,,,,,,617.6176662999205,617.6176662999205,0.006789000239223242,0.09834730019792914,3.0,2.3593254000879824,,,,,,,,,,,,,,,2777,Moral,2025-02-13_13h17.40.857,MoralCondition_v2,2022.2.5,29.98311949386534,
8,0,8,0,4,0,4,0,,,,,,,,,,,,,,,,,,,,,,,,,,,,,,,,,,,,,,,,,,,,,,,,,,,,620.0178229999729,620.0178229999729,0.006624099798500538,0.0990365999750793,3.0,2.359994400292635,,,,,,,,,,,,,,,2777,Moral,2025-02-13_13h17.40.857,MoralCondition_v2,2022.2.5,29.98311949386534,
8,0,8,0,5,0,5,0,,,,,,,,,,,,,,,,,,,,,,,,,,,,,,,,,,,,,,,,,,,,,,,,,,,,622.4344759997912,622.4344759997912,0.010486099869012833,0.11433789972215891,1.0,1.938156499993056,,,,,,,,,,,,,,,2777,Moral,2025-02-13_13h17.40.857,MoralCondition_v2,2022.2.5,29.98311949386534,
8,0,8,0,6,0,6,0,,,,,,,,,,,,,,,,,,,,,,,,,,,,,,,,,,,,,,,,,,,,,,,,,,,,624.4009821000509,624.4009821000509,0.006670000031590462,0.09942869981750846,6.0,2.960629400331527,,,,,,,,,,,,,,,2777,Moral,2025-02-13_13h17.40.857,MoralCondition_v2,2022.2.5,29.98311949386534,
8,0,8,0,,,,,,,,,,,,,,,,,,,,,,,,,,,,,,,,,,,,,,,,,,,,,,,,,,,,,,,,,,,,,,627.4010103996843,627.4010103996843,0.0007034000009298325,0.09915729984641075,6.0,3.1330829998478293,,,,,,,,,2777,Moral,2025-02-13_13h17.40.857,MoralCondition_v2,2022.2.5,29.98311949386534,
9,0,9,0,0,0,0,0,,,,,,,,,,,,,,,,,,,,,,630.5679275998846,0.00028719985857605934,0.09758770000189543,636.5676920996048,6.03089249972254,636.7844181000255,636.7844181000255,0.10516989976167679,0.21422709990292788,6.014161299914122,642.8509974996559,642.8509974996559,642.8509974996559,0.07116319984197617,0.18112819967791438,648.5509990998544,648.7509983000346,6.014207399915904,6.114303899928927,654.7509396998212,12.014212099835277,654.8843161999248,654.8843161999248,0.01431989949196577,0.1141526997089386,up,1.2018841002136469,656.1509610000066,3.820005804300308e-05,0.09808250004425645,662.1842420999892,662.1842420999892,0.026461699977517128,0.13122739968821406,6.0,5.806084899697453,,,,,,,654.8509672996588,654.8509672996588,,,,,,,2777,Moral,2025-02-13_13h17.40.857,MoralCondition_v2,2022.2.5,29.98311949386534,
9,0,9,0,1,0,1,0,,,,,,,,,,,,,,,,,,,,,,,,,,,,,,,,,,,,,,,,,,,,,,,,,,,,668.0176033996977,668.0176033996977,0.006669799797236919,0.09903379995375872,5.0,2.160068899858743,,,,,,,,,,,,,,,2777,Moral,2025-02-13_13h17.40.857,MoralCondition_v2,2022.2.5,29.98311949386534,
9,0,9,0,2,0,2,0,,,,,,,,,,,,,,,,,,,,,,,,,,,,,,,,,,,,,,,,,,,,,,,,,,,,670.2174936998636,670.2174936998636,0.006879100110381842,0.09933890029788017,1.0,4.7600624999031425,,,,,,,,,,,,,,,2777,Moral,2025-02-13_13h17.40.857,MoralCondition_v2,2022.2.5,29.98311949386534,
9,0,9,0,3,0,3,0,,,,,,,,,,,,,,,,,,,,,,,,,,,,,,,,,,,,,,,,,,,,,,,,,,,,675.0173569996841,675.0173569996841,0.0068708001635968685,0.09944579983130097,4.0,5.193589699920267,,,,,,,,,,,,,,,2777,Moral,2025-02-13_13h17.40.857,MoralCondition_v2,2022.2.5,29.98311949386534,
9,0,9,0,4,0,4,0,,,,,,,,,,,,,,,,,,,,,,,,,,,,,,,,,,,,,,,,,,,,,,,,,,,,680.2676393999718,680.2676393999718,0.00885480036959052,0.11393280001357198,5.0,2.1725725000724196,,,,,,,,,,,,,,,2777,Moral,2025-02-13_13h17.40.857,MoralCondition_v2,2022.2.5,29.98311949386534,
9,0,9,0,5,0,5,0,,,,,,,,,,,,,,,,,,,,,,,,,,,,,,,,,,,,,,,,,,,,,,,,,,,,682.4673979999498,682.4673979999498,0.007512100040912628,0.09752850001677871,7.0,2.1912491000257432,,,,,,,,,,,,,,,2777,Moral,2025-02-13_13h17.40.857,MoralCondition_v2,2022.2.5,29.98311949386534,
9,0,9,0,6,0,6,0,,,,,,,,,,,,,,,,,,,,,,,,,,,,,,,,,,,,,,,,,,,,,,,,,,,,684.7007392998785,684.7007392998785,0.007652000058442354,0.09806270012632012,5.0,6.6245647999458015,,,,,,,,,,,,,,,2777,Moral,2025-02-13_13h17.40.857,MoralCondition_v2,2022.2.5,29.98311949386534,
9,0,9,0,,,,,,,,,,,,,,,,,,,,,,,,,,,,,,,,,,,,,,,,,,,,,,,,,,,,,,,,,,,,,,691.3673650999554,691.3673650999554,0.0007242998108267784,0.09892869973555207,3.0,5.7667053998447955,,,,,,,,,2777,Moral,2025-02-13_13h17.40.857,MoralCondition_v2,2022.2.5,29.98311949386534,
10,0,10,0,0,0,0,0,,,,,,,,,,,,,,,,,,,,,,697.1676542996429,0.00024609966203570366,0.0979777998290956,703.1840575998649,6.014482399914414,703.3675728999078,703.3675728999078,0.08860289957374334,0.19792129984125495,6.031272799707949,709.4674068000168,709.4674068000168,709.4674068000168,0.08985129976645112,0.19789249962195754,715.1673270999454,715.367457699962,6.031244699377567,6.13107719970867,721.3673878000118,12.031183599494398,721.4839582997374,721.4839582997374,0.014477599412202835,0.11438579950481653,up,1.5624043005518615,723.0839844997972,3.310013562440872e-05,0.09845050005242229,729.1009430000558,729.1009430000558,0.009254599921405315,0.11488359980285168,3.0,3.8733048997819424,,,,,,,721.4505431996658,721.4505431996658,729.1009430000558,709.3673584000207,709.3673584000207,,,,2777,Moral,2025-02-13_13h17.40.857,MoralCondition_v2,2022.2.5,29.98311949386534,
10,0,10,0,1,0,1,0,,,,,,,,,,,,,,,,,,,,,,,,,,,,,,,,,,,,,,,,,,,,,,,,,,,,733.0175715000369,733.0175715000369,0.00845070043578744,0.11421110015362501,1.0,2.139955500140786,,,,,,,,,,,,,,,2777,Moral,2025-02-13_13h17.40.857,MoralCondition_v2,2022.2.5,29.98311949386534,
10,0,10,0,2,0,2,0,,,,,,,,,,,,,,,,,,,,,,,,,,,,,,,,,,,,,,,,,,,,,,,,,,,,735.1838459996507,735.1838459996507,0.007213300094008446,0.09816229995340109,6.0,2.0253905998542905,,,,,,,,,,,,,,,2777,Moral,2025-02-13_13h17.40.857,MoralCondition_v2,2022.2.5,29.98311949386534,
10,0,10,0,3,0,3,0,,,,,,,,,,,,,,,,,,,,,,,,,,,,,,,,,,,,,,,,,,,,,,,,,,,,737.2505466998555,737.2505466998555,0.006392400246113539,0.09902910003438592,1.0,1.9269631998613477,,,,,,,,,,,,,,,2777,Moral,2025-02-13_13h17.40.857,MoralCondition_v2,2022.2.5,29.98311949386534,
10,0,10,0,4,0,4,0,,,,,,,,,,,,,,,,,,,,,,,,,,,,,,,,,,,,,,,,,,,,,,,,,,,,739.2172588999383,739.2172588999383,0.007126000244170427,0.09890299988910556,4.0,5.326232399791479,,,,,,,,,,,,,,,2777,Moral,2025-02-13_13h17.40.857,MoralCondition_v2,2022.2.5,29.98311949386534,
10,0,10,0,5,0,5,0,,,,,,,,,,,,,,,,,,,,,,,,,,,,,,,,,,,,,,,,,,,,,,,,,,,,744.5837985998951,744.5837985998951,0.0072882999666035175,0.0985155999660492,3.0,1.6922781001776457,,,,,,,,,,,,,,,2777,Moral,2025-02-13_13h17.40.857,MoralCondition_v2,2022.2.5,29.98311949386534,
10,0,10,0,6,0,6,0,,,,,,,,,,,,,,,,,,,,,,,,,,,,,,,,,,,,,,,,,,,,,,,,,,,,746.3170916000381,746.3170916000381,0.006636899895966053,0.09916000021621585,3.0,1.9268446997739375,,,,,,,,,,,,,,,2777,Moral,2025-02-13_13h17.40.857,MoralCondition_v2,2022.2.5,29.98311949386534,
10,0,10,0,,,,,,,,,,,,,,,,,,,,,,,,,,,,,,,,,,,,,,,,,,,,,,,,,,,,,,,,,,,,,,748.2839119997807,748.2839119997807,0.0011718999594449997,0.09799350006505847,6.0,6.2647231998853385,,,,,,,,,2777,Moral,2025-02-13_13h17.40.857,MoralCondition_v2,2022.2.5,29.98311949386534,
11,0,11,0,0,0,0,0,,,,,,,,,,,,,,,,,,,,,,754.584028000012,0.0002804999239742756,0.09736409969627857,760.5670308000408,6.013862600084394,760.7505723997019,760.7505723997019,0.06341409962624311,0.1639965996146202,6.030577199999243,766.8840316999704,766.8840316999704,766.8840316999704,0.08599159959703684,0.19726569950580597,772.5838466999121,772.7837449996732,6.030584699939936,6.130588499829173,778.7837093998678,12.030567799694836,778.917062799912,778.917062799912,0.030688099563121796,0.13052779948338866,up,0.9928637002594769,779.9503925000317,3.9800070226192474e-05,0.09787409985437989,785.9507034998387,785.9507034998387,0.008021699730306864,0.09800029965117574,3.0,3.657427200116217,,,,,,,778.8836904000491,778.8836904000491,785.9507034998387,766.7504177996889,766.7504177996889,,,6.097195699810982,2777,Moral,2025-02-13_13h17.40.857,MoralCondition_v2,2022.2.5,29.98311949386534,
11,0,11,0,1,0,1,0,,,,,,,,,,,,,,,,,,,,,,,,,,,,,,,,,,,,,,,,,,,,,,,,,,,,789.6503250999376,789.6503250999376,0.0072290003299713135,0.09797160001471639,1.0,2.5587931000627577,,,,,,,,,,,,,,,2777,Moral,2025-02-13_13h17.40.857,MoralCondition_v2,2022.2.5,29.98311949386534,
11,0,11,0,2,0,2,0,,,,,,,,,,,,,,,,,,,,,,,,,,,,,,,,,,,,,,,,,,,,,,,,,,,,792.2501197997481,792.2501197997481,0.006850299891084433,0.09795140009373426,4.0,2.0923417997546494,,,,,,,,,,,,,,,2777,Moral,2025-02-13_13h17.40.857,MoralCondition_v2,2022.2.5,29.98311949386534,
11,0,11,0,3,0,3,0,,,,,,,,,,,,,,,,,,,,,,,,,,,,,,,,,,,,,,,,,,,,,,,,,,,,794.3836745000444,794.3836745000444,0.006749799940735102,0.09914950001984835,3.0,3.626739799976349,,,,,,,,,,,,,,,2777,Moral,2025-02-13_13h17.40.857,MoralCondition_v2,2022.2.5,29.98311949386534,
11,0,11,0,4,0,4,0,,,,,,,,,,,,,,,,,,,,,,,,,,,,,,,,,,,,,,,,,,,,,,,,,,,,798.0671199997887,798.0671199997887,0.008441600017249584,0.11442549992352724,6.0,2.006806599907577,,,,,,,,,,,,,,,2777,Moral,2025-02-13_13h17.40.857,MoralCondition_v2,2022.2.5,29.98311949386534,
11,0,11,0,5,0,5,0,,,,,,,,,,,,,,,,,,,,,,,,,,,,,,,,,,,,,,,,,,,,,,,,,,,,800.1002966999076,800.1002966999076,0.006620800122618675,0.09948919992893934,3.0,2.4603283000178635,,,,,,,,,,,,,,,2777,Moral,2025-02-13_13h17.40.857,MoralCondition_v2,2022.2.5,29.98311949386534,
11,0,11,0,6,0,6,0,,,,,,,,,,,,,,,,,,,,,,,,,,,,,,,,,,,,,,,,,,,,,,,,,,,,802.600320499856,802.600320499856,0.006730999797582626,0.09922519978135824,1.0,1.793648799881339,,,,,,,,,,,,,,,2777,Moral,2025-02-13_13h17.40.857,MoralCondition_v2,2022.2.5,29.98311949386534,
11,0,11,0,,,,,,,,,,,,,,,,,,,,,,,,,,,,,,,,,,,,,,,,,,,,,,,,,,,,,,,,,,,,,,804.4336168998852,804.4336168998852,0.0007035997696220875,0.09898429969325662,6.0,12.133039699867368,,,,,,,,,2777,Moral,2025-02-13_13h17.40.857,MoralCondition_v2,2022.2.5,29.98311949386534,
12,0,12,0,0,0,0,0,,,,,,,,,,,,,,,,,,,,,,816.6003678999841,0.00016329996287822723,0.09857509983703494,822.6169546996243,6.014862099662423,822.7833667998202,822.7833667998202,0.07342159980908036,0.1817126995883882,6.014903899747878,828.8836417999119,828.8836417999119,828.8836417999119,0.06846849946305156,0.18153199972584844,834.5832283999771,834.7834305996075,6.014723099768162,6.114647099748254,840.7834125999361,12.01480419980362,840.9167786999606,840.9167786999606,0.014983899425715208,0.11455119960010052,up,1.5210392004810274,842.483548999764,3.71001660823822e-05,0.09797060023993254,848.5001362999901,848.5001362999901,0.008164600003510714,0.11482950020581484,3.0,4.940677800215781,,,,,,,840.8834199998528,840.8834199998528,848.5001362999901,828.7834867998026,828.7834867998026,,,,2777,Moral,2025-02-13_13h17.40.857,MoralCondition_v2,2022.2.5,29.98311949386534,
12,0,12,0,1,0,1,0,,,,,,,,,,,,,,,,,,,,,,,,,,,,,,,,,,,,,,,,,,,,,,,,,,,,853.4666368998587,853.4666368998587,0.007740099914371967,0.09794909972697496,1.0,2.591383300255984,,,,,,,,,,,,,,,2777,Moral,2025-02-13_13h17.40.857,MoralCondition_v2,2022.2.5,29.98311949386534,
12,0,12,0,2,0,2,0,,,,,,,,,,,,,,,,,,,,,,,,,,,,,,,,,,,,,,,,,,,,,,,,,,,,856.0999485999346,856.0999485999346,0.006713199894875288,0.0985272997058928,4.0,1.8261660002171993,,,,,,,,,,,,,,,2777,Moral,2025-02-13_13h17.40.857,MoralCondition_v2,2022.2.5,29.98311949386534,
12,0,12,0,3,0,3,0,,,,,,,,,,,,,,,,,,,,,,,,,,,,,,,,,,,,,,,,,,,,,,,,,,,,857.9667221996933,857.9667221996933,0.00925870006904006,0.0977325001731515,6.0,2.0227066995576024,,,,,,,,,,,,,,,2777,Moral,2025-02-13_13h17.40.857,MoralCondition_v2,2022.2.5,29.98311949386534,
12,0,12,0,4,0,4,0,,,,,,,,,,,,,,,,,,,,,,,,,,,,,,,,,,,,,,,,,,,,,,,,,,,,860.0499692996964,860.0499692996964,0.008053900208324194,0.11465140013024211,3.0,3.54072290007025,,,,,,,,,,,,,,,2777,Moral,2025-02-13_13h17.40.857,MoralCondition_v2,2022.2.5,29.98311949386534,
12,0,12,0,5,0,5,0,,,,,,,,,,,,,,,,,,,,,,,,,,,,,,,,,,,,,,,,,,,,,,,,,,,,863.6165966000408,863.6165966000408,0.006802099756896496,0.09925729967653751,3.0,2.7605539998039603,,,,,,,,,,,,,,,2777,Moral,2025-02-13_13h17.40.857,MoralCondition_v2,2022.2.5,29.98311949386534,
12,0,12,0,6,0,6,0,,,,,,,,,,,,,,,,,,,,,,,,,,,,,,,,,,,,,,,,,,,,,,,,,,,,866.4166059996933,866.4166059996933,0.006753500085324049,0.09933919971808791,1.0,2.660087399650365,,,,,,,,,,,,,,,2777,Moral,2025-02-13_13h17.40.857,MoralCondition_v2,2022.2.5,29.98311949386534,
12,0,12,0,,,,,,,,,,,,,,,,,,,,,,,,,,,,,,,,,,,,,,,,,,,,,,,,,,,,,,,,,,,,,,869.1165823000483,869.1165823000483,0.0007198997773230076,0.0992007995955646,6.0,6.233000000007451,,,,,,,,,2777,Moral,2025-02-13_13h17.40.857,MoralCondition_v2,2022.2.5,29.98311949386534,
13,0,13,0,0,0,0,0,,,,,,,,,,,,,,,,,,,,,,875.3835220998153,0.00013979990035295486,0.09941529994830489,881.3832202996127,5.999468700028956,881.5499517996795,881.5499517996795,0.06597309978678823,0.1661863001063466,5.999122300185263,887.6498328996822,887.6498328996822,887.6498328996822,0.055704599712044,0.16621770011261106,893.3498436999507,893.5499316998757,5.999364099930972,6.099332800135016,899.5498607996851,11.999296700116247,899.6831616996787,899.6831616996787,-0.00015250034630298615,0.0992112997919321,up,1.1063086003996432,900.8333123996854,4.91999089717865e-05,0.0978927998803556,906.8496612999588,906.8496612999588,0.025540600065141916,0.11464329995214939,6.0,5.923322600312531,,,,,,,899.6329651996493,899.6329651996493,,887.5500014997087,887.5500014997087,6.099455299787223,12.099026099778712,6.0991634000092745,2777,Moral,2025-02-13_13h17.40.857,MoralCondition_v2,2022.2.5,29.98311949386534,
13,0,13,0,1,0,1,0,,,,,,,,,,,,,,,,,,,,,,,,,,,,,,,,,,,,,,,,,,,,,,,,,,,,912.8162878998555,912.8162878998555,0.007343200035393238,0.09807519987225533,4.0,2.7583486000075936,,,,,,,,,,,,,,,2777,Moral,2025-02-13_13h17.40.857,MoralCondition_v2,2022.2.5,29.98311949386534,
13,0,13,0,2,0,2,0,,,,,,,,,,,,,,,,,,,,,,,,,,,,,,,,,,,,,,,,,,,,,,,,,,,,915.616609599907,915.616609599907,0.006637800019234419,0.09916169987991452,7.0,1.7270033000968397,,,,,,,,,,,,,,,2777,Moral,2025-02-13_13h17.40.857,MoralCondition_v2,2022.2.5,29.98311949386534,
13,0,13,0,3,0,3,0,,,,,,,,,,,,,,,,,,,,,,,,,,,,,,,,,,,,,,,,,,,,,,,,,,,,917.3831742997281,917.3831742997281,0.007002399768680334,0.09909809986129403,5.0,2.226456900127232,,,,,,,,,,,,,,,2777,Moral,2025-02-13_13h17.40.857,MoralCondition_v2,2022.2.5,29.98311949386534,
13,0,13,0,4,0,4,0,,,,,,,,,,,,,,,,,,,,,,,,,,,,,,,,,,,,,,,,,,,,,,,,,,,,919.6496555996127,919.6496555996127,0.0067010000348091125,0.09913909994065762,4.0,3.6269418001174927,,,,,,,,,,,,,,,2777,Moral,2025-02-13_13h17.40.857,MoralCondition_v2,2022.2.5,29.98311949386534,
13,0,13,0,5,0,5,0,,,,,,,,,,,,,,,,,,,,,,,,,,,,,,,,,,,,,,,,,,,,,,,,,,,,923.3165343999863,923.3165343999863,0.007946799974888563,0.09770140005275607,5.0,2.1905185002833605,,,,,,,,,,,,,,,2777,Moral,2025-02-13_13h17.40.857,MoralCondition_v2,2022.2.5,29.98311949386534,
13,0,13,0,6,0,6,0,,,,,,,,,,,,,,,,,,,,,,,,,,,,,,,,,,,,,,,,,,,,,,,,,,,,925.549645899795,925.549645899795,0.008529200218617916,0.0982063002884388,2.0,3.6243376000784338,,,,,,,,,,,,,,,2777,Moral,2025-02-13_13h17.40.857,MoralCondition_v2,2022.2.5,29.98311949386534,
13,0,13,0,,,,,,,,,,,,,,,,,,,,,,,,,,,,,,,,,,,,,,,,,,,,,,,,,,,,,,,,,,,,,,929.216348899994,929.216348899994,0.0013840002939105034,0.09740519989281893,3.0,3.69760869955644,,,,,,,,,2777,Moral,2025-02-13_13h17.40.857,MoralCondition_v2,2022.2.5,29.98311949386534,
14,0,14,0,0,0,0,0,,,,,,,,,,,,,,,,,,,,,,932.9497155998833,0.0002578003332018852,0.09834020026028156,938.9497207999229,6.03184280032292,939.1663003000431,939.1663003000431,0.10649990011006594,0.21504030004143715,6.014913400169462,945.2498289998621,945.2498289998621,945.2498289998621,0.09455240005627275,0.1987291001714766,950.9495799997821,951.1495476998389,6.031505899969488,6.131473599933088,957.1495529999956,12.0315094999969,957.2828417997807,957.2828417997807,0.03163379989564419,0.13141690008342266,up,1.811450100503862,959.1495145000517,4.369998350739479e-05,0.09772900026291609,965.1495151999407,965.1495151999407,0.006795600056648254,0.0978108998388052,3.0,5.0921813999302685,,,,,,,957.249531599693,957.249531599693,965.1495151999407,,,,,,2777,Moral,2025-02-13_13h17.40.857,MoralCondition_v2,2022.2.5,29.98311949386534,
14,0,14,0,1,0,1,0,,,,,,,,,,,,,,,,,,,,,,,,,,,,,,,,,,,,,,,,,,,,,,,,,,,,970.2827131999657,970.2827131999657,0.007504299748688936,0.0979633997194469,3.0,2.424631299916655,,,,,,,,,,,,,,,2777,Moral,2025-02-13_13h17.40.857,MoralCondition_v2,2022.2.5,29.98311949386534,
14,0,14,0,2,0,2,0,,,,,,,,,,,,,,,,,,,,,,,,,,,,,,,,,,,,,,,,,,,,,,,,,,,,972.7661520000547,972.7661520000547,0.009012799710035324,0.11422999994829297,4.0,2.2393526998348534,,,,,,,,,,,,,,,2777,Moral,2025-02-13_13h17.40.857,MoralCondition_v2,2022.2.5,29.98311949386534,
14,0,14,0,3,0,3,0,,,,,,,,,,,,,,,,,,,,,,,,,,,,,,,,,,,,,,,,,,,,,,,,,,,,975.0327874999493,975.0327874999493,0.006737499963492155,0.09916500002145767,6.0,6.026757599785924,,,,,,,,,,,,,,,2777,Moral,2025-02-13_13h17.40.857,MoralCondition_v2,2022.2.5,29.98311949386534,
14,0,14,0,4,0,4,0,,,,,,,,,,,,,,,,,,,,,,,,,,,,,,,,,,,,,,,,,,,,,,,,,,,,981.0995316999033,981.0995316999033,0.006726100109517574,0.09916889993473887,4.0,2.4603992998600006,,,,,,,,,,,,,,,2777,Moral,2025-02-13_13h17.40.857,MoralCondition_v2,2022.2.5,29.98311949386534,
14,0,14,0,5,0,5,0,,,,,,,,,,,,,,,,,,,,,,,,,,,,,,,,,,,,,,,,,,,,,,,,,,,,983.5992074999958,983.5992074999958,0.0079369000159204,0.09809840004891157,7.0,2.9926697998307645,,,,,,,,,,,,,,,2777,Moral,2025-02-13_13h17.40.857,MoralCondition_v2,2022.2.5,29.98311949386534,
14,0,14,0,6,0,6,0,,,,,,,,,,,,,,,,,,,,,,,,,,,,,,,,,,,,,,,,,,,,,,,,,,,,986.6327121998183,986.6327121998183,0.006796900182962418,0.09820030024275184,1.0,1.7923118998296559,,,,,,,,,,,,,,,2777,Moral,2025-02-13_13h17.40.857,MoralCondition_v2,2022.2.5,29.98311949386534,
14,0,14,0,,,,,,,,,,,,,,,,,,,,,,,,,,,,,,,,,,,,,,,,,,,,,,,,,,,,,,,,,,,,,,988.4661344997585,988.4661344997585,0.0012986999936401844,0.09837180003523827,3.0,4.531103500165045,,,,,,,,,2777,Moral,2025-02-13_13h17.40.857,MoralCondition_v2,2022.2.5,29.98311949386534,
15,0,15,0,0,0,0,0,,,,,,,,,,,,,,,,,,,,,,993.0329672996886,0.0001346999779343605,0.09921080013737082,999.0326604996808,5.999120800290257,999.1993396999314,999.1993396999314,0.06673219986259937,0.16608679993078113,5.999123299960047,1005.2992716999725,1005.2992716999725,1005.2992716999725,0.06499490002170205,0.16598370019346476,1010.9993050997145,1011.2326663997956,5.999094699975103,6.099459600169212,1017.2325480999425,11.999073899816722,1017.3325757998973,1017.3325757998973,0.00010439986363053322,0.0990927997045219,up,1.3932088003493845,1018.7660521999933,4.150019958615303e-05,0.09802190028131008,1024.765821899753,1024.765821899753,0.006143500097095966,0.09811969986185431,7.0,3.1596026001498103,,,,,,,1017.2993528000079,1017.2993528000079,1024.765821899753,1005.1993054999039,1005.1993054999039,6.09922800026834,12.099219399970025,6.0992018999531865,2777,Moral,2025-02-13_13h17.40.857,MoralCondition_v2,2022.2.5,29.98311949386534,
15,0,15,0,1,0,1,0,,,,,,,,,,,,,,,,,,,,,,,,,,,,,,,,,,,,,,,,,,,,,,,,,,,,1027.965751599986,1027.965751599986,0.008838800247758627,0.09920450020581484,4.0,4.0248073996044695,,,,,,,,,,,,,,,2777,Moral,2025-02-13_13h17.40.857,MoralCondition_v2,2022.2.5,29.98311949386534,
15,0,15,0,2,0,2,0,,,,,,,,,,,,,,,,,,,,,,,,,,,,,,,,,,,,,,,,,,,,,,,,,,,,1032.0324385999702,1032.0324385999702,0.006489399820566177,0.09930930007249117,5.0,1.6270372001454234,,,,,,,,,,,,,,,2777,Moral,2025-02-13_13h17.40.857,MoralCondition_v2,2022.2.5,29.98311949386534,
15,0,15,0,3,0,3,0,,,,,,,,,,,,,,,,,,,,,,,,,,,,,,,,,,,,,,,,,,,,,,,,,,,,1033.6993255000561,1033.6993255000561,0.0077887000516057014,0.09894709987565875,7.0,2.425501400139183,,,,,,,,,,,,,,,2777,Moral,2025-02-13_13h17.40.857,MoralCondition_v2,2022.2.5,29.98311949386534,
15,0,15,0,4,0,4,0,,,,,,,,,,,,,,,,,,,,,,,,,,,,,,,,,,,,,,,,,,,,,,,,,,,,1036.182689299807,1036.182689299807,0.007734099868685007,0.11433180002495646,6.0,1.7741935001686215,,,,,,,,,,,,,,,2777,Moral,2025-02-13_13h17.40.857,MoralCondition_v2,2022.2.5,29.98311949386534,
15,0,15,0,5,0,5,0,,,,,,,,,,,,,,,,,,,,,,,,,,,,,,,,,,,,,,,,,,,,,,,,,,,,1037.982489399612,1037.982489399612,0.006602500099688768,0.09929230017587543,4.0,2.093850300181657,,,,,,,,,,,,,,,2777,Moral,2025-02-13_13h17.40.857,MoralCondition_v2,2022.2.5,29.98311949386534,
15,0,15,0,6,0,6,0,,,,,,,,,,,,,,,,,,,,,,,,,,,,,,,,,,,,,,,,,,,,,,,,,,,,1040.1158050000668,1040.1158050000668,0.0065946998074650764,0.0992393996566534,1.0,3.0269839996472,,,,,,,,,,,,,,,2777,Moral,2025-02-13_13h17.40.857,MoralCondition_v2,2022.2.5,29.98311949386534,
15,0,15,0,,,,,,,,,,,,,,,,,,,,,,,,,,,,,,,,,,,,,,,,,,,,,,,,,,,,,,,,,,,,,,1043.1825314997695,1043.1825314997695,0.0012388001196086407,0.09737450024113059,1.0,3.9307523001916707,,,,,,,,,2777,Moral,2025-02-13_13h17.40.857,MoralCondition_v2,2022.2.5,29.98311949386534,
16,0,16,0,0,0,0,0,,,,,,,,,,,,,,,,,,,,,,1047.1492989999242,0.0003336002118885517,0.09761429997161031,1053.1656861999072,6.014144100248814,1053.3323377999477,1053.3323377999477,0.0728516997769475,0.18092079972848296,6.01402990007773,1059.4324126997963,1059.4324126997963,1059.4324126997963,0.07456739991903305,0.1810087999328971,1065.1323669999838,1065.332350499928,6.014111999887973,6.113964699674398,1071.3323186999187,12.014015699736774,1071.4656145996414,1071.4656145996414,0.014120099600404501,0.11413229955360293,up,1.4844971005804837,1072.9990050997585,5.589984357357025e-05,0.09796090004965663,1079.015816600062,1079.015816600062,0.025484499987214804,0.11460579978302121,4.0,3.856881400104612,,,,,,,1071.432286199648,1071.432286199648,,1059.3323579998687,1059.3323579998687,,,,2777,Moral,2025-02-13_13h17.40.857,MoralCondition_v2,2022.2.5,29.98311949386534,
16,0,16,0,1,0,1,0,,,,,,,,,,,,,,,,,,,,,,,,,,,,,,,,,,,,,,,,,,,,,,,,,,,,1082.915520099923,1082.915520099923,0.008061399683356285,0.09802010003477335,1.0,2.457980599720031,,,,,,,,,,,,,,,2777,Moral,2025-02-13_13h17.40.857,MoralCondition_v2,2022.2.5,29.98311949386534,
16,0,16,0,2,0,2,0,,,,,,,,,,,,,,,,,,,,,,,,,,,,,,,,,,,,,,,,,,,,,,,,,,,,1085.4156053997576,1085.4156053997576,0.006959899794310331,0.09970259992405772,3.0,2.560115000233054,,,,,,,,,,,,,,,2777,Moral,2025-02-13_13h17.40.857,MoralCondition_v2,2022.2.5,29.98311949386534,
16,0,16,0,3,0,3,0,,,,,,,,,,,,,,,,,,,,,,,,,,,,,,,,,,,,,,,,,,,,,,,,,,,,1088.015590599738,1088.015590599738,0.006574300117790699,0.0992354997433722,3.0,2.493811100255698,,,,,,,,,,,,,,,2777,Moral,2025-02-13_13h17.40.857,MoralCondition_v2,2022.2.5,29.98311949386534,
16,0,16,0,4,0,4,0,,,,,,,,,,,,,,,,,,,,,,,,,,,,,,,,,,,,,,,,,,,,,,,,,,,,1090.5487248999998,1090.5487248999998,0.007370200008153915,0.09918629983440042,6.0,2.09273809986189,,,,,,,,,,,,,,,2777,Moral,2025-02-13_13h17.40.857,MoralCondition_v2,2022.2.5,29.98311949386534,
16,0,16,0,5,0,5,0,,,,,,,,,,,,,,,,,,,,,,,,,,,,,,,,,,,,,,,,,,,,,,,,,,,,1092.6822314998135,1092.6822314998135,0.007615100126713514,0.0979067999869585,3.0,2.1912719001993537,,,,,,,,,,,,,,,2777,Moral,2025-02-13_13h17.40.857,MoralCondition_v2,2022.2.5,29.98311949386534,
16,0,16,0,6,0,6,0,,,,,,,,,,,,,,,,,,,,,,,,,,,,,,,,,,,,,,,,,,,,,,,,,,,,1094.915417299606,1094.915417299606,0.006493999622762203,0.0992631996050477,1.0,2.8609145996160805,,,,,,,,,,,,,,,2777,Moral,2025-02-13_13h17.40.857,MoralCondition_v2,2022.2.5,29.98311949386534,
16,0,16,0,,,,,,,,,,,,,,,,,,,,,,,,,,,,,,,,,,,,,,,,,,,,,,,,,,,,,,,,,,,,,,1097.8155980999582,1097.8155980999582,0.001984099857509136,0.0978362001478672,6.0,3.6303630000911653,,,,,,,,,2777,Moral,2025-02-13_13h17.40.857,MoralCondition_v2,2022.2.5,29.98311949386534,
17,0,17,0,0,0,0,0,,,,,,,,,,,,,,,,,,,,,,1101.4823639998212,0.0002981000579893589,0.09773360006511211,1107.4821028998122,6.0310420002788305,1107.6652023000643,1107.6652023000643,0.07600970007479191,0.18105390015989542,6.014299700036645,1113.7655829996802,1113.7655829996802,1113.7655829996802,0.06983469985425472,0.18100730003789067,1119.4653914999217,1119.6653711996041,6.014342399779707,6.114391099661589,1125.6655970998108,12.014543899800628,1125.7986918999813,1125.7986918999813,0.014510300010442734,0.11422749981284142,up,1.119376000482589,1126.9654626999982,4.3800100684165955e-05,0.09792330022901297,1132.9652546998113,1132.9652546998113,0.009879100136458874,0.09768440015614033,4.0,3.0556387999095023,,,,,,,1125.7653394998051,1125.7653394998051,1132.9652546998113,1113.665434199851,1113.665434199851,,,,2777,Moral,2025-02-13_13h17.40.857,MoralCondition_v2,2022.2.5,29.98311949386534,
17,0,17,0,1,0,1,0,,,,,,,,,,,,,,,,,,,,,,,,,,,,,,,,,,,,,,,,,,,,,,,,,,,,1136.0653023999184,1136.0653023999184,0.006722200196236372,0.09927080012857914,5.0,5.560172299854457,,,,,,,,,,,,,,,2777,Moral,2025-02-13_13h17.40.857,MoralCondition_v2,2022.2.5,29.98311949386534,
17,0,17,0,2,0,2,0,,,,,,,,,,,,,,,,,,,,,,,,,,,,,,,,,,,,,,,,,,,,,,,,,,,,1141.6654681996442,1141.6654681996442,0.006590200122445822,0.09919989993795753,7.0,2.526934100314975,,,,,,,,,,,,,,,2777,Moral,2025-02-13_13h17.40.857,MoralCondition_v2,2022.2.5,29.98311949386534,
17,0,17,0,3,0,3,0,,,,,,,,,,,,,,,,,,,,,,,,,,,,,,,,,,,,,,,,,,,,,,,,,,,,1144.232553199865,1144.232553199865,0.008489000145345926,0.0974095999263227,1.0,1.9571022996678948,,,,,,,,,,,,,,,2777,Moral,2025-02-13_13h17.40.857,MoralCondition_v2,2022.2.5,29.98311949386534,
17,0,17,0,4,0,4,0,,,,,,,,,,,,,,,,,,,,,,,,,,,,,,,,,,,,,,,,,,,,,,,,,,,,1146.2317498996854,1146.2317498996854,0.007739299908280373,0.09800689993426204,5.0,2.5913929999805987,,,,,,,,,,,,,,,2777,Moral,2025-02-13_13h17.40.857,MoralCondition_v2,2022.2.5,29.98311949386534,
17,0,17,0,5,0,5,0,,,,,,,,,,,,,,,,,,,,,,,,,,,,,,,,,,,,,,,,,,,,,,,,,,,,1148.8652089997195,1148.8652089997195,0.007539799902588129,0.09799350006505847,7.0,1.4582590004429221,,,,,,,,,,,,,,,2777,Moral,2025-02-13_13h17.40.857,MoralCondition_v2,2022.2.5,29.98311949386534,
17,0,17,0,6,0,6,0,,,,,,,,,,,,,,,,,,,,,,,,,,,,,,,,,,,,,,,,,,,,,,,,,,,,1150.3653822997585,1150.3653822997585,0.006632399745285511,0.09920879965648055,6.0,1.7936217999085784,,,,,,,,,,,,,,,2777,Moral,2025-02-13_13h17.40.857,MoralCondition_v2,2022.2.5,29.98311949386534,
17,0,17,0,,,,,,,,,,,,,,,,,,,,,,,,,,,,,,,,,,,,,,,,,,,,,,,,,,,,,,,,,,,,,,1152.1986495996825,1152.1986495996825,0.0009651998989284039,0.09969689976423979,3.0,7.499654199928045,,,,,,,,,2777,Moral,2025-02-13_13h17.40.857,MoralCondition_v2,2022.2.5,29.98311949386534,
18,0,18,0,0,0,0,0,,,,,,,,,,,,,,,,,,,,,,1159.7319106999785,0.0004376000724732876,0.09730510041117668,1165.748487799894,6.013888600282371,1165.9987359996885,1165.9987359996885,0.14823140017688274,0.2639168999157846,6.030546400230378,1172.0318650999106,1172.0318650999106,1172.0318650999106,0.0951009001582861,0.19745439989492297,1177.7317426996306,1177.931839299854,6.030627800151706,6.130639200098813,1183.9319346998818,12.030722199939191,1184.0315713998862,1184.0315713998862,0.013594800140708685,0.09711739979684353,up,1.205631900113076,1185.2982891998254,4.630023613572121e-05,0.09792739991098642,1191.332054699771,1191.332054699771,0.026266700122505426,0.13148429989814758,3.0,4.272760100197047,,,,,,,1184.0147146997042,1184.0147146997042,,,,,,,2777,Moral,2025-02-13_13h17.40.857,MoralCondition_v2,2022.2.5,29.98311949386534,
18,0,18,0,1,0,1,0,,,,,,,,,,,,,,,,,,,,,,,,,,,,,,,,,,,,,,,,,,,,,,,,,,,,1195.6484372997656,1195.6484372997656,0.007880600169301033,0.11416910029947758,1.0,4.307211100123823,,,,,,,,,,,,,,,2777,Moral,2025-02-13_13h17.40.857,MoralCondition_v2,2022.2.5,29.98311949386534,
18,0,18,0,2,0,2,0,,,,,,,,,,,,,,,,,,,,,,,,,,,,,,,,,,,,,,,,,,,,,,,,,,,,1199.981724299956,1199.981724299956,0.007141000125557184,0.0991134000942111,4.0,3.326423100195825,,,,,,,,,,,,,,,2777,Moral,2025-02-13_13h17.40.857,MoralCondition_v2,2022.2.5,29.98311949386534,
18,0,18,0,3,0,3,0,,,,,,,,,,,,,,,,,,,,,,,,,,,,,,,,,,,,,,,,,,,,,,,,,,,,1203.348254499957,1203.348254499957,0.00903830025345087,0.09886940009891987,4.0,1.4242071998305619,,,,,,,,,,,,,,,2777,Moral,2025-02-13_13h17.40.857,MoralCondition_v2,2022.2.5,29.98311949386534,
18,0,18,0,4,0,4,0,,,,,,,,,,,,,,,,,,,,,,,,,,,,,,,,,,,,,,,,,,,,,,,,,,,,1204.8151316996664,1204.8151316996664,0.00718910014256835,0.09908000007271767,3.0,1.5263495999388397,,,,,,,,,,,,,,,2777,Moral,2025-02-13_13h17.40.857,MoralCondition_v2,2022.2.5,29.98311949386534,
18,0,18,0,5,0,5,0,,,,,,,,,,,,,,,,,,,,,,,,,,,,,,,,,,,,,,,,,,,,,,,,,,,,1206.38172689965,1206.38172689965,0.008096199948340654,0.09822020027786493,1.0,1.4578184001147747,,,,,,,,,,,,,,,2777,Moral,2025-02-13_13h17.40.857,MoralCondition_v2,2022.2.5,29.98311949386534,
18,0,18,0,6,0,6,0,,,,,,,,,,,,,,,,,,,,,,,,,,,,,,,,,,,,,,,,,,,,,,,,,,,,1207.881683500018,1207.881683500018,0.007361399941146374,0.09821489965543151,6.0,1.9584723999723792,,,,,,,,,,,,,,,2777,Moral,2025-02-13_13h17.40.857,MoralCondition_v2,2022.2.5,29.98311949386534,
18,0,18,0,,,,,,,,,,,,,,,,,,,,,,,,,,,,,,,,,,,,,,,,,,,,,,,,,,,,,,,,,,,,,,1209.8814379000105,1209.8814379000105,0.0019796998240053654,0.097218899987638,6.0,2.1963655999861658,,,,,,,,,2777,Moral,2025-02-13_13h17.40.857,MoralCondition_v2,2022.2.5,29.98311949386534,
19,0,19,0,0,0,0,0,,,,,,,,,,,,,,,,,,,,,,1212.1152335000224,0.00025029992684721947,0.09819909976795316,1218.1149368998595,6.031475800089538,1218.3483760999516,1218.3483760999516,0.12792439991608262,0.23171989992260933,6.031395100057125,1224.414785400033,1224.414785400033,1224.414785400033,0.09418309992179275,0.19817139953374863,1230.1151044997387,1230.314970499836,6.03151679970324,6.13156219990924,1236.3148392997682,12.031383499968797,1236.4481712998822,1236.4481712998822,0.03155399952083826,0.1313531994819641,up,1.5252715004608035,1238.0149383996613,2.1799933165311813e-05,0.0992038999684155,1244.0319628999569,1244.0319628999569,0.027170400135219097,0.11553579987958074,5.0,5.556110799778253,,,,,,,1236.4148523998447,1236.4148523998447,,,,,,,2777,Moral,2025-02-13_13h17.40.857,MoralCondition_v2,2022.2.5,29.98311949386534,
19,0,19,0,1,0,1,0,,,,,,,,,,,,,,,,,,,,,,,,,,,,,,,,,,,,,,,,,,,,,,,,,,,,1249.6315540997311,1249.6315540997311,0.007180499844253063,0.0982932997867465,1.0,2.425470200367272,,,,,,,,,,,,,,,2777,Moral,2025-02-13_13h17.40.857,MoralCondition_v2,2022.2.5,29.98311949386534,
19,0,19,0,2,0,2,0,,,,,,,,,,,,,,,,,,,,,,,,,,,,,,,,,,,,,,,,,,,,,,,,,,,,1252.0982033996843,1252.0982033996843,0.007864200044423342,0.09894910035654902,7.0,2.0255094999447465,,,,,,,,,,,,,,,2777,Moral,2025-02-13_13h17.40.857,MoralCondition_v2,2022.2.5,29.98311949386534,
19,0,19,0,3,0,3,0,,,,,,,,,,,,,,,,,,,,,,,,,,,,,,,,,,,,,,,,,,,,,,,,,,,,1254.164651799947,1254.164651799947,0.007482700049877167,0.0994951999746263,7.0,0.9595182999037206,,,,,,,,,,,,,,,2777,Moral,2025-02-13_13h17.40.857,MoralCondition_v2,2022.2.5,29.98311949386534,
19,0,19,0,4,0,4,0,,,,,,,,,,,,,,,,,,,,,,,,,,,,,,,,,,,,,,,,,,,,,,,,,,,,1255.1816539997235,1255.1816539997235,0.008665499743074179,0.11441130004823208,5.0,3.1066932999528944,,,,,,,,,,,,,,,2777,Moral,2025-02-13_13h17.40.857,MoralCondition_v2,2022.2.5,29.98311949386534,
19,0,19,0,5,0,5,0,,,,,,,,,,,,,,,,,,,,,,,,,,,,,,,,,,,,,,,,,,,,,,,,,,,,1258.3146158000454,1258.3146158000454,0.007269000168889761,0.09802989987656474,6.0,2.291889499872923,,,,,,,,,,,,,,,2777,Moral,2025-02-13_13h17.40.857,MoralCondition_v2,2022.2.5,29.98311949386534,
19,0,19,0,6,0,6,0,,,,,,,,,,,,,,,,,,,,,,,,,,,,,,,,,,,,,,,,,,,,,,,,,,,,1260.6480183997191,1260.6480183997191,0.007672699633985758,0.09936299966648221,4.0,1.892606900073588,,,,,,,,,,,,,,,2777,Moral,2025-02-13_13h17.40.857,MoralCondition_v2,2022.2.5,29.98311949386534,
19,0,19,0,,,,,,,,,,,,,,,,,,,,,,,,,,,,,,,,,,,,,,,,,,,,,,,,,,,,,,,,,,,,,,1262.5815117000602,1262.5815117000602,0.0014388998970389366,0.09788830019533634,1.0,5.131153000053018,,,,,,,,,2777,Moral,2025-02-13_13h17.40.857,MoralCondition_v2,2022.2.5,29.98311949386534,
