loop.thisRepN,loop.thisTrialN,loop.thisN,loop.thisIndex,evaluate_all_emotions.thisRepN,evaluate_all_emotions.thisTrialN,evaluate_all_emotions.thisN,evaluate_all_emotions.thisIndex,sync_beep_1.started,p_port.started,p_port.stopped,sync_beep_1.stopped,sync_beep_2.started,sync_beep_2.stopped,sync_beep_3.started,sync_beep_3.stopped,sync_beep_4.started,sync_beep_4.stopped,baseline.started,p_port_2.started,p_port_2.stopped,baseline.stopped,p_port_3.started,Game_Start_Text.started,p_port_4.started,p_port_4.stopped,key_resp.started,key_resp.keys,key_resp.rt,fixation_cross.started,p_port_5.started,p_port_5.stopped,fixation_cross.stopped,p_port_6.started,player_image_intro.started,player_name_intro.started,p_port_7.started,p_port_7.stopped,p_port_8.started,player_image_offer.started,player_name_offer.started,proposed_split.started,p_port_9.started,p_port_9.stopped,proposed_split.stopped,accept_reject.started,p_port_15.started,p_port_15.stopped,accept_reject.stopped,p_port_10.started,arrow_instructions.started,offer_choice.started,p_port_11.started,p_port_11.stopped,offer_choice.keys,offer_choice.rt,Instructions_Affinity_Score.started,p_port_12.started,p_port_12.stopped,Emotion_Image.started,AffinityScore.started,p_port_13.started,p_port_13.stopped,AffinityScore.response,AffinityScore.rt,Instruction.started,Moral_Disgust_Score.started,p_port_14.started,p_port_14.stopped,Moral_Disgust_Score.response,Moral_Disgust_Score.rt,player_image_offer.stopped,player_name_offer.stopped,Instructions_Affinity_Score.stopped,player_image_intro.stopped,player_name_intro.stopped,p_port_6.stopped,p_port_8.stopped,p_port_10.stopped,participant,session,date,expName,psychopyVersion,frameRate,
,,,,,,,,47.894833102822304,0.0008266009390354156,0.11492210067808628,48.21081620082259,48.51128132026643,48.827467599883676,49.11119322050363,49.4108736012131,49.694252021051945,50.01083640009165,50.01083640009165,0.0038057006895542145,0.09867370128631592,65.02753799967468,15.015065900981426,65.12758480012417,0.015122901648283005,0.11496840044856071,65.611034700647,space,10.59302149899304,,,,,,,,,,,,,,,,,,,,,,,,,,,,,,,,,,,,,,,,,,,,,,,,,,,2951,Moral,2024-07-10_11h31.41.380,MoralCondition_v2,2022.2.5,30.01106797049546,
0,0,0,0,0,0,0,0,,,,,,,,,,,,,,,,,,,,,,76.26093420013785,0.0058963000774383545,0.09853360056877136,82.27759510092437,6.015142600983381,82.49431180022657,82.49431180022657,0.08885890059173107,0.2319984007626772,6.031905701383948,88.57751260139048,88.57751260139048,88.57751260139048,0.09130160138010979,0.21564780175685883,94.27756300009787,94.44423410110176,6.015251701697707,6.115284601226449,100.4442352000624,12.01525380089879,100.57753540016711,100.57753540016711,0.015457501634955406,0.1151181012392044,up,2.137880200520158,102.76076750084758,4.719942808151245e-05,0.0977340005338192,108.79460310004652,108.79460310004652,0.027438700199127197,0.13116800040006638,1.0,2.454611200839281,,,,,,,,,,,,,,,2951,Moral,2024-07-10_11h31.41.380,MoralCondition_v2,2022.2.5,30.01106797049546,
0,0,0,0,1,0,1,0,,,,,,,,,,,,,,,,,,,,,,,,,,,,,,,,,,,,,,,,,,,,,,,,,,,,111.29430850036442,111.29430850036442,0.009880999103188515,0.11418959870934486,1.0,6.271998900920153,,,,,,,,,,,,,,,2951,Moral,2024-07-10_11h31.41.380,MoralCondition_v2,2022.2.5,30.01106797049546,
0,0,0,0,2,0,2,0,,,,,,,,,,,,,,,,,,,,,,,,,,,,,,,,,,,,,,,,,,,,,,,,,,,,117.61108640022576,117.61108640022576,0.019562600180506706,0.11436030082404613,2.0,2.19580639898777,,,,,,,,,,,,,,,2951,Moral,2024-07-10_11h31.41.380,MoralCondition_v2,2022.2.5,30.01106797049546,
0,0,0,0,3,0,3,0,,,,,,,,,,,,,,,,,,,,,,,,,,,,,,,,,,,,,,,,,,,,,,,,,,,,119.84423470124602,119.84423470124602,0.00929349847137928,0.09791000001132488,1.0,1.8895856998860836,,,,,,,,,,,,,,,2951,Moral,2024-07-10_11h31.41.380,MoralCondition_v2,2022.2.5,30.01106797049546,
0,0,0,0,4,0,4,0,,,,,,,,,,,,,,,,,,,,,,,,,,,,,,,,,,,,,,,,,,,,,,,,,,,,121.7775924000889,121.7775924000889,0.008706700056791306,0.09912320040166378,1.0,1.4914348013699055,,,,,,,,,,,,,,,2951,Moral,2024-07-10_11h31.41.380,MoralCondition_v2,2022.2.5,30.01106797049546,
0,0,0,0,5,0,5,0,,,,,,,,,,,,,,,,,,,,,,,,,,,,,,,,,,,,,,,,,,,,,,,,,,,,123.327488001436,123.327488001436,0.011913899332284927,0.1141280997544527,2.0,2.536540100350976,,,,,,,,,,,,,,,2951,Moral,2024-07-10_11h31.41.380,MoralCondition_v2,2022.2.5,30.01106797049546,
0,0,0,0,6,0,6,0,,,,,,,,,,,,,,,,,,,,,,,,,,,,,,,,,,,,,,,,,,,,,,,,,,,,125.89420900121331,125.89420900121331,0.009364599362015724,0.09938709996640682,1.0,1.2574623003602028,,,,,,,,,,,,,,,2951,Moral,2024-07-10_11h31.41.380,MoralCondition_v2,2022.2.5,30.01106797049546,
0,0,0,0,,,,,,,,,,,,,,,,,,,,,,,,,,,,,,,,,,,,,,,,,,,,,,,,,,,,,,,,,,,,,,127.19445330090821,127.19445330090821,0.0007686000317335129,0.09889459982514381,4.0,10.199145099148154,,,,,,,,,2951,Moral,2024-07-10_11h31.41.380,MoralCondition_v2,2022.2.5,30.01106797049546,
1,0,1,0,0,0,0,0,,,,,,,,,,,,,,,,,,,,,,137.42784940078855,0.0003302004188299179,0.09787270054221153,143.44416359998286,6.0143459010869265,143.6441425997764,143.6441425997764,0.10328130051493645,0.21455260179936886,6.0145070012658834,149.7107322998345,149.7107322998345,149.7107322998345,0.0705140009522438,0.18117370083928108,155.4109627008438,155.61082260124385,6.014459701254964,6.114421300590038,161.61084940098226,12.014423402026296,161.7442943006754,161.7442943006754,0.014730101451277733,0.11434430256485939,down,27.987539298832417,189.7775254007429,4.8298388719558716e-05,0.09787659905850887,195.79432339966297,195.79432339966297,0.009608598425984383,0.11466419883072376,2.0,3.63936959952116,,,,,,,161.7109701000154,161.7109701000154,195.79432339966297,,,,,,2951,Moral,2024-07-10_11h31.41.380,MoralCondition_v2,2022.2.5,30.01106797049546,
1,0,1,0,1,0,1,0,,,,,,,,,,,,,,,,,,,,,,,,,,,,,,,,,,,,,,,,,,,,,,,,,,,,199.46093770116568,199.46093770116568,0.007171100005507469,0.09921849891543388,1.0,1.5597095005214214,,,,,,,,,,,,,,,2951,Moral,2024-07-10_11h31.41.380,MoralCondition_v2,2022.2.5,30.01106797049546,
1,0,1,0,2,0,2,0,,,,,,,,,,,,,,,,,,,,,,,,,,,,,,,,,,,,,,,,,,,,,,,,,,,,201.0607294999063,201.0607294999063,0.009114401414990425,0.09791270084679127,3.0,2.189867999404669,,,,,,,,,,,,,,,2951,Moral,2024-07-10_11h31.41.380,MoralCondition_v2,2022.2.5,30.01106797049546,
1,0,1,0,3,0,3,0,,,,,,,,,,,,,,,,,,,,,,,,,,,,,,,,,,,,,,,,,,,,,,,,,,,,203.29420960135758,203.29420960135758,0.007582899183034897,0.09775929898023605,1.0,1.8910444006323814,,,,,,,,,,,,,,,2951,Moral,2024-07-10_11h31.41.380,MoralCondition_v2,2022.2.5,30.01106797049546,
1,0,1,0,4,0,4,0,,,,,,,,,,,,,,,,,,,,,,,,,,,,,,,,,,,,,,,,,,,,,,,,,,,,205.24447490088642,205.24447490088642,0.007788600400090218,0.11479740031063557,2.0,2.774439899250865,,,,,,,,,,,,,,,2951,Moral,2024-07-10_11h31.41.380,MoralCondition_v2,2022.2.5,30.01106797049546,
1,0,1,0,5,0,5,0,,,,,,,,,,,,,,,,,,,,,,,,,,,,,,,,,,,,,,,,,,,,,,,,,,,,208.0442554000765,208.0442554000765,0.007224900647997856,0.09814880043268204,5.0,2.1252267006784678,,,,,,,,,,,,,,,2951,Moral,2024-07-10_11h31.41.380,MoralCondition_v2,2022.2.5,30.01106797049546,
1,0,1,0,6,0,6,0,,,,,,,,,,,,,,,,,,,,,,,,,,,,,,,,,,,,,,,,,,,,,,,,,,,,210.2108330000192,210.2108330000192,0.007031898945569992,0.098234498873353,2.0,2.1922155003994703,,,,,,,,,,,,,,,2951,Moral,2024-07-10_11h31.41.380,MoralCondition_v2,2022.2.5,30.01106797049546,
1,0,1,0,,,,,,,,,,,,,,,,,,,,,,,,,,,,,,,,,,,,,,,,,,,,,,,,,,,,,,,,,,,,,,212.44412510097027,212.44412510097027,0.0007259007543325424,0.09921060130000114,4.0,7.999746900051832,,,,,,,,,2951,Moral,2024-07-10_11h31.41.380,MoralCondition_v2,2022.2.5,30.01106797049546,
2,0,2,0,0,0,0,0,,,,,,,,,,,,,,,,,,,,,,220.47785730101168,0.00029319897294044495,0.09751639887690544,226.47765799984336,6.031088300049305,226.7108919005841,226.7108919005841,0.11964519880712032,0.23089860007166862,6.030887899920344,232.77750070020556,232.77750070020556,232.77750070020556,0.093308100476861,0.19779809936881065,238.47750489972532,238.67749140039086,6.030938699841499,6.130847100168467,244.67749230004847,12.030899399891496,244.81079120002687,244.81079120002687,0.031133700162172318,0.13084919936954975,up,0.4888074994087219,245.34429180063307,5.27016818523407e-05,0.09758719988167286,251.36070240102708,251.36070240102708,0.024325501173734665,0.1148822009563446,5.0,7.924326600506902,,,,,,,244.7775028012693,244.7775028012693,,,,,,,2951,Moral,2024-07-10_11h31.41.380,MoralCondition_v2,2022.2.5,30.01106797049546,
2,0,2,0,1,0,1,0,,,,,,,,,,,,,,,,,,,,,,,,,,,,,,,,,,,,,,,,,,,,,,,,,,,,259.32729900069535,259.32729900069535,0.007021600380539894,0.09822870045900345,2.0,2.392254000529647,,,,,,,,,,,,,,,2951,Moral,2024-07-10_11h31.41.380,MoralCondition_v2,2022.2.5,30.01106797049546,
2,0,2,0,2,0,2,0,,,,,,,,,,,,,,,,,,,,,,,,,,,,,,,,,,,,,,,,,,,,,,,,,,,,261.76067490130663,261.76067490130663,0.007686600089073181,0.09764200076460838,2.0,1.7245242986828089,,,,,,,,,,,,,,,2951,Moral,2024-07-10_11h31.41.380,MoralCondition_v2,2022.2.5,30.01106797049546,
2,0,2,0,3,0,3,0,,,,,,,,,,,,,,,,,,,,,,,,,,,,,,,,,,,,,,,,,,,,,,,,,,,,263.5275138001889,263.5275138001889,0.008268699049949646,0.09839059971272945,1.0,1.7577416989952326,,,,,,,,,,,,,,,2951,Moral,2024-07-10_11h31.41.380,MoralCondition_v2,2022.2.5,30.01106797049546,
2,0,2,0,4,0,4,0,,,,,,,,,,,,,,,,,,,,,,,,,,,,,,,,,,,,,,,,,,,,,,,,,,,,265.34445960074663,265.34445960074663,0.007593201473355293,0.11403490044176579,1.0,2.008015500381589,,,,,,,,,,,,,,,2951,Moral,2024-07-10_11h31.41.380,MoralCondition_v2,2022.2.5,30.01106797049546,
2,0,2,0,5,0,5,0,,,,,,,,,,,,,,,,,,,,,,,,,,,,,,,,,,,,,,,,,,,,,,,,,,,,267.3940890002996,267.3940890002996,0.008993599563837051,0.11593030020594597,3.0,1.807889599353075,,,,,,,,,,,,,,,2951,Moral,2024-07-10_11h31.41.380,MoralCondition_v2,2022.2.5,30.01106797049546,
2,0,2,0,6,0,6,0,,,,,,,,,,,,,,,,,,,,,,,,,,,,,,,,,,,,,,,,,,,,,,,,,,,,269.2273105997592,269.2273105997592,0.007853299379348755,0.09762910008430481,1.0,1.9912209007889032,,,,,,,,,,,,,,,2951,Moral,2024-07-10_11h31.41.380,MoralCondition_v2,2022.2.5,30.01106797049546,
2,0,2,0,,,,,,,,,,,,,,,,,,,,,,,,,,,,,,,,,,,,,,,,,,,,,,,,,,,,,,,,,,,,,,271.2607911005616,271.2607911005616,0.0013200994580984116,0.09753240086138248,4.0,15.797325300052762,,,,,,,,,2951,Moral,2024-07-10_11h31.41.380,MoralCondition_v2,2022.2.5,30.01106797049546,
3,0,3,0,0,0,0,0,,,,,,,,,,,,,,,,,,,,,,287.09414630010724,0.0002247001975774765,0.09790479950606823,293.0940492004156,6.031270999461412,293.294130301103,293.294130301103,0.09007779881358147,0.19794229976832867,6.031212700530887,299.39412970095873,299.39412970095873,299.39412970095873,0.0881798006594181,0.19797560013830662,305.0940863005817,305.29408750124276,6.031298400834203,6.13120529986918,311.2940760999918,12.03128970041871,311.41075560078025,311.41075560078025,0.014559600502252579,0.11455539986491203,up,0.6566484980285168,312.1107405014336,5.3200870752334595e-05,0.09772609919309616,318.12744970060885,318.12744970060885,0.009272599592804909,0.1143995001912117,3.0,7.506685400381684,,,,,,,311.37726460024714,311.37726460024714,318.12744970060885,299.29408800043166,299.29408800043166,,,,2951,Moral,2024-07-10_11h31.41.380,MoralCondition_v2,2022.2.5,30.01106797049546,
3,0,3,0,1,0,1,0,,,,,,,,,,,,,,,,,,,,,,,,,,,,,,,,,,,,,,,,,,,,,,,,,,,,325.66069089993834,325.66069089993834,0.007068900391459465,0.09806760028004646,1.0,1.5921989008784294,,,,,,,,,,,,,,,2951,Moral,2024-07-10_11h31.41.380,MoralCondition_v2,2022.2.5,30.01106797049546,
3,0,3,0,2,0,2,0,,,,,,,,,,,,,,,,,,,,,,,,,,,,,,,,,,,,,,,,,,,,,,,,,,,,327.2939009014517,327.2939009014517,0.00751739926636219,0.09804669953882694,2.0,3.2583665996789932,,,,,,,,,,,,,,,2951,Moral,2024-07-10_11h31.41.380,MoralCondition_v2,2022.2.5,30.01106797049546,
3,0,3,0,3,0,3,0,,,,,,,,,,,,,,,,,,,,,,,,,,,,,,,,,,,,,,,,,,,,,,,,,,,,330.59426799975336,330.59426799975336,0.007503600791096687,0.0978011004626751,1.0,1.2244298998266459,,,,,,,,,,,,,,,2951,Moral,2024-07-10_11h31.41.380,MoralCondition_v2,2022.2.5,30.01106797049546,
3,0,3,0,4,0,4,0,,,,,,,,,,,,,,,,,,,,,,,,,,,,,,,,,,,,,,,,,,,,,,,,,,,,331.8605787009001,331.8605787009001,0.007417898625135422,0.09788979962468147,1.0,1.95856149867177,,,,,,,,,,,,,,,2951,Moral,2024-07-10_11h31.41.380,MoralCondition_v2,2022.2.5,30.01106797049546,
3,0,3,0,5,0,5,0,,,,,,,,,,,,,,,,,,,,,,,,,,,,,,,,,,,,,,,,,,,,,,,,,,,,333.8605484999716,333.8605484999716,0.006805200129747391,0.09953169897198677,1.0,1.4601204004138708,,,,,,,,,,,,,,,2951,Moral,2024-07-10_11h31.41.380,MoralCondition_v2,2022.2.5,30.01106797049546,
3,0,3,0,6,0,6,0,,,,,,,,,,,,,,,,,,,,,,,,,,,,,,,,,,,,,,,,,,,,,,,,,,,,335.3776767998934,335.3776767998934,0.008878599852323532,0.11386219970881939,1.0,0.8727135993540287,,,,,,,,,,,,,,,2951,Moral,2024-07-10_11h31.41.380,MoralCondition_v2,2022.2.5,30.01106797049546,
3,0,3,0,,,,,,,,,,,,,,,,,,,,,,,,,,,,,,,,,,,,,,,,,,,,,,,,,,,,,,,,,,,,,,336.2774921003729,336.2774921003729,0.0013301987200975418,0.0976163987070322,4.0,1.9974329993128777,,,,,,,,,2951,Moral,2024-07-10_11h31.41.380,MoralCondition_v2,2022.2.5,30.01106797049546,
4,0,4,0,0,0,0,0,,,,,,,,,,,,,,,,,,,,,,338.3107043001801,0.000211300328373909,0.09798469953238964,344.3107310999185,6.031430799514055,344.5105796009302,344.5105796009302,0.09593009948730469,0.19809870049357414,6.031412599608302,350.61074110120535,350.61074110120535,350.61074110120535,0.08602309972047806,0.19858309999108315,356.3106223009527,356.5106522999704,6.0312879998236895,6.131402499973774,362.5109272003174,12.031535599380732,362.61067570000887,362.61067570000887,0.014450199902057648,0.09822720102965832,up,1.3689354993402958,364.04399510100484,4.780106246471405e-05,0.09781160019338131,370.0439018998295,370.0439018998295,0.010149599984288216,0.09748520143330097,1.0,2.42186869867146,,,,,,,362.59382020123303,362.59382020123303,370.0439018998295,350.5108462013304,350.5108462013304,,,,2951,Moral,2024-07-10_11h31.41.380,MoralCondition_v2,2022.2.5,30.01106797049546,
4,0,4,0,1,0,1,0,,,,,,,,,,,,,,,,,,,,,,,,,,,,,,,,,,,,,,,,,,,,,,,,,,,,372.51061110012233,372.51061110012233,0.006745599210262299,0.09919469989836216,1.0,2.5933324992656708,,,,,,,,,,,,,,,2951,Moral,2024-07-10_11h31.41.380,MoralCondition_v2,2022.2.5,30.01106797049546,
4,0,4,0,2,0,2,0,,,,,,,,,,,,,,,,,,,,,,,,,,,,,,,,,,,,,,,,,,,,,,,,,,,,375.1609498001635,375.1609498001635,0.008791200816631317,0.11431810073554516,3.0,4.139672400429845,,,,,,,,,,,,,,,2951,Moral,2024-07-10_11h31.41.380,MoralCondition_v2,2022.2.5,30.01106797049546,
4,0,4,0,3,0,3,0,,,,,,,,,,,,,,,,,,,,,,,,,,,,,,,,,,,,,,,,,,,,,,,,,,,,379.3271572012454,379.3271572012454,0.007224999368190765,0.09788619913160801,5.0,3.0250222999602556,,,,,,,,,,,,,,,2951,Moral,2024-07-10_11h31.41.380,MoralCondition_v2,2022.2.5,30.01106797049546,
4,0,4,0,4,0,4,0,,,,,,,,,,,,,,,,,,,,,,,,,,,,,,,,,,,,,,,,,,,,,,,,,,,,382.3939565010369,382.3939565010369,0.006500300019979477,0.09925080090761185,1.0,2.0609523002058268,,,,,,,,,,,,,,,2951,Moral,2024-07-10_11h31.41.380,MoralCondition_v2,2022.2.5,30.01106797049546,
4,0,4,0,5,0,5,0,,,,,,,,,,,,,,,,,,,,,,,,,,,,,,,,,,,,,,,,,,,,,,,,,,,,384.4939282014966,384.4939282014966,0.0064924005419015884,0.09929840080440044,1.0,1.327183399349451,,,,,,,,,,,,,,,2951,Moral,2024-07-10_11h31.41.380,MoralCondition_v2,2022.2.5,30.01106797049546,
4,0,4,0,6,0,6,0,,,,,,,,,,,,,,,,,,,,,,,,,,,,,,,,,,,,,,,,,,,,,,,,,,,,385.86063290014863,385.86063290014863,0.0075968001037836075,0.09757919982075691,4.0,4.857718901708722,,,,,,,,,,,,,,,2951,Moral,2024-07-10_11h31.41.380,MoralCondition_v2,2022.2.5,30.01106797049546,
4,0,4,0,,,,,,,,,,,,,,,,,,,,,,,,,,,,,,,,,,,,,,,,,,,,,,,,,,,,,,,,,,,,,,390.76068670116365,390.76068670116365,0.0014226008206605911,0.09746310114860535,4.0,10.26397450082004,,,,,,,,,2951,Moral,2024-07-10_11h31.41.380,MoralCondition_v2,2022.2.5,30.01106797049546,
5,0,5,0,0,0,0,0,,,,,,,,,,,,,,,,,,,,,,401.0608532000333,0.0004345998167991638,0.09782120026648045,407.0604851003736,6.014429800212383,407.26072159968317,407.26072159968317,0.09738410077989101,0.19780030101537704,6.0312201995402575,413.36073580011725,413.36073580011725,413.36073580011725,0.08757340162992477,0.19792820140719414,419.0608965009451,419.2605783008039,6.031269900500774,6.13111050054431,425.2605381999165,12.031167199835181,425.3938464000821,425.3938464000821,0.03140540048480034,0.13117660023272038,down,0.9620453994721174,426.3938755001873,3.889948129653931e-05,0.0982481986284256,432.4104177001864,432.4104177001864,0.025247499346733093,0.11447019875049591,5.0,2.6239776015281677,,,,,,,425.3605311997235,425.3605311997235,,413.26054940000176,413.26054940000176,6.097801899537444,,,2951,Moral,2024-07-10_11h31.41.380,MoralCondition_v2,2022.2.5,30.01106797049546,
5,0,5,0,1,0,1,0,,,,,,,,,,,,,,,,,,,,,,,,,,,,,,,,,,,,,,,,,,,,,,,,,,,,435.07701870054007,435.07701870054007,0.006618799641728401,0.09926380030810833,6.0,2.693937599658966,,,,,,,,,,,,,,,2951,Moral,2024-07-10_11h31.41.380,MoralCondition_v2,2022.2.5,30.01106797049546,
5,0,5,0,2,0,2,0,,,,,,,,,,,,,,,,,,,,,,,,,,,,,,,,,,,,,,,,,,,,,,,,,,,,437.8105528000742,437.8105528000742,0.007666800171136856,0.09937559999525547,3.0,2.1593043003231287,,,,,,,,,,,,,,,2951,Moral,2024-07-10_11h31.41.380,MoralCondition_v2,2022.2.5,30.01106797049546,
5,0,5,0,3,0,3,0,,,,,,,,,,,,,,,,,,,,,,,,,,,,,,,,,,,,,,,,,,,,,,,,,,,,440.0109657999128,440.0109657999128,0.008719800040125847,0.09730049967765808,1.0,2.1895321011543274,,,,,,,,,,,,,,,2951,Moral,2024-07-10_11h31.41.380,MoralCondition_v2,2022.2.5,30.01106797049546,
5,0,5,0,4,0,4,0,,,,,,,,,,,,,,,,,,,,,,,,,,,,,,,,,,,,,,,,,,,,,,,,,,,,442.24369500018656,442.24369500018656,0.006808500736951828,0.09882939979434013,1.0,2.2598704006522894,,,,,,,,,,,,,,,2951,Moral,2024-07-10_11h31.41.380,MoralCondition_v2,2022.2.5,30.01106797049546,
5,0,5,0,5,0,5,0,,,,,,,,,,,,,,,,,,,,,,,,,,,,,,,,,,,,,,,,,,,,,,,,,,,,444.5607131998986,444.5607131998986,0.009351499378681183,0.1147369984537363,1.0,1.1397991999983788,,,,,,,,,,,,,,,2951,Moral,2024-07-10_11h31.41.380,MoralCondition_v2,2022.2.5,30.01106797049546,
5,0,5,0,6,0,6,0,,,,,,,,,,,,,,,,,,,,,,,,,,,,,,,,,,,,,,,,,,,,,,,,,,,,445.7271087002009,445.7271087002009,0.0068947989493608475,0.09905599988996983,6.0,2.193240398541093,,,,,,,,,,,,,,,2951,Moral,2024-07-10_11h31.41.380,MoralCondition_v2,2022.2.5,30.01106797049546,
5,0,5,0,,,,,,,,,,,,,,,,,,,,,,,,,,,,,,,,,,,,,,,,,,,,,,,,,,,,,,,,,,,,,,447.9605451002717,447.9605451002717,0.0014329999685287476,0.09750720113515854,4.0,5.59740929864347,,,,,,,,,2951,Moral,2024-07-10_11h31.41.380,MoralCondition_v2,2022.2.5,30.01106797049546,
6,0,6,0,0,0,0,0,,,,,,,,,,,,,,,,,,,,,,453.5942927002907,0.0004905983805656433,0.09768729843199253,459.5937665011734,6.030827298760414,459.77727030031383,459.77727030031383,0.06828139908611774,0.18093529902398586,6.014324700459838,465.877056600526,465.877056600526,465.877056600526,0.0716497004032135,0.18086340092122555,471.5773457996547,471.7770991008729,6.01419229991734,6.114101899787784,477.77707970142365,12.014152800664306,477.91038330085576,477.91038330085576,0.014151200652122498,0.11406829953193665,up,1.3498676996678114,479.3104101009667,5.1001086831092834e-05,0.0980595014989376,485.34374380111694,485.34374380111694,0.025682900100946426,0.1315832007676363,1.0,3.10683579929173,,,,,,,477.86027240008116,477.86027240008116,,465.7774211000651,465.7774211000651,,,,2951,Moral,2024-07-10_11h31.41.380,MoralCondition_v2,2022.2.5,30.01106797049546,
6,0,6,0,1,0,1,0,,,,,,,,,,,,,,,,,,,,,,,,,,,,,,,,,,,,,,,,,,,,,,,,,,,,488.47687270119786,488.47687270119786,0.00750650092959404,0.0992962010204792,4.0,2.125925099477172,,,,,,,,,,,,,,,2951,Moral,2024-07-10_11h31.41.380,MoralCondition_v2,2022.2.5,30.01106797049546,
6,0,6,0,2,0,2,0,,,,,,,,,,,,,,,,,,,,,,,,,,,,,,,,,,,,,,,,,,,,,,,,,,,,490.6606924999505,490.6606924999505,0.009085200726985931,0.11530140042304993,1.0,1.3071018997579813,,,,,,,,,,,,,,,2951,Moral,2024-07-10_11h31.41.380,MoralCondition_v2,2022.2.5,30.01106797049546,
6,0,6,0,3,0,3,0,,,,,,,,,,,,,,,,,,,,,,,,,,,,,,,,,,,,,,,,,,,,,,,,,,,,491.99361880123615,491.99361880123615,0.006597800180315971,0.0980932004749775,1.0,0.8927688002586365,,,,,,,,,,,,,,,2951,Moral,2024-07-10_11h31.41.380,MoralCondition_v2,2022.2.5,30.01106797049546,
6,0,6,0,4,0,4,0,,,,,,,,,,,,,,,,,,,,,,,,,,,,,,,,,,,,,,,,,,,,,,,,,,,,492.9439531005919,492.9439531005919,0.00809989869594574,0.11408739909529686,1.0,0.7403311002999544,,,,,,,,,,,,,,,2951,Moral,2024-07-10_11h31.41.380,MoralCondition_v2,2022.2.5,30.01106797049546,
6,0,6,0,5,0,5,0,,,,,,,,,,,,,,,,,,,,,,,,,,,,,,,,,,,,,,,,,,,,,,,,,,,,493.7101833000779,493.7101833000779,0.007482100278139114,0.09741120040416718,5.0,3.891082299873233,,,,,,,,,,,,,,,2951,Moral,2024-07-10_11h31.41.380,MoralCondition_v2,2022.2.5,30.01106797049546,
6,0,6,0,6,0,6,0,,,,,,,,,,,,,,,,,,,,,,,,,,,,,,,,,,,,,,,,,,,,,,,,,,,,497.64349500089884,497.64349500089884,0.007351299747824669,0.0978143997490406,3.0,2.4914625007659197,,,,,,,,,,,,,,,2951,Moral,2024-07-10_11h31.41.380,MoralCondition_v2,2022.2.5,30.01106797049546,
6,0,6,0,,,,,,,,,,,,,,,,,,,,,,,,,,,,,,,,,,,,,,,,,,,,,,,,,,,,,,,,,,,,,,500.1772298011929,500.1772298011929,0.001483200117945671,0.09737430140376091,4.0,8.397009700536728,,,,,,,,,2951,Moral,2024-07-10_11h31.41.380,MoralCondition_v2,2022.2.5,30.01106797049546,
7,0,7,0,0,0,0,0,,,,,,,,,,,,,,,,,,,,,,508.6106209997088,0.0001414995640516281,0.09965959936380386,514.6103070005774,5.9990868996828794,514.77686320059,514.77686320059,0.05416079983115196,0.16576609946787357,5.9994006007909775,520.8771441001445,520.8771441001445,520.8771441001445,0.050856299698352814,0.16584059968590736,526.5769095998257,526.8103641998023,5.999055599793792,6.099130200222135,532.8102283999324,11.999085599556565,532.9102293010801,532.9102293010801,-4.759989678859711e-05,0.09906109981238842,up,0.5655608978122473,533.5102134998888,4.780106246471405e-05,0.09757690131664276,539.5267501007766,539.5267501007766,0.02546350099146366,0.1143386997282505,6.0,3.0565108992159367,,,,,,,532.8768883012235,532.8768883012235,,520.7771135009825,520.7771135009825,6.099086798727512,6.099320400506258,12.099087201058865,2951,Moral,2024-07-10_11h31.41.380,MoralCondition_v2,2022.2.5,30.01106797049546,
7,0,7,0,1,0,1,0,,,,,,,,,,,,,,,,,,,,,,,,,,,,,,,,,,,,,,,,,,,,,,,,,,,,542.6270554997027,542.6270554997027,0.006866000592708588,0.09892269968986511,2.0,1.8265681006014347,,,,,,,,,,,,,,,2951,Moral,2024-07-10_11h31.41.380,MoralCondition_v2,2022.2.5,30.01106797049546,
7,0,7,0,2,0,2,0,,,,,,,,,,,,,,,,,,,,,,,,,,,,,,,,,,,,,,,,,,,,,,,,,,,,544.5104419011623,544.5104419011623,0.007891900837421417,0.11419679969549179,1.0,1.0739110000431538,,,,,,,,,,,,,,,2951,Moral,2024-07-10_11h31.41.380,MoralCondition_v2,2022.2.5,30.01106797049546,
7,0,7,0,3,0,3,0,,,,,,,,,,,,,,,,,,,,,,,,,,,,,,,,,,,,,,,,,,,,,,,,,,,,545.6270625013858,545.6270625013858,0.007703300565481186,0.1142142005264759,1.0,1.9410119000822306,,,,,,,,,,,,,,,2951,Moral,2024-07-10_11h31.41.380,MoralCondition_v2,2022.2.5,30.01106797049546,
7,0,7,0,4,0,4,0,,,,,,,,,,,,,,,,,,,,,,,,,,,,,,,,,,,,,,,,,,,,,,,,,,,,547.5935303010046,547.5935303010046,0.006775699555873871,0.09914059937000275,1.0,5.4607204999774694,,,,,,,,,,,,,,,2951,Moral,2024-07-10_11h31.41.380,MoralCondition_v2,2022.2.5,30.01106797049546,
7,0,7,0,5,0,5,0,,,,,,,,,,,,,,,,,,,,,,,,,,,,,,,,,,,,,,,,,,,,,,,,,,,,553.0934610012919,553.0934610012919,0.006612399592995644,0.09884720109403133,3.0,1.7932523004710674,,,,,,,,,,,,,,,2951,Moral,2024-07-10_11h31.41.380,MoralCondition_v2,2022.2.5,30.01106797049546,
7,0,7,0,6,0,6,0,,,,,,,,,,,,,,,,,,,,,,,,,,,,,,,,,,,,,,,,,,,,,,,,,,,,554.9435320012271,554.9435320012271,0.00784279964864254,0.11369560100138187,2.0,1.9405349008738995,,,,,,,,,,,,,,,2951,Moral,2024-07-10_11h31.41.380,MoralCondition_v2,2022.2.5,30.01106797049546,
7,0,7,0,,,,,,,,,,,,,,,,,,,,,,,,,,,,,,,,,,,,,,,,,,,,,,,,,,,,,,,,,,,,,,556.9103660006076,556.9103660006076,0.0007348991930484772,0.09920449927449226,4.0,12.166150100529194,,,,,,,,,2951,Moral,2024-07-10_11h31.41.380,MoralCondition_v2,2022.2.5,30.01106797049546,
8,0,8,0,0,0,0,0,,,,,,,,,,,,,,,,,,,,,,569.1101692002267,0.000300699844956398,0.09784699976444244,575.0933309998363,6.014251600950956,575.2770090997219,575.2770090997219,0.05036030150949955,0.16428340040147305,6.031071700155735,581.4099468011409,581.4099468011409,581.4099468011409,0.08585150167346,0.19764690101146698,587.1100559011102,587.3100550007075,6.031107001006603,6.130870800465345,593.3100509010255,12.031051902100444,593.4433227013797,593.4433227013797,0.03125670179724693,0.13100320100784302,down,0.9124333001673222,594.3933472000062,4.00003045797348e-05,0.09774460084736347,600.4098273012787,600.4098273012787,0.026442499831318855,0.11458740010857582,2.0,1.4557539001107216,,,,,,,593.4100708011538,593.4100708011538,,581.2767229005694,581.2767229005694,6.09757830016315,,,2951,Moral,2024-07-10_11h31.41.380,MoralCondition_v2,2022.2.5,30.01106797049546,
8,0,8,0,1,0,1,0,,,,,,,,,,,,,,,,,,,,,,,,,,,,,,,,,,,,,,,,,,,,,,,,,,,,601.910109501332,601.910109501332,0.007344599813222885,0.09765210002660751,2.0,1.7909626998007298,,,,,,,,,,,,,,,2951,Moral,2024-07-10_11h31.41.380,MoralCondition_v2,2022.2.5,30.01106797049546,
8,0,8,0,2,0,2,0,,,,,,,,,,,,,,,,,,,,,,,,,,,,,,,,,,,,,,,,,,,,,,,,,,,,603.7431298997253,603.7431298997253,0.006538299843668938,0.09942059963941574,2.0,0.8611644003540277,,,,,,,,,,,,,,,2951,Moral,2024-07-10_11h31.41.380,MoralCondition_v2,2022.2.5,30.01106797049546,
8,0,8,0,3,0,3,0,,,,,,,,,,,,,,,,,,,,,,,,,,,,,,,,,,,,,,,,,,,,,,,,,,,,604.6601766012609,604.6601766012609,0.008062001317739487,0.11442330107092857,6.0,2.8081404995173216,,,,,,,,,,,,,,,2951,Moral,2024-07-10_11h31.41.380,MoralCondition_v2,2022.2.5,30.01106797049546,
8,0,8,0,4,0,4,0,,,,,,,,,,,,,,,,,,,,,,,,,,,,,,,,,,,,,,,,,,,,,,,,,,,,607.4933938011527,607.4933938011527,0.006991898640990257,0.0981615986675024,2.0,1.225255100056529,,,,,,,,,,,,,,,2951,Moral,2024-07-10_11h31.41.380,MoralCondition_v2,2022.2.5,30.01106797049546,
8,0,8,0,5,0,5,0,,,,,,,,,,,,,,,,,,,,,,,,,,,,,,,,,,,,,,,,,,,,,,,,,,,,608.7599808014929,608.7599808014929,0.008764199912548065,0.09772649966180325,4.0,1.3565459996461868,,,,,,,,,,,,,,,2951,Moral,2024-07-10_11h31.41.380,MoralCondition_v2,2022.2.5,30.01106797049546,
8,0,8,0,6,0,6,0,,,,,,,,,,,,,,,,,,,,,,,,,,,,,,,,,,,,,,,,,,,,,,,,,,,,610.1768281999975,610.1768281999975,0.007997499778866768,0.1143479011952877,6.0,1.9737712014466524,,,,,,,,,,,,,,,2951,Moral,2024-07-10_11h31.41.380,MoralCondition_v2,2022.2.5,30.01106797049546,
8,0,8,0,,,,,,,,,,,,,,,,,,,,,,,,,,,,,,,,,,,,,,,,,,,,,,,,,,,,,,,,,,,,,,612.1764459013939,612.1764459013939,0.0020738989114761353,0.09718409925699234,4.0,1.696389701217413,,,,,,,,,2951,Moral,2024-07-10_11h31.41.380,MoralCondition_v2,2022.2.5,30.01106797049546,
9,0,9,0,0,0,0,0,,,,,,,,,,,,,,,,,,,,,,613.9099425002933,0.0006041005253791809,0.09730450063943863,619.9265630003065,6.014038700610399,620.0935152005404,620.0935152005404,0.07066800072789192,0.18097250163555145,6.013919301331043,626.1930519007146,626.1930519007146,626.1930519007146,0.0695745013654232,0.1805772017687559,631.8932149000466,632.093189900741,6.0139646008610725,6.1139221005141735,638.0931766014546,12.013936402276158,638.226533100009,638.226533100009,0.014216002076864243,0.11388450115919113,up,0.41773249953985214,638.6932251006365,5.2599236369132996e-05,0.09783630073070526,644.7267972007394,644.7267972007394,0.025631200522184372,0.1313570998609066,1.0,2.1067209001630545,,,,,,,638.193298401311,638.193298401311,,626.0932652000338,626.0932652000338,,,,2951,Moral,2024-07-10_11h31.41.380,MoralCondition_v2,2022.2.5,30.01106797049546,
9,0,9,0,1,0,1,0,,,,,,,,,,,,,,,,,,,,,,,,,,,,,,,,,,,,,,,,,,,,,,,,,,,,646.8768651001155,646.8768651001155,0.008959099650382996,0.11486189998686314,5.0,1.4071031995117664,,,,,,,,,,,,,,,2951,Moral,2024-07-10_11h31.41.380,MoralCondition_v2,2022.2.5,30.01106797049546,
9,0,9,0,2,0,2,0,,,,,,,,,,,,,,,,,,,,,,,,,,,,,,,,,,,,,,,,,,,,,,,,,,,,648.3100222013891,648.3100222013891,0.007129700854420662,0.09807980060577393,4.0,3.058467699214816,,,,,,,,,,,,,,,2951,Moral,2024-07-10_11h31.41.380,MoralCondition_v2,2022.2.5,30.01106797049546,
9,0,9,0,3,0,3,0,,,,,,,,,,,,,,,,,,,,,,,,,,,,,,,,,,,,,,,,,,,,,,,,,,,,651.4098358005285,651.4098358005285,0.007264399901032448,0.09801780059933662,2.0,1.6584462989121675,,,,,,,,,,,,,,,2951,Moral,2024-07-10_11h31.41.380,MoralCondition_v2,2022.2.5,30.01106797049546,
9,0,9,0,4,0,4,0,,,,,,,,,,,,,,,,,,,,,,,,,,,,,,,,,,,,,,,,,,,,,,,,,,,,653.1097391005605,653.1097391005605,0.006949799135327339,0.09811210073530674,2.0,1.125729100778699,,,,,,,,,,,,,,,2951,Moral,2024-07-10_11h31.41.380,MoralCondition_v2,2022.2.5,30.01106797049546,
9,0,9,0,5,0,5,0,,,,,,,,,,,,,,,,,,,,,,,,,,,,,,,,,,,,,,,,,,,,,,,,,,,,654.2765574008226,654.2765574008226,0.006509499624371529,0.09934759885072708,5.0,2.493811199441552,,,,,,,,,,,,,,,2951,Moral,2024-07-10_11h31.41.380,MoralCondition_v2,2022.2.5,30.01106797049546,
9,0,9,0,6,0,6,0,,,,,,,,,,,,,,,,,,,,,,,,,,,,,,,,,,,,,,,,,,,,,,,,,,,,656.8096880000085,656.8096880000085,0.006800100207328796,0.09941830113530159,3.0,3.5935095995664597,,,,,,,,,,,,,,,2951,Moral,2024-07-10_11h31.41.380,MoralCondition_v2,2022.2.5,30.01106797049546,
9,0,9,0,,,,,,,,,,,,,,,,,,,,,,,,,,,,,,,,,,,,,,,,,,,,,,,,,,,,,,,,,,,,,,660.443325901404,660.443325901404,0.0013725999742746353,0.0983275007456541,4.0,1.4979989994317293,,,,,,,,,2951,Moral,2024-07-10_11h31.41.380,MoralCondition_v2,2022.2.5,30.01106797049546,
10,0,10,0,0,0,0,0,,,,,,,,,,,,,,,,,,,,,,661.9764409996569,0.00037739984691143036,0.09731760062277317,667.9764409009367,6.03066680021584,668.1764847002923,668.1764847002923,0.09390030056238174,0.1974986009299755,6.030593700706959,674.2767168004066,674.2767168004066,674.2767168004066,0.09075780212879181,0.19732180051505566,679.9763783011585,680.1763949003071,6.030603300780058,6.130549902096391,686.1764484010637,12.030648801475763,686.3097248002887,686.3097248002887,0.030799802392721176,0.13052450120449066,up,2.4778466001152992,688.8265260010958,2.4499371647834778e-05,0.09881450049579144,694.826690601185,694.826690601185,0.007879599928855896,0.09861529991030693,2.0,2.3252319004386663,,,,,,,686.2763443998992,686.2763443998992,694.826690601185,674.1764417011291,674.1764417011291,,,,2951,Moral,2024-07-10_11h31.41.380,MoralCondition_v2,2022.2.5,30.01106797049546,
10,0,10,0,1,0,1,0,,,,,,,,,,,,,,,,,,,,,,,,,,,,,,,,,,,,,,,,,,,,,,,,,,,,697.1929890997708,697.1929890997708,0.007846999913454056,0.09755609929561615,6.0,2.890652200207114,,,,,,,,,,,,,,,2951,Moral,2024-07-10_11h31.41.380,MoralCondition_v2,2022.2.5,30.01106797049546,
10,0,10,0,2,0,2,0,,,,,,,,,,,,,,,,,,,,,,,,,,,,,,,,,,,,,,,,,,,,,,,,,,,,700.1264002006501,700.1264002006501,0.008399799466133118,0.09750030003488064,3.0,2.0566606000065804,,,,,,,,,,,,,,,2951,Moral,2024-07-10_11h31.41.380,MoralCondition_v2,2022.2.5,30.01106797049546,
10,0,10,0,3,0,3,0,,,,,,,,,,,,,,,,,,,,,,,,,,,,,,,,,,,,,,,,,,,,,,,,,,,,702.2265761010349,702.2265761010349,0.006913499906659126,0.09928440116345882,3.0,2.060699600726366,,,,,,,,,,,,,,,2951,Moral,2024-07-10_11h31.41.380,MoralCondition_v2,2022.2.5,30.01106797049546,
10,0,10,0,4,0,4,0,,,,,,,,,,,,,,,,,,,,,,,,,,,,,,,,,,,,,,,,,,,,,,,,,,,,704.3266053013504,704.3266053013504,0.007051900029182434,0.09811050072312355,4.0,1.592034500092268,,,,,,,,,,,,,,,2951,Moral,2024-07-10_11h31.41.380,MoralCondition_v2,2022.2.5,30.01106797049546,
10,0,10,0,5,0,5,0,,,,,,,,,,,,,,,,,,,,,,,,,,,,,,,,,,,,,,,,,,,,,,,,,,,,705.9595552999526,705.9595552999526,0.007739899680018425,0.09768250025808811,1.0,1.3910463005304337,,,,,,,,,,,,,,,2951,Moral,2024-07-10_11h31.41.380,MoralCondition_v2,2022.2.5,30.01106797049546,
10,0,10,0,6,0,6,0,,,,,,,,,,,,,,,,,,,,,,,,,,,,,,,,,,,,,,,,,,,,,,,,,,,,707.39301360026,707.39301360026,0.007591798901557922,0.09848949871957302,1.0,1.7924816999584436,,,,,,,,,,,,,,,2951,Moral,2024-07-10_11h31.41.380,MoralCondition_v2,2022.2.5,30.01106797049546,
10,0,10,0,,,,,,,,,,,,,,,,,,,,,,,,,,,,,,,,,,,,,,,,,,,,,,,,,,,,,,,,,,,,,,709.2261861003935,709.2261861003935,0.000545799732208252,0.09924010001122952,4.0,3.267288401722908,,,,,,,,,2951,Moral,2024-07-10_11h31.41.380,MoralCondition_v2,2022.2.5,30.01106797049546,
11,0,11,0,0,0,0,0,,,,,,,,,,,,,,,,,,,,,,712.5264791008085,0.0002810005098581314,0.0978011004626751,718.5263066999614,6.0311862006783485,718.7263046000153,718.7263046000153,0.08759160153567791,0.1979932002723217,6.0311351008713245,724.826525401324,724.826525401324,724.826525401324,0.0881091021001339,0.19773010164499283,730.5262165013701,730.7262495998293,6.031049702316523,6.130952801555395,736.726167300716,12.030965501442552,736.8595324996859,736.8595324996859,0.031262701377272606,0.13083250261843204,down,0.8647818006575108,737.7595435008407,3.629922866821289e-05,0.09754139930009842,743.7762599997222,743.7762599997222,0.02127249911427498,0.11414549872279167,6.0,3.060945600271225,,,,,,,736.826282300055,736.826282300055,,724.7262313012034,724.7262313012034,,,,2951,Moral,2024-07-10_11h31.41.380,MoralCondition_v2,2022.2.5,30.01106797049546,
11,0,11,0,1,0,1,0,,,,,,,,,,,,,,,,,,,,,,,,,,,,,,,,,,,,,,,,,,,,,,,,,,,,746.8762766011059,746.8762766011059,0.008124800398945808,0.09768930077552795,6.0,1.123802401125431,,,,,,,,,,,,,,,2951,Moral,2024-07-10_11h31.41.380,MoralCondition_v2,2022.2.5,30.01106797049546,
11,0,11,0,2,0,2,0,,,,,,,,,,,,,,,,,,,,,,,,,,,,,,,,,,,,,,,,,,,,,,,,,,,,748.0594600010663,748.0594600010663,0.008215699344873428,0.11403520032763481,3.0,2.540129801258445,,,,,,,,,,,,,,,2951,Moral,2024-07-10_11h31.41.380,MoralCondition_v2,2022.2.5,30.01106797049546,
11,0,11,0,3,0,3,0,,,,,,,,,,,,,,,,,,,,,,,,,,,,,,,,,,,,,,,,,,,,,,,,,,,,750.6430878005922,750.6430878005922,0.00876769982278347,0.1145734004676342,1.0,2.9401031006127596,,,,,,,,,,,,,,,2951,Moral,2024-07-10_11h31.41.380,MoralCondition_v2,2022.2.5,30.01106797049546,
11,0,11,0,4,0,4,0,,,,,,,,,,,,,,,,,,,,,,,,,,,,,,,,,,,,,,,,,,,,,,,,,,,,753.6093675009906,753.6093675009906,0.0060773007571697235,0.09919860027730465,1.0,1.8608413003385067,,,,,,,,,,,,,,,2951,Moral,2024-07-10_11h31.41.380,MoralCondition_v2,2022.2.5,30.01106797049546,
11,0,11,0,5,0,5,0,,,,,,,,,,,,,,,,,,,,,,,,,,,,,,,,,,,,,,,,,,,,,,,,,,,,755.5096051003784,755.5096051003784,0.006534600630402565,0.098819300532341,5.0,1.6934136990457773,,,,,,,,,,,,,,,2951,Moral,2024-07-10_11h31.41.380,MoralCondition_v2,2022.2.5,30.01106797049546,
11,0,11,0,6,0,6,0,,,,,,,,,,,,,,,,,,,,,,,,,,,,,,,,,,,,,,,,,,,,,,,,,,,,757.2427347004414,757.2427347004414,0.006504299119114876,0.0992238000035286,5.0,1.59363180026412,,,,,,,,,,,,,,,2951,Moral,2024-07-10_11h31.41.380,MoralCondition_v2,2022.2.5,30.01106797049546,
11,0,11,0,,,,,,,,,,,,,,,,,,,,,,,,,,,,,,,,,,,,,,,,,,,,,,,,,,,,,,,,,,,,,,758.8763104006648,758.8763104006648,0.0012462995946407318,0.09791329875588417,3.0,5.164483699947596,,,,,,,,,2951,Moral,2024-07-10_11h31.41.380,MoralCondition_v2,2022.2.5,30.01106797049546,
12,0,12,0,0,0,0,0,,,,,,,,,,,,,,,,,,,,,,764.0764787010849,0.00027769990265369415,0.09773880057036877,770.0929252002388,6.01454390026629,770.2592683006078,770.2592683006078,0.07058900035917759,0.18098139949142933,6.014318499714136,776.359634000808,776.359634000808,776.359634000808,0.0713427010923624,0.18118710070848465,782.0594113003463,782.2594071999192,6.014360100030899,6.1143974009901285,788.2593732010573,12.014342000707984,788.3926660008729,788.3926660008729,0.01445070095360279,0.11426020041108131,up,0.47558880038559437,788.9260438997298,4.3099746108055115e-05,0.09793019853532314,794.9426504001021,794.9426504001021,0.00920339860022068,0.11464949883520603,4.0,1.4068123009055853,,,,,,,788.3593329004943,788.3593329004943,794.9426504001021,776.259425200522,776.259425200522,,,,2951,Moral,2024-07-10_11h31.41.380,MoralCondition_v2,2022.2.5,30.01106797049546,
12,0,12,0,1,0,1,0,,,,,,,,,,,,,,,,,,,,,,,,,,,,,,,,,,,,,,,,,,,,,,,,,,,,796.392675600946,796.392675600946,0.009627001360058784,0.11412070132791996,1.0,1.072290500625968,,,,,,,,,,,,,,,2951,Moral,2024-07-10_11h31.41.380,MoralCondition_v2,2022.2.5,30.01106797049546,
12,0,12,0,2,0,2,0,,,,,,,,,,,,,,,,,,,,,,,,,,,,,,,,,,,,,,,,,,,,,,,,,,,,797.4924788009375,797.4924788009375,0.007547000423073769,0.09777529910206795,5.0,2.391508501023054,,,,,,,,,,,,,,,2951,Moral,2024-07-10_11h31.41.380,MoralCondition_v2,2022.2.5,30.01106797049546,
12,0,12,0,3,0,3,0,,,,,,,,,,,,,,,,,,,,,,,,,,,,,,,,,,,,,,,,,,,,,,,,,,,,799.9261445999146,799.9261445999146,0.006783198565244675,0.09880319982767105,1.0,4.159504599869251,,,,,,,,,,,,,,,2951,Moral,2024-07-10_11h31.41.380,MoralCondition_v2,2022.2.5,30.01106797049546,
12,0,12,0,4,0,4,0,,,,,,,,,,,,,,,,,,,,,,,,,,,,,,,,,,,,,,,,,,,,,,,,,,,,804.1258557010442,804.1258557010442,0.005828000605106354,0.09943700022995472,2.0,1.094760000705719,,,,,,,,,,,,,,,2951,Moral,2024-07-10_11h31.41.380,MoralCondition_v2,2022.2.5,30.01106797049546,
12,0,12,0,5,0,5,0,,,,,,,,,,,,,,,,,,,,,,,,,,,,,,,,,,,,,,,,,,,,,,,,,,,,805.2593646999449,805.2593646999449,0.007568499073386192,0.09786109998822212,1.0,1.0920209996402264,,,,,,,,,,,,,,,2951,Moral,2024-07-10_11h31.41.380,MoralCondition_v2,2022.2.5,30.01106797049546,
12,0,12,0,6,0,6,0,,,,,,,,,,,,,,,,,,,,,,,,,,,,,,,,,,,,,,,,,,,,,,,,,,,,806.3925363011658,806.3925363011658,0.007382599636912346,0.09796690009534359,3.0,1.9248837009072304,,,,,,,,,,,,,,,2951,Moral,2024-07-10_11h31.41.380,MoralCondition_v2,2022.2.5,30.01106797049546,
12,0,12,0,,,,,,,,,,,,,,,,,,,,,,,,,,,,,,,,,,,,,,,,,,,,,,,,,,,,,,,,,,,,,,808.3594527002424,808.3594527002424,0.0013305004686117172,0.09748160094022751,5.0,6.997314499691129,,,,,,,,,2951,Moral,2024-07-10_11h31.41.380,MoralCondition_v2,2022.2.5,30.01106797049546,
13,0,13,0,0,0,0,0,,,,,,,,,,,,,,,,,,,,,,815.3928808011115,0.0002383999526500702,0.09788919985294342,821.4092232007533,6.014655400067568,821.5759712010622,821.5759712010622,0.07023150101304054,0.18132100068032742,6.014478500932455,827.6761175002903,827.6761175002903,827.6761175002903,0.06811900064349174,0.1812469009310007,833.3758578002453,833.5758539009839,6.014519400894642,6.114500300958753,839.5758888013661,12.014554601162672,839.7091950010508,839.7091950010508,0.014688001945614815,0.11446160078048706,up,0.5269914995878935,840.2758475001901,4.409998655319214e-05,0.09767379984259605,846.2923197001219,846.2923197001219,0.0250008013099432,0.11408399976789951,6.0,1.6569328997284174,,,,,,,839.6758570000529,839.6758570000529,,827.5759083013982,827.5759083013982,,,,2951,Moral,2024-07-10_11h31.41.380,MoralCondition_v2,2022.2.5,30.01106797049546,
13,0,13,0,1,0,1,0,,,,,,,,,,,,,,,,,,,,,,,,,,,,,,,,,,,,,,,,,,,,,,,,,,,,848.0093927010894,848.0093927010894,0.008613299578428268,0.11475769989192486,2.0,1.3735102992504835,,,,,,,,,,,,,,,2951,Moral,2024-07-10_11h31.41.380,MoralCondition_v2,2022.2.5,30.01106797049546,
13,0,13,0,2,0,2,0,,,,,,,,,,,,,,,,,,,,,,,,,,,,,,,,,,,,,,,,,,,,,,,,,,,,849.4092691000551,849.4092691000551,0.009090898558497429,0.0981041993945837,1.0,0.9566104989498854,,,,,,,,,,,,,,,2951,Moral,2024-07-10_11h31.41.380,MoralCondition_v2,2022.2.5,30.01106797049546,
13,0,13,0,3,0,3,0,,,,,,,,,,,,,,,,,,,,,,,,,,,,,,,,,,,,,,,,,,,,,,,,,,,,850.4261093009263,850.4261093009263,0.008535901084542274,0.11437180079519749,2.0,1.206750798970461,,,,,,,,,,,,,,,2951,Moral,2024-07-10_11h31.41.380,MoralCondition_v2,2022.2.5,30.01106797049546,
13,0,13,0,4,0,4,0,,,,,,,,,,,,,,,,,,,,,,,,,,,,,,,,,,,,,,,,,,,,,,,,,,,,851.658937100321,851.658937100321,0.008518099784851074,0.09916839934885502,3.0,2.4592258017510176,,,,,,,,,,,,,,,2951,Moral,2024-07-10_11h31.41.380,MoralCondition_v2,2022.2.5,30.01106797049546,
13,0,13,0,5,0,5,0,,,,,,,,,,,,,,,,,,,,,,,,,,,,,,,,,,,,,,,,,,,,,,,,,,,,854.1760560013354,854.1760560013354,0.00913969986140728,0.11466339975595474,2.0,1.806471699848771,,,,,,,,,,,,,,,2951,Moral,2024-07-10_11h31.41.380,MoralCondition_v2,2022.2.5,30.01106797049546,
13,0,13,0,6,0,6,0,,,,,,,,,,,,,,,,,,,,,,,,,,,,,,,,,,,,,,,,,,,,,,,,,,,,856.0092433001846,856.0092433001846,0.006559601053595543,0.09904600121080875,2.0,2.3938033003360033,,,,,,,,,,,,,,,2951,Moral,2024-07-10_11h31.41.380,MoralCondition_v2,2022.2.5,30.01106797049546,
13,0,13,0,,,,,,,,,,,,,,,,,,,,,,,,,,,,,,,,,,,,,,,,,,,,,,,,,,,,,,,,,,,,,,858.4426448009908,858.4426448009908,0.002148600295186043,0.09745669923722744,5.0,5.96324129961431,,,,,,,,,2951,Moral,2024-07-10_11h31.41.380,MoralCondition_v2,2022.2.5,30.01106797049546,
14,0,14,0,0,0,0,0,,,,,,,,,,,,,,,,,,,,,,864.442479500547,0.0001346990466117859,0.09912060014903545,870.4590626005083,6.015685299411416,870.6257243007421,870.6257243007421,0.08016980066895485,0.18254229985177517,6.015699999406934,876.7256569005549,876.7256569005549,876.7256569005549,0.07692060060799122,0.1826306004077196,882.42591150105,882.6256713997573,6.015708299353719,6.115894300863147,888.6256394013762,12.015689199790359,888.75897349976,888.75897349976,0.015718700364232063,0.11562729999423027,down,18.988459499552846,907.8089121002704,5.359947681427002e-05,0.09786379896104336,913.825681000948,913.825681000948,0.00885079987347126,0.11453549936413765,5.0,2.306724101305008,,,,,,,888.7255990002304,888.7255990002304,913.825681000948,876.6256173998117,876.6256173998117,,,,2951,Moral,2024-07-10_11h31.41.380,MoralCondition_v2,2022.2.5,30.01106797049546,
14,0,14,0,1,0,1,0,,,,,,,,,,,,,,,,,,,,,,,,,,,,,,,,,,,,,,,,,,,,,,,,,,,,916.1757791005075,916.1757791005075,0.007497899234294891,0.11436169967055321,2.0,1.2743762992322445,,,,,,,,,,,,,,,2951,Moral,2024-07-10_11h31.41.380,MoralCondition_v2,2022.2.5,30.01106797049546,
14,0,14,0,2,0,2,0,,,,,,,,,,,,,,,,,,,,,,,,,,,,,,,,,,,,,,,,,,,,,,,,,,,,917.4924232009798,917.4924232009798,0.008136600255966187,0.11459119990468025,6.0,1.4741024002432823,,,,,,,,,,,,,,,2951,Moral,2024-07-10_11h31.41.380,MoralCondition_v2,2022.2.5,30.01106797049546,
14,0,14,0,3,0,3,0,,,,,,,,,,,,,,,,,,,,,,,,,,,,,,,,,,,,,,,,,,,,,,,,,,,,918.9922136999667,918.9922136999667,0.008151300251483917,0.09832489863038063,2.0,1.524482000619173,,,,,,,,,,,,,,,2951,Moral,2024-07-10_11h31.41.380,MoralCondition_v2,2022.2.5,30.01106797049546,
14,0,14,0,4,0,4,0,,,,,,,,,,,,,,,,,,,,,,,,,,,,,,,,,,,,,,,,,,,,,,,,,,,,920.5588750001043,920.5588750001043,0.008405100554227829,0.09773929975926876,6.0,1.4903475996106863,,,,,,,,,,,,,,,2951,Moral,2024-07-10_11h31.41.380,MoralCondition_v2,2022.2.5,30.01106797049546,
14,0,14,0,5,0,5,0,,,,,,,,,,,,,,,,,,,,,,,,,,,,,,,,,,,,,,,,,,,,,,,,,,,,922.1089805997908,922.1089805997908,0.008143000304698944,0.11461880058050156,2.0,3.1078854016959667,,,,,,,,,,,,,,,2951,Moral,2024-07-10_11h31.41.380,MoralCondition_v2,2022.2.5,30.01106797049546,
14,0,14,0,6,0,6,0,,,,,,,,,,,,,,,,,,,,,,,,,,,,,,,,,,,,,,,,,,,,,,,,,,,,925.242169700563,925.242169700563,0.006524199619889259,0.09897569939494133,6.0,4.826777199283242,,,,,,,,,,,,,,,2951,Moral,2024-07-10_11h31.41.380,MoralCondition_v2,2022.2.5,30.01106797049546,
14,0,14,0,,,,,,,,,,,,,,,,,,,,,,,,,,,,,,,,,,,,,,,,,,,,,,,,,,,,,,,,,,,,,,930.1089591011405,930.1089591011405,0.0016267001628875732,0.09752219915390015,3.0,4.297059299424291,,,,,,,,,2951,Moral,2024-07-10_11h31.41.380,MoralCondition_v2,2022.2.5,30.01106797049546,
15,0,15,0,0,0,0,0,,,,,,,,,,,,,,,,,,,,,,934.4424345009029,0.0002813003957271576,0.09822640009224415,940.4421443007886,6.031480500474572,940.6424030996859,940.6424030996859,0.08597920089960098,0.19823390059173107,6.031231300905347,946.7423525005579,946.7423525005579,946.7423525005579,0.08734900131821632,0.19805500097572803,952.4421092998236,952.6420799996704,6.0313978008925915,6.131381900981069,958.6420430000871,12.03137650154531,958.7754025012255,958.7754025012255,0.03152170218527317,0.13138140179216862,up,1.2282663993537426,960.0588258001953,4.2499974370002747e-05,0.09789790026843548,966.0586243011057,966.0586243011057,0.009956799447536469,0.09807199984788895,2.0,2.4892608989030123,,,,,,,958.742037801072,958.742037801072,966.0586243011057,946.6421086005867,946.6421086005867,,,,2951,Moral,2024-07-10_11h31.41.380,MoralCondition_v2,2022.2.5,30.01106797049546,
15,0,15,0,1,0,1,0,,,,,,,,,,,,,,,,,,,,,,,,,,,,,,,,,,,,,,,,,,,,,,,,,,,,968.5919326003641,968.5919326003641,0.006480099633336067,0.09926060028374195,2.0,1.293689999729395,,,,,,,,,,,,,,,2951,Moral,2024-07-10_11h31.41.380,MoralCondition_v2,2022.2.5,30.01106797049546,
15,0,15,0,2,0,2,0,,,,,,,,,,,,,,,,,,,,,,,,,,,,,,,,,,,,,,,,,,,,,,,,,,,,969.942186800763,969.942186800763,0.007912300527095795,0.11435890011489391,1.0,1.0739178992807865,,,,,,,,,,,,,,,2951,Moral,2024-07-10_11h31.41.380,MoralCondition_v2,2022.2.5,30.01106797049546,
15,0,15,0,3,0,3,0,,,,,,,,,,,,,,,,,,,,,,,,,,,,,,,,,,,,,,,,,,,,,,,,,,,,971.0420431010425,971.0420431010425,0.007916700094938278,0.09811539947986603,4.0,1.65798220038414,,,,,,,,,,,,,,,2951,Moral,2024-07-10_11h31.41.380,MoralCondition_v2,2022.2.5,30.01106797049546,
15,0,15,0,4,0,4,0,,,,,,,,,,,,,,,,,,,,,,,,,,,,,,,,,,,,,,,,,,,,,,,,,,,,972.7420602999628,972.7420602999628,0.0072355009615421295,0.09893720038235188,5.0,1.3594837989658117,,,,,,,,,,,,,,,2951,Moral,2024-07-10_11h31.41.380,MoralCondition_v2,2022.2.5,30.01106797049546,
15,0,15,0,5,0,5,0,,,,,,,,,,,,,,,,,,,,,,,,,,,,,,,,,,,,,,,,,,,,,,,,,,,,974.1421298999339,974.1421298999339,0.006414201110601425,0.09910450130701065,2.0,1.6605144012719393,,,,,,,,,,,,,,,2951,Moral,2024-07-10_11h31.41.380,MoralCondition_v2,2022.2.5,30.01106797049546,
15,0,15,0,6,0,6,0,,,,,,,,,,,,,,,,,,,,,,,,,,,,,,,,,,,,,,,,,,,,,,,,,,,,975.8420766014606,975.8420766014606,0.006915001198649406,0.09788830019533634,2.0,1.0917881987988949,,,,,,,,,,,,,,,2951,Moral,2024-07-10_11h31.41.380,MoralCondition_v2,2022.2.5,30.01106797049546,
15,0,15,0,,,,,,,,,,,,,,,,,,,,,,,,,,,,,,,,,,,,,,,,,,,,,,,,,,,,,,,,,,,,,,976.9754729997367,976.9754729997367,0.0011744014918804169,0.0985834002494812,5.0,13.398049898445606,,,,,,,,,2951,Moral,2024-07-10_11h31.41.380,MoralCondition_v2,2022.2.5,30.01106797049546,
16,0,16,0,0,0,0,0,,,,,,,,,,,,,,,,,,,,,,990.4089007005095,0.00016350112855434418,0.09926840104162693,996.4085763003677,5.999181000515819,996.5751783009619,996.5751783009619,0.06371930055320263,0.16601970046758652,6.032445501536131,1002.7084849998355,1002.7084849998355,1002.7084849998355,0.09410930052399635,0.199370501562953,1008.4084751009941,1008.5751699004322,5.999138500541449,6.099064901471138,1014.5751443002373,11.99910900183022,1014.708385201171,1014.708385201171,-2.6699155569076538e-05,0.0992618016898632,up,0.5275976993143559,1015.275152400136,4.540011286735535e-05,0.09764499962329865,1021.2749775014818,1021.2749775014818,0.008972600102424622,0.0975893996655941,1.0,1.2897653002291918,,,,,,,1014.708385201171,1014.708385201171,1021.2749775014818,1002.5751862004399,1002.5751862004399,6.099090199917555,,12.099060101434588,2951,Moral,2024-07-10_11h31.41.380,MoralCondition_v2,2022.2.5,30.01106797049546,
16,0,16,0,1,0,1,0,,,,,,,,,,,,,,,,,,,,,,,,,,,,,,,,,,,,,,,,,,,,,,,,,,,,1022.6086239013821,1022.6086239013821,0.005496900528669357,0.09887129999697208,5.0,2.094600699841976,,,,,,,,,,,,,,,2951,Moral,2024-07-10_11h31.41.380,MoralCondition_v2,2022.2.5,30.01106797049546,
16,0,16,0,2,0,2,0,,,,,,,,,,,,,,,,,,,,,,,,,,,,,,,,,,,,,,,,,,,,,,,,,,,,1024.7588043008,1024.7588043008,0.007918700575828552,0.11424480006098747,3.0,2.2074239999055862,,,,,,,,,,,,,,,2951,Moral,2024-07-10_11h31.41.380,MoralCondition_v2,2022.2.5,30.01106797049546,
16,0,16,0,3,0,3,0,,,,,,,,,,,,,,,,,,,,,,,,,,,,,,,,,,,,,,,,,,,,,,,,,,,,1027.008666800335,1027.008666800335,0.008037500083446503,0.11429609917104244,3.0,3.6072921995073557,,,,,,,,,,,,,,,2951,Moral,2024-07-10_11h31.41.380,MoralCondition_v2,2022.2.5,30.01106797049546,
16,0,16,0,4,0,4,0,,,,,,,,,,,,,,,,,,,,,,,,,,,,,,,,,,,,,,,,,,,,,,,,,,,,1030.641756599769,1030.641756599769,0.007928799837827682,0.09921189956367016,4.0,1.4256254993379116,,,,,,,,,,,,,,,2951,Moral,2024-07-10_11h31.41.380,MoralCondition_v2,2022.2.5,30.01106797049546,
16,0,16,0,5,0,5,0,,,,,,,,,,,,,,,,,,,,,,,,,,,,,,,,,,,,,,,,,,,,,,,,,,,,1032.1084748003632,1032.1084748003632,0.007762899622321129,0.09791000001132488,2.0,1.7911577001214027,,,,,,,,,,,,,,,2951,Moral,2024-07-10_11h31.41.380,MoralCondition_v2,2022.2.5,30.01106797049546,
16,0,16,0,6,0,6,0,,,,,,,,,,,,,,,,,,,,,,,,,,,,,,,,,,,,,,,,,,,,,,,,,,,,1033.9416273012757,1033.9416273012757,0.00771850161254406,0.09900839999318123,1.0,1.1923444010317326,,,,,,,,,,,,,,,2951,Moral,2024-07-10_11h31.41.380,MoralCondition_v2,2022.2.5,30.01106797049546,
16,0,16,0,,,,,,,,,,,,,,,,,,,,,,,,,,,,,,,,,,,,,,,,,,,,,,,,,,,,,,,,,,,,,,1035.1753050014377,1035.1753050014377,0.0013583991676568985,0.09785009920597076,5.0,3.0642205998301506,,,,,,,,,2951,Moral,2024-07-10_11h31.41.380,MoralCondition_v2,2022.2.5,30.01106797049546,
17,0,17,0,0,0,0,0,,,,,,,,,,,,,,,,,,,,,,1038.275234799832,0.00037140026688575745,0.09769850037992,1044.2751067001373,6.030972000211477,1044.4754218999296,1044.4754218999296,0.09033920057117939,0.19777600094676018,6.030813600867987,1050.5750535000116,1050.5750535000116,1050.5750535000116,0.08710510097444057,0.19767150096595287,1056.2749784011394,1056.4749579001218,6.030825302004814,6.13103150203824,1062.4749050997198,12.030769500881433,1062.6085609011352,1062.6085609011352,0.031192202121019363,0.13082960061728954,up,0.7387571986764669,1063.4082586001605,4.6800822019577026e-05,0.09779570065438747,1069.4417500998825,1069.4417500998825,0.025206899270415306,0.13110500015318394,2.0,8.073695698753,,,,,,,1062.5751347001642,1062.5751347001642,,1050.4749941006303,1050.4749941006303,,,,2951,Moral,2024-07-10_11h31.41.380,MoralCondition_v2,2022.2.5,30.01106797049546,
17,0,17,0,1,0,1,0,,,,,,,,,,,,,,,,,,,,,,,,,,,,,,,,,,,,,,,,,,,,,,,,,,,,1077.5414175000042,1077.5414175000042,0.00789329968392849,0.09821800142526627,4.0,1.3911754991859198,,,,,,,,,,,,,,,2951,Moral,2024-07-10_11h31.41.380,MoralCondition_v2,2022.2.5,30.01106797049546,
17,0,17,0,2,0,2,0,,,,,,,,,,,,,,,,,,,,,,,,,,,,,,,,,,,,,,,,,,,,,,,,,,,,1078.9917239006609,1078.9917239006609,0.007791299372911453,0.11453939974308014,2.0,1.6411499995738268,,,,,,,,,,,,,,,2951,Moral,2024-07-10_11h31.41.380,MoralCondition_v2,2022.2.5,30.01106797049546,
17,0,17,0,3,0,3,0,,,,,,,,,,,,,,,,,,,,,,,,,,,,,,,,,,,,,,,,,,,,,,,,,,,,1080.6581864003092,1080.6581864003092,0.007388599216938019,0.09753309935331345,2.0,1.7249125000089407,,,,,,,,,,,,,,,2951,Moral,2024-07-10_11h31.41.380,MoralCondition_v2,2022.2.5,30.01106797049546,
17,0,17,0,4,0,4,0,,,,,,,,,,,,,,,,,,,,,,,,,,,,,,,,,,,,,,,,,,,,,,,,,,,,1082.42491970025,1082.42491970025,0.007005300372838974,0.0980818010866642,4.0,2.392162600532174,,,,,,,,,,,,,,,2951,Moral,2024-07-10_11h31.41.380,MoralCondition_v2,2022.2.5,30.01106797049546,
17,0,17,0,5,0,5,0,,,,,,,,,,,,,,,,,,,,,,,,,,,,,,,,,,,,,,,,,,,,,,,,,,,,1084.8581163007766,1084.8581163007766,0.007807699963450432,0.09772340022027493,1.0,1.3909793999046087,,,,,,,,,,,,,,,2951,Moral,2024-07-10_11h31.41.380,MoralCondition_v2,2022.2.5,30.01106797049546,
17,0,17,0,6,0,6,0,,,,,,,,,,,,,,,,,,,,,,,,,,,,,,,,,,,,,,,,,,,,,,,,,,,,1086.2913869004697,1086.2913869004697,0.0073181986808776855,0.09924699924886227,1.0,1.0594829004257917,,,,,,,,,,,,,,,2951,Moral,2024-07-10_11h31.41.380,MoralCondition_v2,2022.2.5,30.01106797049546,
17,0,17,0,,,,,,,,,,,,,,,,,,,,,,,,,,,,,,,,,,,,,,,,,,,,,,,,,,,,,,,,,,,,,,1087.3917984999716,1087.3917984999716,0.0020316001027822495,0.0971268992871046,5.0,7.596241500228643,,,,,,,,,2951,Moral,2024-07-10_11h31.41.380,MoralCondition_v2,2022.2.5,30.01106797049546,
18,0,18,0,0,0,0,0,,,,,,,,,,,,,,,,,,,,,,1095.0251951999962,0.00029189884662628174,0.09780029952526093,1101.0414382014424,6.014543499797583,1101.2084315996617,1101.2084315996617,0.06894929893314838,0.18111770041286945,6.014330198988318,1107.2914068996906,1107.2914068996906,1107.2914068996906,0.06559810042381287,0.1646209992468357,1112.99138960056,1113.2246787007898,6.031009899452329,6.131005799397826,1119.2246580012143,12.031009800732136,1119.3580135013908,1119.3580135013908,0.031112300232052803,0.13095710054039955,up,0.310053501278162,1119.7246403004974,1.659989356994629e-05,0.09932270087301731,1125.7250043004751,1125.7250043004751,0.009648101404309273,0.09946059994399548,2.0,2.7906809989362955,,,,,,,1119.2913522999734,1119.2913522999734,1125.7250043004751,1107.2080258000642,1107.2080258000642,,,,2951,Moral,2024-07-10_11h31.41.380,MoralCondition_v2,2022.2.5,30.01106797049546,
18,0,18,0,1,0,1,0,,,,,,,,,,,,,,,,,,,,,,,,,,,,,,,,,,,,,,,,,,,,,,,,,,,,1128.5578281003982,1128.5578281003982,0.007688300684094429,0.09758730046451092,2.0,1.091091200709343,,,,,,,,,,,,,,,2951,Moral,2024-07-10_11h31.41.380,MoralCondition_v2,2022.2.5,30.01106797049546,
18,0,18,0,2,0,2,0,,,,,,,,,,,,,,,,,,,,,,,,,,,,,,,,,,,,,,,,,,,,,,,,,,,,1129.6913775000721,1129.6913775000721,0.006619999185204506,0.0992830004543066,2.0,1.0602391995489597,,,,,,,,,,,,,,,2951,Moral,2024-07-10_11h31.41.380,MoralCondition_v2,2022.2.5,30.01106797049546,
18,0,18,0,3,0,3,0,,,,,,,,,,,,,,,,,,,,,,,,,,,,,,,,,,,,,,,,,,,,,,,,,,,,1130.8082725014538,1130.8082725014538,0.007780900225043297,0.11409780010581017,3.0,2.0075119994580746,,,,,,,,,,,,,,,2951,Moral,2024-07-10_11h31.41.380,MoralCondition_v2,2022.2.5,30.01106797049546,
18,0,18,0,4,0,4,0,,,,,,,,,,,,,,,,,,,,,,,,,,,,,,,,,,,,,,,,,,,,,,,,,,,,1132.8411737009883,1132.8411737009883,0.006493899971246719,0.09900389984250069,4.0,1.8937544990330935,,,,,,,,,,,,,,,2951,Moral,2024-07-10_11h31.41.380,MoralCondition_v2,2022.2.5,30.01106797049546,
18,0,18,0,5,0,5,0,,,,,,,,,,,,,,,,,,,,,,,,,,,,,,,,,,,,,,,,,,,,,,,,,,,,1134.7745865006,1134.7745865006,0.008610300719738007,0.09718800149857998,4.0,1.2897135000675917,,,,,,,,,,,,,,,2951,Moral,2024-07-10_11h31.41.380,MoralCondition_v2,2022.2.5,30.01106797049546,
18,0,18,0,6,0,6,0,,,,,,,,,,,,,,,,,,,,,,,,,,,,,,,,,,,,,,,,,,,,,,,,,,,,1136.1078679002821,1136.1078679002821,0.007746400311589241,0.09761280007660389,1.0,1.0910650007426739,,,,,,,,,,,,,,,2951,Moral,2024-07-10_11h31.41.380,MoralCondition_v2,2022.2.5,30.01106797049546,
18,0,18,0,,,,,,,,,,,,,,,,,,,,,,,,,,,,,,,,,,,,,,,,,,,,,,,,,,,,,,,,,,,,,,1137.2412117999047,1137.2412117999047,0.0014444999396800995,0.09783479943871498,5.0,3.097521299496293,,,,,,,,,2951,Moral,2024-07-10_11h31.41.380,MoralCondition_v2,2022.2.5,30.01106797049546,
19,0,19,0,0,0,0,0,,,,,,,,,,,,,,,,,,,,,,1140.3748331014067,0.00026449933648109436,0.0975422989577055,1146.3912051003426,6.013980498537421,1146.5578199997544,1146.5578199997544,0.07251350022852421,0.1808914002031088,6.014017699286342,1152.6580391004682,1152.6580391004682,1152.6580391004682,0.07418500073254108,0.18072539940476418,1158.3578786998987,1158.5578368008137,6.014027399942279,6.113979399204254,1164.5579567011446,12.014097599312663,1164.6912265010178,1164.6912265010178,0.014121901243925095,0.13055120036005974,down,2.080418398603797,1166.808333400637,6.000138819217682e-05,0.09817400015890598,1172.8243308011442,1172.8243308011442,0.023536400869488716,0.11462900042533875,1.0,1.525245800614357,,,,,,,1164.6578061003238,1164.6578061003238,,1152.5578717011958,1152.5578717011958,,,,2951,Moral,2024-07-10_11h31.41.380,MoralCondition_v2,2022.2.5,30.01106797049546,
19,0,19,0,1,0,1,0,,,,,,,,,,,,,,,,,,,,,,,,,,,,,,,,,,,,,,,,,,,,,,,,,,,,1174.3910370003432,1174.3910370003432,0.00739540159702301,0.09779540076851845,6.0,2.3249003011733294,,,,,,,,,,,,,,,2951,Moral,2024-07-10_11h31.41.380,MoralCondition_v2,2022.2.5,30.01106797049546,
19,0,19,0,2,0,2,0,,,,,,,,,,,,,,,,,,,,,,,,,,,,,,,,,,,,,,,,,,,,,,,,,,,,1176.7577039003372,1176.7577039003372,0.006441699340939522,0.09847369976341724,6.0,1.4929861016571522,,,,,,,,,,,,,,,2951,Moral,2024-07-10_11h31.41.380,MoralCondition_v2,2022.2.5,30.01106797049546,
19,0,19,0,3,0,3,0,,,,,,,,,,,,,,,,,,,,,,,,,,,,,,,,,,,,,,,,,,,,,,,,,,,,1178.291164400056,1178.291164400056,0.006726400926709175,0.0991492010653019,5.0,2.8601364009082317,,,,,,,,,,,,,,,2951,Moral,2024-07-10_11h31.41.380,MoralCondition_v2,2022.2.5,30.01106797049546,
19,0,19,0,4,0,4,0,,,,,,,,,,,,,,,,,,,,,,,,,,,,,,,,,,,,,,,,,,,,,,,,,,,,1181.2080856002867,1181.2080856002867,0.008835799992084503,0.11492190137505531,5.0,1.5070584993809462,,,,,,,,,,,,,,,2951,Moral,2024-07-10_11h31.41.380,MoralCondition_v2,2022.2.5,30.01106797049546,
19,0,19,0,5,0,5,0,,,,,,,,,,,,,,,,,,,,,,,,,,,,,,,,,,,,,,,,,,,,,,,,,,,,1182.740963101387,1182.740963101387,0.00601469911634922,0.09896889887750149,2.0,1.2940873000770807,,,,,,,,,,,,,,,2951,Moral,2024-07-10_11h31.41.380,MoralCondition_v2,2022.2.5,30.01106797049546,
19,0,19,0,6,0,6,0,,,,,,,,,,,,,,,,,,,,,,,,,,,,,,,,,,,,,,,,,,,,,,,,,,,,1184.0742926001549,1184.0742926001549,0.006471298635005951,0.09933760017156601,6.0,1.6269051991403103,,,,,,,,,,,,,,,2951,Moral,2024-07-10_11h31.41.380,MoralCondition_v2,2022.2.5,30.01106797049546,
19,0,19,0,,,,,,,,,,,,,,,,,,,,,,,,,,,,,,,,,,,,,,,,,,,,,,,,,,,,,,,,,,,,,,1185.7413129005581,1185.7413129005581,0.0010326001793146133,0.09941370040178299,2.0,3.4329606015235186,,,,,,,,,2951,Moral,2024-07-10_11h31.41.380,MoralCondition_v2,2022.2.5,30.01106797049546,
