loop.thisRepN,loop.thisTrialN,loop.thisN,loop.thisIndex,evaluate_all_emotions.thisRepN,evaluate_all_emotions.thisTrialN,evaluate_all_emotions.thisN,evaluate_all_emotions.thisIndex,sync_beep_1.started,p_port.started,p_port.stopped,sync_beep_2.started,sync_beep_2.stopped,sync_beep_3.started,sync_beep_3.stopped,sync_beep_4.started,baseline.started,p_port_2.started,p_port_2.stopped,baseline.stopped,p_port_3.started,Game_Start_Text.started,p_port_4.started,p_port_4.stopped,key_resp.started,key_resp.keys,key_resp.rt,fixation_cross.started,p_port_5.started,p_port_5.stopped,fixation_cross.stopped,p_port_6.started,p_port_6.stopped,player_image_intro.started,player_name_intro.started,p_port_7.started,p_port_7.stopped,p_port_8.started,player_image_offer.started,player_name_offer.started,proposed_split.started,p_port_9.started,p_port_9.stopped,proposed_split.stopped,accept_reject.started,p_port_15.started,p_port_15.stopped,accept_reject.stopped,p_port_10.started,arrow_instructions.started,offer_choice.started,p_port_11.started,p_port_11.stopped,offer_choice.keys,offer_choice.rt,Instructions_Affinity_Score.started,p_port_12.started,p_port_12.stopped,Emotion_Image.started,AffinityScore.started,p_port_13.started,p_port_13.stopped,AffinityScore.response,AffinityScore.rt,Instruction.started,Moral_Disgust_Score.started,p_port_14.started,p_port_14.stopped,Moral_Disgust_Score.response,Moral_Disgust_Score.rt,player_image_intro.stopped,player_name_intro.stopped,player_image_offer.stopped,player_name_offer.stopped,Instructions_Affinity_Score.stopped,p_port_8.stopped,p_port_10.stopped,participant,session,date,expName,psychopyVersion,frameRate,
,,,,,,,,17.23379017964471,0.0010952999582514167,0.11198569997213781,17.813622170081363,18.113765400019474,18.414146469975822,18.713892100029625,19.01366837003734,19.347032300080173,0.014492499991320074,0.1119173999177292,34.36370420001913,15.02847959997598,34.44706849998329,0.011882200022228062,0.11191710003186017,34.91383840003982,space,0.9959328999975696,,,,,,,,,,,,,,,,,,,,,,,,,,,,,,,,,,,,,,,,,,,,,,,,,,,2993,Moral,2024-07-25_11h35.38.430,MoralCondition_v2,2022.2.5,29.97335967744891,
0,0,0,0,0,0,0,0,,,,,,,,,,,,,,,,,,,,35.947121900040656,0.0007773999823257327,0.09895719995256513,41.94683840009384,6.0155350000131875,6.098840499995276,42.23055129998829,42.23055129998829,0.1492994000436738,0.28226300003007054,6.015610300004482,48.26369430008344,48.26369430008344,48.26369430008344,0.08052319998387247,0.21563900006003678,53.963673799997196,54.1303435000591,6.015662000048906,6.115707400022075,60.130334299989045,12.015651799971238,60.263695100089535,60.263695100089535,0.0157805000199005,0.11537230003159493,up,1.5492506999289617,61.863651400082745,4.659988917410374e-05,0.09761779999826103,67.8968347000191,67.8968347000191,0.03283849998842925,0.1310319999465719,6.0,3.199148299987428,,,,,,,,,,,,,,2993,Moral,2024-07-25_11h35.38.430,MoralCondition_v2,2022.2.5,29.97335967744891,
0,0,0,0,1,0,1,0,,,,,,,,,,,,,,,,,,,,,,,,,,,,,,,,,,,,,,,,,,,,,,,,,,,71.14700530003756,71.14700530003756,0.016281699994578958,0.11440239998046309,4.0,3.515627400018275,,,,,,,,,,,,,,2993,Moral,2024-07-25_11h35.38.430,MoralCondition_v2,2022.2.5,29.97335967744891,
0,0,0,0,2,0,2,0,,,,,,,,,,,,,,,,,,,,,,,,,,,,,,,,,,,,,,,,,,,,,,,,,,,74.69692060002126,74.69692060002126,0.011435799999162555,0.0991809000261128,3.0,4.288860999979079,,,,,,,,,,,,,,2993,Moral,2024-07-25_11h35.38.430,MoralCondition_v2,2022.2.5,29.97335967744891,
0,0,0,0,3,0,3,0,,,,,,,,,,,,,,,,,,,,,,,,,,,,,,,,,,,,,,,,,,,,,,,,,,,79.04705719999038,79.04705719999038,0.013147999998182058,0.11460029997397214,2.0,2.0023463999386877,,,,,,,,,,,,,,2993,Moral,2024-07-25_11h35.38.430,MoralCondition_v2,2022.2.5,29.97335967744891,
0,0,0,0,4,0,4,0,,,,,,,,,,,,,,,,,,,,,,,,,,,,,,,,,,,,,,,,,,,,,,,,,,,81.08042580005713,81.08042580005713,0.009984000003896654,0.0974864000454545,6.0,2.055275799939409,,,,,,,,,,,,,,2993,Moral,2024-07-25_11h35.38.430,MoralCondition_v2,2022.2.5,29.97335967744891,
0,0,0,0,5,0,5,0,,,,,,,,,,,,,,,,,,,,,,,,,,,,,,,,,,,,,,,,,,,,,,,,,,,83.19707190000918,83.19707190000918,0.010513899964280427,0.11394289997406304,2.0,3.104493600083515,,,,,,,,,,,,,,2993,Moral,2024-07-25_11h35.38.430,MoralCondition_v2,2022.2.5,29.97335967744891,
0,0,0,0,6,0,6,0,,,,,,,,,,,,,,,,,,,,,,,,,,,,,,,,,,,,,,,,,,,,,,,,,,,86.3472687000176,86.3472687000176,0.011406700010411441,0.11470379994716495,6.0,2.570963399950415,,,,,,,,,,,,,,2993,Moral,2024-07-25_11h35.38.430,MoralCondition_v2,2022.2.5,29.97335967744891,
0,0,0,0,,,,,,,,,,,,,,,,,,,,,,,,,,,,,,,,,,,,,,,,,,,,,,,,,,,,,,,,,,,,,88.9469386000419,88.9469386000419,0.0012524999910965562,0.09786249999888241,7.0,4.397891400032677,,,,,,,,2993,Moral,2024-07-25_11h35.38.430,MoralCondition_v2,2022.2.5,29.97335967744891,
1,0,1,0,0,0,0,0,,,,,,,,,,,,,,,,,,,,93.3804651000537,0.00027160008903592825,0.09779510006774217,99.3969849999994,6.014451000024565,,99.58063580002636,99.58063580002636,0.08846110012382269,0.19785510003566742,6.031084400019608,105.68037680000998,105.68037680000998,105.68037680000998,0.08721290004905313,0.1977156001375988,111.38022980000824,111.58024250005838,6.031083700130694,6.131049600080587,117.58023469999898,12.031086900038645,117.71352800005116,117.71352800005116,0.031328300130553544,0.13098840008024126,up,4.4192133999895304,122.18022340000607,4.910002462565899e-05,0.09788240003399551,128.2135271000443,128.2135271000443,0.031868900055997074,0.13150040002074093,2.0,3.367147700046189,,,,,,,105.58025940007064,105.58025940007064,117.68030140001792,117.68030140001792,,,,2993,Moral,2024-07-25_11h35.38.430,MoralCondition_v2,2022.2.5,29.97335967744891,
1,0,1,0,1,0,1,0,,,,,,,,,,,,,,,,,,,,,,,,,,,,,,,,,,,,,,,,,,,,,,,,,,,131.61346200003754,131.61346200003754,0.009894600021652877,0.09906469995621592,2.0,1.7906544000143185,,,,,,,,,,,,,,2993,Moral,2024-07-25_11h35.38.430,MoralCondition_v2,2022.2.5,29.97335967744891,
1,0,1,0,2,0,2,0,,,,,,,,,,,,,,,,,,,,,,,,,,,,,,,,,,,,,,,,,,,,,,,,,,,133.44674879999366,133.44674879999366,0.007001599995419383,0.0992541000014171,1.0,1.5599043000256643,,,,,,,,,,,,,,2993,Moral,2024-07-25_11h35.38.430,MoralCondition_v2,2022.2.5,29.97335967744891,
1,0,1,0,3,0,3,0,,,,,,,,,,,,,,,,,,,,,,,,,,,,,,,,,,,,,,,,,,,,,,,,,,,135.0467067999998,135.0467067999998,0.007251499919220805,0.09818049997556955,5.0,2.0588277999777347,,,,,,,,,,,,,,2993,Moral,2024-07-25_11h35.38.430,MoralCondition_v2,2022.2.5,29.97335967744891,
1,0,1,0,4,0,4,0,,,,,,,,,,,,,,,,,,,,,,,,,,,,,,,,,,,,,,,,,,,,,,,,,,,137.1469791000709,137.1469791000709,0.006402499973773956,0.09767469996586442,2.0,2.292260800022632,,,,,,,,,,,,,,2993,Moral,2024-07-25_11h35.38.430,MoralCondition_v2,2022.2.5,29.97335967744891,
1,0,1,0,5,0,5,0,,,,,,,,,,,,,,,,,,,,,,,,,,,,,,,,,,,,,,,,,,,,,,,,,,,139.4970526000252,139.4970526000252,0.009326500003226101,0.11395679996348917,1.0,2.0056497999466956,,,,,,,,,,,,,,2993,Moral,2024-07-25_11h35.38.430,MoralCondition_v2,2022.2.5,29.97335967744891,
1,0,1,0,6,0,6,0,,,,,,,,,,,,,,,,,,,,,,,,,,,,,,,,,,,,,,,,,,,,,,,,,,,141.53038470004685,141.53038470004685,0.006580800050869584,0.09889100003056228,7.0,1.6269206000724807,,,,,,,,,,,,,,2993,Moral,2024-07-25_11h35.38.430,MoralCondition_v2,2022.2.5,29.97335967744891,
1,0,1,0,,,,,,,,,,,,,,,,,,,,,,,,,,,,,,,,,,,,,,,,,,,,,,,,,,,,,,,,,,,,,143.19693400000688,143.19693400000688,0.0007205000147223473,0.0990742000285536,7.0,3.69953710003756,,,,,,,,2993,Moral,2024-07-25_11h35.38.430,MoralCondition_v2,2022.2.5,29.97335967744891,
2,0,2,0,0,0,0,0,,,,,,,,,,,,,,,,,,,,146.93056730006356,0.0001373999984934926,0.09926619997713715,152.94694900000468,6.015750200022012,,153.18017940002028,153.18017940002028,0.1403934999834746,0.2491133000003174,6.015736400033347,159.21332910005003,159.21332910005003,159.21332910005003,0.07464910007547587,0.1823140000924468,164.91336360003334,165.11339980002958,6.015711500076577,6.1156973000615835,171.11332050000783,12.015632200054824,171.24674870003946,171.24674870003946,0.01577790011651814,0.11563370004296303,up,0.518248200067319,171.8301277999999,2.989999484270811e-05,0.09945669991429895,177.8633961000014,177.8633961000014,0.026703899959102273,0.13263209990691394,2.0,2.7737975999480113,,,,,,,,,171.19649790006224,171.19649790006224,,,,2993,Moral,2024-07-25_11h35.38.430,MoralCondition_v2,2022.2.5,29.97335967744891,
2,0,2,0,1,0,1,0,,,,,,,,,,,,,,,,,,,,,,,,,,,,,,,,,,,,,,,,,,,,,,,,,,,180.68005190009717,180.68005190009717,0.009767199982888997,0.11488329991698265,1.0,2.0060374999884516,,,,,,,,,,,,,,2993,Moral,2024-07-25_11h35.38.430,MoralCondition_v2,2022.2.5,29.97335967744891,
2,0,2,0,2,0,2,0,,,,,,,,,,,,,,,,,,,,,,,,,,,,,,,,,,,,,,,,,,,,,,,,,,,182.71346860006452,182.71346860006452,0.006857899948954582,0.09838350000791252,1.0,0.9926116999704391,,,,,,,,,,,,,,2993,Moral,2024-07-25_11h35.38.430,MoralCondition_v2,2022.2.5,29.97335967744891,
2,0,2,0,3,0,3,0,,,,,,,,,,,,,,,,,,,,,,,,,,,,,,,,,,,,,,,,,,,,,,,,,,,183.7469957000576,183.7469957000576,0.007057799957692623,0.09859199996571988,2.0,1.5926072000293061,,,,,,,,,,,,,,2993,Moral,2024-07-25_11h35.38.430,MoralCondition_v2,2022.2.5,29.97335967744891,
2,0,2,0,4,0,4,0,,,,,,,,,,,,,,,,,,,,,,,,,,,,,,,,,,,,,,,,,,,,,,,,,,,185.37997020001058,185.37997020001058,0.00684940000064671,0.09736650006379932,1.0,1.3913900000043213,,,,,,,,,,,,,,2993,Moral,2024-07-25_11h35.38.430,MoralCondition_v2,2022.2.5,29.97335967744891,
2,0,2,0,5,0,5,0,,,,,,,,,,,,,,,,,,,,,,,,,,,,,,,,,,,,,,,,,,,,,,,,,,,186.83024690009188,186.83024690009188,0.00877120008226484,0.11398070002906024,7.0,1.60644079989288,,,,,,,,,,,,,,2993,Moral,2024-07-25_11h35.38.430,MoralCondition_v2,2022.2.5,29.97335967744891,
2,0,2,0,6,0,6,0,,,,,,,,,,,,,,,,,,,,,,,,,,,,,,,,,,,,,,,,,,,,,,,,,,,188.47999540006276,188.47999540006276,0.00919319991953671,0.11396899993997067,6.0,1.4725793999386951,,,,,,,,,,,,,,2993,Moral,2024-07-25_11h35.38.430,MoralCondition_v2,2022.2.5,29.97335967744891,
2,0,2,0,,,,,,,,,,,,,,,,,,,,,,,,,,,,,,,,,,,,,,,,,,,,,,,,,,,,,,,,,,,,,189.98003960005008,189.98003960005008,0.0007051000138744712,0.09924440004397184,7.0,4.999347500037402,,,,,,,,2993,Moral,2024-07-25_11h35.38.430,MoralCondition_v2,2022.2.5,29.97335967744891,
3,0,3,0,0,0,0,0,,,,,,,,,,,,,,,,,,,,195.01344640005846,0.000372599926777184,0.09730749996379018,201.0300164000364,6.013949499931186,,201.22999910009094,201.22999910009094,0.10799169994425029,0.21411119995173067,6.013948899926618,207.29656370007433,207.29656370007433,207.29656370007433,0.06774009997025132,0.18091580003965646,212.9967776000267,213.19679670000914,6.014116200036369,6.113940499955788,219.19665420008823,12.014020300004631,219.33008420001715,219.33008420001715,0.014169699978083372,0.1138936000643298,up,0.5948394999140874,219.980072400067,2.1799933165311813e-05,0.09920009993948042,225.9967913000146,225.9967913000146,0.010119799990206957,0.11584009998477995,1.0,1.5734294999856502,,,,,,,,,219.2966789000202,219.2966789000202,225.9967913000146,,,2993,Moral,2024-07-25_11h35.38.430,MoralCondition_v2,2022.2.5,29.97335967744891,
3,0,3,0,1,0,1,0,,,,,,,,,,,,,,,,,,,,,,,,,,,,,,,,,,,,,,,,,,,,,,,,,,,227.5967285000952,227.5967285000952,0.008649799972772598,0.09732749999966472,7.0,1.5234226000029594,,,,,,,,,,,,,,2993,Moral,2024-07-25_11h35.38.430,MoralCondition_v2,2022.2.5,29.97335967744891,
3,0,3,0,2,0,2,0,,,,,,,,,,,,,,,,,,,,,,,,,,,,,,,,,,,,,,,,,,,,,,,,,,,229.16337850003038,229.16337850003038,0.006553999963216484,0.09914050006773323,2.0,1.3270182000705972,,,,,,,,,,,,,,2993,Moral,2024-07-25_11h35.38.430,MoralCondition_v2,2022.2.5,29.97335967744891,
3,0,3,0,3,0,3,0,,,,,,,,,,,,,,,,,,,,,,,,,,,,,,,,,,,,,,,,,,,,,,,,,,,230.52994740009308,230.52994740009308,0.007397799985483289,0.09794010000769049,6.0,1.5248635000316426,,,,,,,,,,,,,,2993,Moral,2024-07-25_11h35.38.430,MoralCondition_v2,2022.2.5,29.97335967744891,
3,0,3,0,4,0,4,0,,,,,,,,,,,,,,,,,,,,,,,,,,,,,,,,,,,,,,,,,,,,,,,,,,,232.0965285000857,232.0965285000857,0.007202900014817715,0.09827379998750985,2.0,1.89204529998824,,,,,,,,,,,,,,2993,Moral,2024-07-25_11h35.38.430,MoralCondition_v2,2022.2.5,29.97335967744891,
3,0,3,0,5,0,5,0,,,,,,,,,,,,,,,,,,,,,,,,,,,,,,,,,,,,,,,,,,,,,,,,,,,234.03005820000544,234.03005820000544,0.006642900058068335,0.09896000009030104,1.0,1.7601493999827653,,,,,,,,,,,,,,2993,Moral,2024-07-25_11h35.38.430,MoralCondition_v2,2022.2.5,29.97335967744891,
3,0,3,0,6,0,6,0,,,,,,,,,,,,,,,,,,,,,,,,,,,,,,,,,,,,,,,,,,,,,,,,,,,235.82990000001155,235.82990000001155,0.0075628000777214766,0.0976860000519082,1.0,1.4245492999907583,,,,,,,,,,,,,,2993,Moral,2024-07-25_11h35.38.430,MoralCondition_v2,2022.2.5,29.97335967744891,
3,0,3,0,,,,,,,,,,,,,,,,,,,,,,,,,,,,,,,,,,,,,,,,,,,,,,,,,,,,,,,,,,,,,237.29642260004766,237.29642260004766,0.0017457000212743878,0.09713919996283948,7.0,2.396724699996412,,,,,,,,2993,Moral,2024-07-25_11h35.38.430,MoralCondition_v2,2022.2.5,29.97335967744891,
4,0,4,0,0,0,0,0,,,,,,,,,,,,,,,,,,,,239.73029010009486,0.000282399938441813,0.09783510002307594,245.74657509999815,6.014445499982685,,245.96325900009833,245.96325900009833,0.11746229999698699,0.23128970002289861,6.031256100046448,252.03001079999376,252.03001079999376,252.03001079999376,0.08967880008276552,0.19806960003916174,257.7298732000636,257.9299119000789,6.031191800022498,6.131046400056221,263.929845900042,12.031094899983145,264.0428609000519,264.0428609000519,0.03122950007673353,0.11062650009989738,up,0.5384692000225186,264.6300224000588,1.780001912266016e-05,0.09961969999130815,270.64633990009315,270.64633990009315,0.021845300099812448,0.11616149998735636,2.0,2.395446600043215,,,,,,,,,264.0298250000924,264.0298250000924,,,,2993,Moral,2024-07-25_11h35.38.430,MoralCondition_v2,2022.2.5,29.97335967744891,
4,0,4,0,1,0,1,0,,,,,,,,,,,,,,,,,,,,,,,,,,,,,,,,,,,,,,,,,,,,,,,,,,,273.09679970005527,273.09679970005527,0.007365399971604347,0.11384560004808009,1.0,1.0740129000041634,,,,,,,,,,,,,,2993,Moral,2024-07-25_11h35.38.430,MoralCondition_v2,2022.2.5,29.97335967744891,
4,0,4,0,2,0,2,0,,,,,,,,,,,,,,,,,,,,,,,,,,,,,,,,,,,,,,,,,,,,,,,,,,,274.1964408000931,274.1964408000931,0.00705219991505146,0.09779629996046424,7.0,1.4253046000376344,,,,,,,,,,,,,,2993,Moral,2024-07-25_11h35.38.430,MoralCondition_v2,2022.2.5,29.97335967744891,
4,0,4,0,3,0,3,0,,,,,,,,,,,,,,,,,,,,,,,,,,,,,,,,,,,,,,,,,,,,,,,,,,,275.66302550002,275.66302550002,0.006838699919171631,0.09922739991452545,2.0,1.0933680000016466,,,,,,,,,,,,,,2993,Moral,2024-07-25_11h35.38.430,MoralCondition_v2,2022.2.5,29.97335967744891,
4,0,4,0,4,0,4,0,,,,,,,,,,,,,,,,,,,,,,,,,,,,,,,,,,,,,,,,,,,,,,,,,,,276.81336999998894,276.81336999998894,0.008778000017628074,0.11449770000763237,1.0,2.373590699979104,,,,,,,,,,,,,,2993,Moral,2024-07-25_11h35.38.430,MoralCondition_v2,2022.2.5,29.97335967744891,
4,0,4,0,5,0,5,0,,,,,,,,,,,,,,,,,,,,,,,,,,,,,,,,,,,,,,,,,,,,,,,,,,,279.213210200076,279.213210200076,0.006523500080220401,0.0991563000716269,2.0,1.4603362999623641,,,,,,,,,,,,,,2993,Moral,2024-07-25_11h35.38.430,MoralCondition_v2,2022.2.5,29.97335967744891,
4,0,4,0,6,0,6,0,,,,,,,,,,,,,,,,,,,,,,,,,,,,,,,,,,,,,,,,,,,,,,,,,,,280.7130578000797,280.7130578000797,0.006832100101746619,0.09933130000717938,6.0,1.3599979999708012,,,,,,,,,,,,,,2993,Moral,2024-07-25_11h35.38.430,MoralCondition_v2,2022.2.5,29.97335967744891,
4,0,4,0,,,,,,,,,,,,,,,,,,,,,,,,,,,,,,,,,,,,,,,,,,,,,,,,,,,,,,,,,,,,,282.11306660005357,282.11306660005357,0.001191499992273748,0.0978870999533683,7.0,2.7980820999946445,,,,,,,,2993,Moral,2024-07-25_11h35.38.430,MoralCondition_v2,2022.2.5,29.97335967744891,
5,0,5,0,0,0,0,0,,,,,,,,,,,,,,,,,,,,284.94668370008003,0.00013509998098015785,0.09910759993363172,290.94645899999887,5.99912209995091,6.099127599969506,291.14647760009393,291.14647760009393,0.08389230002649128,0.19935150002129376,5.999206600012258,297.21314220002387,297.21314220002387,297.21314220002387,0.06386510003358126,0.1660550000378862,302.91293150000274,303.11311090004165,5.999162600026466,6.099123100051656,309.1130675000604,11.999114700010978,309.2467664000578,309.2467664000578,0.00019240006804466248,0.09910310001578182,down,0.5903328000567853,309.87975090008695,3.8499943912029266e-05,0.09806570003274828,315.89629820000846,315.89629820000846,0.02423019998241216,0.114868100034073,5.0,2.3583650999935344,,,,,,,297.21314220002387,297.21314220002387,309.2132905999897,309.2132905999897,,6.099115299992263,12.099351400043815,2993,Moral,2024-07-25_11h35.38.430,MoralCondition_v2,2022.2.5,29.97335967744891,
5,0,5,0,1,0,1,0,,,,,,,,,,,,,,,,,,,,,,,,,,,,,,,,,,,,,,,,,,,,,,,,,,,318.2963238999946,318.2963238999946,0.007240900071337819,0.09798820002470165,5.0,1.4918642999837175,,,,,,,,,,,,,,2993,Moral,2024-07-25_11h35.38.430,MoralCondition_v2,2022.2.5,29.97335967744891,
5,0,5,0,2,0,2,0,,,,,,,,,,,,,,,,,,,,,,,,,,,,,,,,,,,,,,,,,,,,,,,,,,,319.8296755000483,319.8296755000483,0.00660650001373142,0.09905620000790805,2.0,1.893545200000517,,,,,,,,,,,,,,2993,Moral,2024-07-25_11h35.38.430,MoralCondition_v2,2022.2.5,29.97335967744891,
5,0,5,0,3,0,3,0,,,,,,,,,,,,,,,,,,,,,,,,,,,,,,,,,,,,,,,,,,,,,,,,,,,321.76319780002814,321.76319780002814,0.00725260004401207,0.09794940007850528,2.0,1.7918291999958456,,,,,,,,,,,,,,2993,Moral,2024-07-25_11h35.38.430,MoralCondition_v2,2022.2.5,29.97335967744891,
5,0,5,0,4,0,4,0,,,,,,,,,,,,,,,,,,,,,,,,,,,,,,,,,,,,,,,,,,,,,,,,,,,323.6131195999915,323.6131195999915,0.00849130004644394,0.11459060001652688,2.0,1.8737050000345334,,,,,,,,,,,,,,2993,Moral,2024-07-25_11h35.38.430,MoralCondition_v2,2022.2.5,29.97335967744891,
5,0,5,0,5,0,5,0,,,,,,,,,,,,,,,,,,,,,,,,,,,,,,,,,,,,,,,,,,,,,,,,,,,325.5129321999848,325.5129321999848,0.007970399921759963,0.09825739997904748,2.0,2.0914687999757007,,,,,,,,,,,,,,2993,Moral,2024-07-25_11h35.38.430,MoralCondition_v2,2022.2.5,29.97335967744891,
5,0,5,0,6,0,6,0,,,,,,,,,,,,,,,,,,,,,,,,,,,,,,,,,,,,,,,,,,,,,,,,,,,327.64644180005416,327.64644180005416,0.007566399988718331,0.09778109996113926,1.0,1.3245981999207288,,,,,,,,,,,,,,2993,Moral,2024-07-25_11h35.38.430,MoralCondition_v2,2022.2.5,29.97335967744891,
5,0,5,0,,,,,,,,,,,,,,,,,,,,,,,,,,,,,,,,,,,,,,,,,,,,,,,,,,,,,,,,,,,,,329.0131771999877,329.0131771999877,0.0014831000007689,0.09720369998831302,1.0,2.630695999949239,,,,,,,,2993,Moral,2024-07-25_11h35.38.430,MoralCondition_v2,2022.2.5,29.97335967744891,
6,0,6,0,0,0,0,0,,,,,,,,,,,,,,,,,,,,331.67948709998745,8.87999776750803e-05,0.0990126000251621,337.6963299000636,6.015948800020851,,337.8630584999919,337.8630584999919,0.0796591000398621,0.18287010001949966,6.016021199990064,343.9632765999995,343.9632765999995,343.9632765999995,0.07347330008633435,0.18264660006389022,349.66296250000596,349.8629705000203,6.015922600054182,6.1158934000413865,355.862976500066,12.01592380006332,355.9962690999964,355.9962690999964,0.01612760010175407,0.11585120006930083,up,0.6009893999435008,356.66293460002635,5.3200055845081806e-05,0.09792010008823127,362.66343570000026,362.66343570000026,0.009645800106227398,0.098133800085634,7.0,2.6894917999161407,,,,,,,343.8629938000813,343.8629938000813,355.9629742000252,355.9629742000252,362.66343570000026,,,2993,Moral,2024-07-25_11h35.38.430,MoralCondition_v2,2022.2.5,29.97335967744891,
6,0,6,0,1,0,1,0,,,,,,,,,,,,,,,,,,,,,,,,,,,,,,,,,,,,,,,,,,,,,,,,,,,365.39610000001267,365.39610000001267,0.006599299958907068,0.09907809994183481,2.0,1.5601773000089452,,,,,,,,,,,,,,2993,Moral,2024-07-25_11h35.38.430,MoralCondition_v2,2022.2.5,29.97335967744891,
6,0,6,0,2,0,2,0,,,,,,,,,,,,,,,,,,,,,,,,,,,,,,,,,,,,,,,,,,,,,,,,,,,366.9960536999861,366.9960536999861,0.00647749996278435,0.0984324999153614,6.0,1.2267432999797165,,,,,,,,,,,,,,2993,Moral,2024-07-25_11h35.38.430,MoralCondition_v2,2022.2.5,29.97335967744891,
6,0,6,0,3,0,3,0,,,,,,,,,,,,,,,,,,,,,,,,,,,,,,,,,,,,,,,,,,,,,,,,,,,368.2630642000586,368.2630642000586,0.007686399971134961,0.0977321999380365,1.0,1.5246284999884665,,,,,,,,,,,,,,2993,Moral,2024-07-25_11h35.38.430,MoralCondition_v2,2022.2.5,29.97335967744891,
6,0,6,0,4,0,4,0,,,,,,,,,,,,,,,,,,,,,,,,,,,,,,,,,,,,,,,,,,,,,,,,,,,369.84628619998693,369.84628619998693,0.009057399933226407,0.1139033999061212,1.0,1.072372099966742,,,,,,,,,,,,,,2993,Moral,2024-07-25_11h35.38.430,MoralCondition_v2,2022.2.5,29.97335967744891,
6,0,6,0,5,0,5,0,,,,,,,,,,,,,,,,,,,,,,,,,,,,,,,,,,,,,,,,,,,,,,,,,,,370.96311900008004,370.96311900008004,0.008423099992796779,0.11441459995694458,2.0,1.740317599964328,,,,,,,,,,,,,,2993,Moral,2024-07-25_11h35.38.430,MoralCondition_v2,2022.2.5,29.97335967744891,
6,0,6,0,6,0,6,0,,,,,,,,,,,,,,,,,,,,,,,,,,,,,,,,,,,,,,,,,,,,,,,,,,,372.74639039998874,372.74639039998874,0.008291799924336374,0.11446009995415807,2.0,1.2074121999321505,,,,,,,,,,,,,,2993,Moral,2024-07-25_11h35.38.430,MoralCondition_v2,2022.2.5,29.97335967744891,
6,0,6,0,,,,,,,,,,,,,,,,,,,,,,,,,,,,,,,,,,,,,,,,,,,,,,,,,,,,,,,,,,,,,373.9798937999876,373.9798937999876,0.000681400066241622,0.09901690005790442,7.0,1.8328067999100313,,,,,,,,2993,Moral,2024-07-25_11h35.38.430,MoralCondition_v2,2022.2.5,29.97335967744891,
7,0,7,0,0,0,0,0,,,,,,,,,,,,,,,,,,,,375.84620390005875,0.00034990010317415,0.09726840001530945,381.8461067000171,6.0137187000364065,6.097176800016314,382.0127713000402,382.0127713000402,0.0626199000980705,0.16348810005001724,6.030623500118963,388.14636940008495,388.14636940008495,388.14636940008495,0.0887433000607416,0.19736100011505187,393.84624089999124,394.0462078000419,6.030528000090271,6.130515200085938,400.04637840006035,12.030706000048667,400.17950860003475,400.17950860003475,0.03058640006929636,0.13046230014879256,down,0.521871600067243,400.7629821000155,6.19000056758523e-05,0.09791750006843358,406.7632458000444,406.7632458000444,0.007123399991542101,0.09796090004965663,1.0,2.3917638999409974,,,,,,,388.01285140006803,388.01285140006803,400.14611349999905,400.14611349999905,406.7632458000444,,,2993,Moral,2024-07-25_11h35.38.430,MoralCondition_v2,2022.2.5,29.97335967744891,
7,0,7,0,1,0,1,0,,,,,,,,,,,,,,,,,,,,,,,,,,,,,,,,,,,,,,,,,,,,,,,,,,,409.1960154999979,409.1960154999979,0.0064221000066027045,0.09909399994648993,5.0,2.2937071999767795,,,,,,,,,,,,,,2993,Moral,2024-07-25_11h35.38.430,MoralCondition_v2,2022.2.5,29.97335967744891,
7,0,7,0,2,0,2,0,,,,,,,,,,,,,,,,,,,,,,,,,,,,,,,,,,,,,,,,,,,,,,,,,,,411.52947890001815,411.52947890001815,0.006828800076618791,0.09801650000736117,2.0,1.5925533999688923,,,,,,,,,,,,,,2993,Moral,2024-07-25_11h35.38.430,MoralCondition_v2,2022.2.5,29.97335967744891,
7,0,7,0,3,0,3,0,,,,,,,,,,,,,,,,,,,,,,,,,,,,,,,,,,,,,,,,,,,,,,,,,,,413.1627017999999,413.1627017999999,0.007061900105327368,0.09926810010802001,2.0,1.7597757999319583,,,,,,,,,,,,,,2993,Moral,2024-07-25_11h35.38.430,MoralCondition_v2,2022.2.5,29.97335967744891,
7,0,7,0,4,0,4,0,,,,,,,,,,,,,,,,,,,,,,,,,,,,,,,,,,,,,,,,,,,,,,,,,,,414.9629196000751,414.9629196000751,0.006709599983878434,0.09915319993160665,6.0,3.160068599972874,,,,,,,,,,,,,,2993,Moral,2024-07-25_11h35.38.430,MoralCondition_v2,2022.2.5,29.97335967744891,
7,0,7,0,5,0,5,0,,,,,,,,,,,,,,,,,,,,,,,,,,,,,,,,,,,,,,,,,,,,,,,,,,,418.1626424000133,418.1626424000133,0.006844799965620041,0.09918569994624704,2.0,2.4267785000847653,,,,,,,,,,,,,,2993,Moral,2024-07-25_11h35.38.430,MoralCondition_v2,2022.2.5,29.97335967744891,
7,0,7,0,6,0,6,0,,,,,,,,,,,,,,,,,,,,,,,,,,,,,,,,,,,,,,,,,,,,,,,,,,,420.6294046000112,420.6294046000112,0.006607999908737838,0.09934419998899102,2.0,1.260112899937667,,,,,,,,,,,,,,2993,Moral,2024-07-25_11h35.38.430,MoralCondition_v2,2022.2.5,29.97335967744891,
7,0,7,0,,,,,,,,,,,,,,,,,,,,,,,,,,,,,,,,,,,,,,,,,,,,,,,,,,,,,,,,,,,,,421.92922839999665,421.92922839999665,0.0017042000545188785,0.09861720004118979,1.0,1.9645889000967145,,,,,,,,2993,Moral,2024-07-25_11h35.38.430,MoralCondition_v2,2022.2.5,29.97335967744891,
8,0,8,0,0,0,0,0,,,,,,,,,,,,,,,,,,,,423.9294296000153,0.00013870000839233398,0.09918930009007454,429.9460293999873,6.015749900019728,,430.1129654000979,430.1129654000979,0.07668410008773208,0.18285150011070073,6.015885600121692,436.2129512000829,436.2129512000829,436.2129512000829,0.06757260009180754,0.18243480008095503,441.91269940009806,442.11266280000564,6.015757600078359,6.115694200037979,448.1127460000571,12.015851800097153,448.2459817000199,448.2459817000199,0.015873800148256123,0.11573720013257116,down,0.7357760000741109,449.0124869000865,1.3299984857439995e-05,0.09962570003699511,455.01282260008156,455.01282260008156,0.016342799994163215,0.11635670007672161,2.0,2.089926699991338,,,,,,,436.1126942000119,436.1126942000119,448.2126371000195,448.2126371000195,455.01282260008156,,,2993,Moral,2024-07-25_11h35.38.430,MoralCondition_v2,2022.2.5,29.97335967744891,
8,0,8,0,1,0,1,0,,,,,,,,,,,,,,,,,,,,,,,,,,,,,,,,,,,,,,,,,,,,,,,,,,,457.14606330008246,457.14606330008246,0.007201300002634525,0.09920870000496507,2.0,3.5596818000776693,,,,,,,,,,,,,,2993,Moral,2024-07-25_11h35.38.430,MoralCondition_v2,2022.2.5,29.97335967744891,
8,0,8,0,2,0,2,0,,,,,,,,,,,,,,,,,,,,,,,,,,,,,,,,,,,,,,,,,,,,,,,,,,,460.7459124000743,460.7459124000743,0.007035300019197166,0.09841490001417696,6.0,1.9259323000442237,,,,,,,,,,,,,,2993,Moral,2024-07-25_11h35.38.430,MoralCondition_v2,2022.2.5,29.97335967744891,
8,0,8,0,3,0,3,0,,,,,,,,,,,,,,,,,,,,,,,,,,,,,,,,,,,,,,,,,,,,,,,,,,,462.72940760001075,462.72940760001075,0.009054300026036799,0.11405269999522716,6.0,1.839408400002867,,,,,,,,,,,,,,2993,Moral,2024-07-25_11h35.38.430,MoralCondition_v2,2022.2.5,29.97335967744891,
8,0,8,0,4,0,4,0,,,,,,,,,,,,,,,,,,,,,,,,,,,,,,,,,,,,,,,,,,,,,,,,,,,464.5961368000135,464.5961368000135,0.006612399942241609,0.09762119990773499,2.0,1.2925227000378072,,,,,,,,,,,,,,2993,Moral,2024-07-25_11h35.38.430,MoralCondition_v2,2022.2.5,29.97335967744891,
8,0,8,0,5,0,5,0,,,,,,,,,,,,,,,,,,,,,,,,,,,,,,,,,,,,,,,,,,,,,,,,,,,465.9290865000803,465.9290865000803,0.008102099993266165,0.09785459993872792,2.0,1.1241146000102162,,,,,,,,,,,,,,2993,Moral,2024-07-25_11h35.38.430,MoralCondition_v2,2022.2.5,29.97335967744891,
8,0,8,0,6,0,6,0,,,,,,,,,,,,,,,,,,,,,,,,,,,,,,,,,,,,,,,,,,,,,,,,,,,467.09591899998486,467.09591899998486,0.006299300002865493,0.09895650006365031,1.0,1.5270252999616787,,,,,,,,,,,,,,2993,Moral,2024-07-25_11h35.38.430,MoralCondition_v2,2022.2.5,29.97335967744891,
8,0,8,0,,,,,,,,,,,,,,,,,,,,,,,,,,,,,,,,,,,,,,,,,,,,,,,,,,,,,,,,,,,,,468.662850700086,468.662850700086,0.0006673999596387148,0.09955249994527549,1.0,1.7997655000071973,,,,,,,,2993,Moral,2024-07-25_11h35.38.430,MoralCondition_v2,2022.2.5,29.97335967744891,
9,0,9,0,0,0,0,0,,,,,,,,,,,,,,,,,,,,470.4961729000788,0.00013219995889812708,0.09926469996571541,476.51256470009685,6.015791599988006,,476.679441699991,476.679441699991,0.07543740002438426,0.18276519991923124,6.015894599957392,482.7793692999985,482.7793692999985,482.7793692999985,0.07020269997883588,0.18264410004485399,488.4791490000207,488.67921289999504,6.015854400000535,6.1159025999950245,494.6792187000392,12.015858600032516,494.8123465999961,494.8123465999961,0.01595260004978627,0.11552170000504702,up,0.664955599932,495.5293975000968,5.64999645575881e-05,0.09775630000513047,501.5293417000212,501.5293417000212,0.007537199999205768,0.09759040002245456,7.0,1.6246308999834582,,,,,,,482.67926960007753,482.67926960007753,494.7791537999874,494.7791537999874,501.5293417000212,,,2993,Moral,2024-07-25_11h35.38.430,MoralCondition_v2,2022.2.5,29.97335967744891,
9,0,9,0,1,0,1,0,,,,,,,,,,,,,,,,,,,,,,,,,,,,,,,,,,,,,,,,,,,,,,,,,,,503.1959598000394,503.1959598000394,0.0061237000627443194,0.09907160000875592,1.0,1.1271603000350296,,,,,,,,,,,,,,2993,Moral,2024-07-25_11h35.38.430,MoralCondition_v2,2022.2.5,29.97335967744891,
9,0,9,0,2,0,2,0,,,,,,,,,,,,,,,,,,,,,,,,,,,,,,,,,,,,,,,,,,,,,,,,,,,504.36249249998946,504.36249249998946,0.006594100035727024,0.09948019997682422,1.0,1.293695000000298,,,,,,,,,,,,,,2993,Moral,2024-07-25_11h35.38.430,MoralCondition_v2,2022.2.5,29.97335967744891,
9,0,9,0,3,0,3,0,,,,,,,,,,,,,,,,,,,,,,,,,,,,,,,,,,,,,,,,,,,,,,,,,,,505.6959252000088,505.6959252000088,0.007305199978873134,0.09809529990889132,2.0,1.0588301999960095,,,,,,,,,,,,,,2993,Moral,2024-07-25_11h35.38.430,MoralCondition_v2,2022.2.5,29.97335967744891,
9,0,9,0,4,0,4,0,,,,,,,,,,,,,,,,,,,,,,,,,,,,,,,,,,,,,,,,,,,,,,,,,,,506.79581819998566,506.79581819998566,0.007262400002218783,0.09820350003428757,2.0,0.9584921000059694,,,,,,,,,,,,,,2993,Moral,2024-07-25_11h35.38.430,MoralCondition_v2,2022.2.5,29.97335967744891,
9,0,9,0,5,0,5,0,,,,,,,,,,,,,,,,,,,,,,,,,,,,,,,,,,,,,,,,,,,,,,,,,,,507.79585990007035,507.79585990007035,0.007751400000415742,0.09784609999042004,1.0,1.6910264999605715,,,,,,,,,,,,,,2993,Moral,2024-07-25_11h35.38.430,MoralCondition_v2,2022.2.5,29.97335967744891,
9,0,9,0,6,0,6,0,,,,,,,,,,,,,,,,,,,,,,,,,,,,,,,,,,,,,,,,,,,,,,,,,,,509.5460848000366,509.5460848000366,0.009000899968668818,0.11439499992411584,6.0,1.1399394000181928,,,,,,,,,,,,,,2993,Moral,2024-07-25_11h35.38.430,MoralCondition_v2,2022.2.5,29.97335967744891,
9,0,9,0,,,,,,,,,,,,,,,,,,,,,,,,,,,,,,,,,,,,,,,,,,,,,,,,,,,,,,,,,,,,,510.71251169999596,510.71251169999596,0.0007206000154837966,0.09898849995806813,7.0,3.599620599998161,,,,,,,,2993,Moral,2024-07-25_11h35.38.430,MoralCondition_v2,2022.2.5,29.97335967744891,
10,0,10,0,0,0,0,0,,,,,,,,,,,,,,,,,,,,514.3461085000308,0.00013679999392479658,0.09919979993719608,520.3623728000093,6.015826300019398,,520.5459455000237,520.5459455000237,0.08437609998509288,0.19923379993997514,5.999157799989916,526.6123586000176,526.6123586000176,526.6123586000176,0.05905370006803423,0.16596480004955083,532.3123233000515,532.5123158000642,5.999097799998708,6.0990753000369295,538.5122929000063,11.999055200023577,538.6456089999992,538.6456089999992,-0.0001257999101653695,0.09905620000790805,up,0.5601986999390647,539.2456830000738,4.1499966755509377e-05,0.0979508999735117,545.2456273999996,545.2456273999996,0.0065243999706581235,0.09805999998934567,1.0,1.6927481000311673,,,,,,,526.6123586000176,526.6123586000176,538.6123309000395,538.6123309000395,545.2456273999996,6.09913129999768,12.099121500039473,2993,Moral,2024-07-25_11h35.38.430,MoralCondition_v2,2022.2.5,29.97335967744891,
10,0,10,0,1,0,1,0,,,,,,,,,,,,,,,,,,,,,,,,,,,,,,,,,,,,,,,,,,,,,,,,,,,546.9790144000435,546.9790144000435,0.006705499952659011,0.09918869996909052,2.0,2.4934131000190973,,,,,,,,,,,,,,2993,Moral,2024-07-25_11h35.38.430,MoralCondition_v2,2022.2.5,29.97335967744891,
10,0,10,0,2,0,2,0,,,,,,,,,,,,,,,,,,,,,,,,,,,,,,,,,,,,,,,,,,,,,,,,,,,549.5123631000752,549.5123631000752,0.008805599994957447,0.09790729999076575,7.0,1.3567855000728741,,,,,,,,,,,,,,2993,Moral,2024-07-25_11h35.38.430,MoralCondition_v2,2022.2.5,29.97335967744891,
10,0,10,0,3,0,3,0,,,,,,,,,,,,,,,,,,,,,,,,,,,,,,,,,,,,,,,,,,,,,,,,,,,550.9124332000501,550.9124332000501,0.007462699897587299,0.09792509989347309,1.0,1.1582457000622526,,,,,,,,,,,,,,2993,Moral,2024-07-25_11h35.38.430,MoralCondition_v2,2022.2.5,29.97335967744891,
10,0,10,0,4,0,4,0,,,,,,,,,,,,,,,,,,,,,,,,,,,,,,,,,,,,,,,,,,,,,,,,,,,552.1121349000605,552.1121349000605,0.0077300999546423554,0.09797999996226281,2.0,1.0577698000706732,,,,,,,,,,,,,,2993,Moral,2024-07-25_11h35.38.430,MoralCondition_v2,2022.2.5,29.97335967744891,
10,0,10,0,5,0,5,0,,,,,,,,,,,,,,,,,,,,,,,,,,,,,,,,,,,,,,,,,,,,,,,,,,,553.2291494000237,553.2291494000237,0.008098900085315108,0.11438769998494536,2.0,0.8740538998972625,,,,,,,,,,,,,,2993,Moral,2024-07-25_11h35.38.430,MoralCondition_v2,2022.2.5,29.97335967744891,
10,0,10,0,6,0,6,0,,,,,,,,,,,,,,,,,,,,,,,,,,,,,,,,,,,,,,,,,,,,,,,,,,,554.1457196000265,554.1457196000265,0.008902600035071373,0.11442130000796169,6.0,1.4065331000601873,,,,,,,,,,,,,,2993,Moral,2024-07-25_11h35.38.430,MoralCondition_v2,2022.2.5,29.97335967744891,
10,0,10,0,,,,,,,,,,,,,,,,,,,,,,,,,,,,,,,,,,,,,,,,,,,,,,,,,,,,,,,,,,,,,555.579180700006,555.579180700006,0.0015084999613463879,0.09889129991643131,7.0,3.8318178000627086,,,,,,,,2993,Moral,2024-07-25_11h35.38.430,MoralCondition_v2,2022.2.5,29.97335967744891,
11,0,11,0,0,0,0,0,,,,,,,,,,,,,,,,,,,,559.4458599000936,0.000152299995534122,0.09926729998551309,565.4455902000191,5.999267900013365,6.099459700053558,565.6123376000905,565.6123376000905,0.06437460007146001,0.16626099997665733,5.999265399994329,571.71224360005,571.71224360005,571.71224360005,0.05263250006828457,0.16606449999380857,577.412278200034,577.6121948000509,5.999239500029944,6.099224800011143,583.6121283000102,11.99917500000447,583.7456708000973,583.7456708000973,-2.0999927073717117e-05,0.09927710006013513,up,0.7389355000341311,584.5454688000027,4.7900015488266945e-05,0.09813329996541142,590.5622090999968,590.5622090999968,0.009607100044377148,0.11446189996786416,7.0,1.4734902000054717,,,,,,,571.6121694000904,571.6121694000904,583.7121536000632,583.7121536000632,590.5622090999968,6.099223700002767,12.099205700098537,2993,Moral,2024-07-25_11h35.38.430,MoralCondition_v2,2022.2.5,29.97335967744891,
11,0,11,0,1,0,1,0,,,,,,,,,,,,,,,,,,,,,,,,,,,,,,,,,,,,,,,,,,,,,,,,,,,592.0788456000155,592.0788456000155,0.007746899966150522,0.1144203000003472,1.0,1.7073551000794396,,,,,,,,,,,,,,2993,Moral,2024-07-25_11h35.38.430,MoralCondition_v2,2022.2.5,29.97335967744891,
11,0,11,0,2,0,2,0,,,,,,,,,,,,,,,,,,,,,,,,,,,,,,,,,,,,,,,,,,,,,,,,,,,593.829091200023,593.829091200023,0.009458299959078431,0.11382319999393076,2.0,1.3721002000384033,,,,,,,,,,,,,,2993,Moral,2024-07-25_11h35.38.430,MoralCondition_v2,2022.2.5,29.97335967744891,
11,0,11,0,3,0,3,0,,,,,,,,,,,,,,,,,,,,,,,,,,,,,,,,,,,,,,,,,,,,,,,,,,,595.2288199000759,595.2288199000759,0.007119499961845577,0.0987827000208199,2.0,0.8924646000377834,,,,,,,,,,,,,,2993,Moral,2024-07-25_11h35.38.430,MoralCondition_v2,2022.2.5,29.97335967744891,
11,0,11,0,4,0,4,0,,,,,,,,,,,,,,,,,,,,,,,,,,,,,,,,,,,,,,,,,,,,,,,,,,,596.1620756000048,596.1620756000048,0.0064073000103235245,0.09913949994370341,6.0,1.5272085999604315,,,,,,,,,,,,,,2993,Moral,2024-07-25_11h35.38.430,MoralCondition_v2,2022.2.5,29.97335967744891,
11,0,11,0,5,0,5,0,,,,,,,,,,,,,,,,,,,,,,,,,,,,,,,,,,,,,,,,,,,,,,,,,,,597.7287628999911,597.7287628999911,0.007213500095531344,0.0997836000751704,2.0,1.126301100011915,,,,,,,,,,,,,,2993,Moral,2024-07-25_11h35.38.430,MoralCondition_v2,2022.2.5,29.97335967744891,
11,0,11,0,6,0,6,0,,,,,,,,,,,,,,,,,,,,,,,,,,,,,,,,,,,,,,,,,,,,,,,,,,,598.8953558000503,598.8953558000503,0.00860059994738549,0.09905589988920838,1.0,1.0915372000308707,,,,,,,,,,,,,,2993,Moral,2024-07-25_11h35.38.430,MoralCondition_v2,2022.2.5,29.97335967744891,
11,0,11,0,,,,,,,,,,,,,,,,,,,,,,,,,,,,,,,,,,,,,,,,,,,,,,,,,,,,,,,,,,,,,600.028777700034,600.028777700034,0.0007018999895080924,0.09898220002651215,7.0,1.9329270001035184,,,,,,,,2993,Moral,2024-07-25_11h35.38.430,MoralCondition_v2,2022.2.5,29.97335967744891,
12,0,12,0,0,0,0,0,,,,,,,,,,,,,,,,,,,,601.9956011000322,0.00027600000612437725,0.0979728999081999,607.9953570000362,6.031082100002095,,608.228770500049,608.228770500049,0.12618949997704476,0.23129409993998706,6.031020499998704,614.2785560000921,614.2785560000921,614.2785560000921,0.07964160002302378,0.18093699996825308,619.9788200000767,620.1789354000939,6.0146432999754325,6.11427260003984,626.1786277000792,12.014337899978273,626.3119299000828,626.3119299000828,0.014478500001132488,0.11442380002699792,up,1.972900400054641,628.3453144000378,2.1700048819184303e-05,0.09911469998769462,634.3617087000748,634.3617087000748,0.02695770002901554,0.11602359998505563,2.0,2.723207400063984,,,,,,,,,626.278594500036,626.278594500036,,,,2993,Moral,2024-07-25_11h35.38.430,MoralCondition_v2,2022.2.5,29.97335967744891,
12,0,12,0,1,0,1,0,,,,,,,,,,,,,,,,,,,,,,,,,,,,,,,,,,,,,,,,,,,,,,,,,,,637.1284283000277,637.1284283000277,0.006593500031158328,0.09921670006588101,6.0,1.427058200002648,,,,,,,,,,,,,,2993,Moral,2024-07-25_11h35.38.430,MoralCondition_v2,2022.2.5,29.97335967744891,
12,0,12,0,2,0,2,0,,,,,,,,,,,,,,,,,,,,,,,,,,,,,,,,,,,,,,,,,,,,,,,,,,,638.5953696999932,638.5953696999932,0.006983599974773824,0.09751879994291812,1.0,1.1583458000095561,,,,,,,,,,,,,,2993,Moral,2024-07-25_11h35.38.430,MoralCondition_v2,2022.2.5,29.97335967744891,
12,0,12,0,3,0,3,0,,,,,,,,,,,,,,,,,,,,,,,,,,,,,,,,,,,,,,,,,,,,,,,,,,,639.7952482000692,639.7952482000692,0.00918589998036623,0.0976888999575749,7.0,1.5226454000221565,,,,,,,,,,,,,,2993,Moral,2024-07-25_11h35.38.430,MoralCondition_v2,2022.2.5,29.97335967744891,
12,0,12,0,4,0,4,0,,,,,,,,,,,,,,,,,,,,,,,,,,,,,,,,,,,,,,,,,,,,,,,,,,,641.3620233000256,641.3620233000256,0.008352400036528707,0.0985530000180006,2.0,1.2245301000075415,,,,,,,,,,,,,,2993,Moral,2024-07-25_11h35.38.430,MoralCondition_v2,2022.2.5,29.97335967744891,
12,0,12,0,5,0,5,0,,,,,,,,,,,,,,,,,,,,,,,,,,,,,,,,,,,,,,,,,,,,,,,,,,,642.6286643000785,642.6286643000785,0.00655749998986721,0.09928819991182536,1.0,1.4602918999735266,,,,,,,,,,,,,,2993,Moral,2024-07-25_11h35.38.430,MoralCondition_v2,2022.2.5,29.97335967744891,
12,0,12,0,6,0,6,0,,,,,,,,,,,,,,,,,,,,,,,,,,,,,,,,,,,,,,,,,,,,,,,,,,,644.1285160999978,644.1285160999978,0.006912299897521734,0.09813049994409084,2.0,1.0593120000557974,,,,,,,,,,,,,,2993,Moral,2024-07-25_11h35.38.430,MoralCondition_v2,2022.2.5,29.97335967744891,
12,0,12,0,,,,,,,,,,,,,,,,,,,,,,,,,,,,,,,,,,,,,,,,,,,,,,,,,,,,,,,,,,,,,645.2286683000857,645.2286683000857,0.0016453999560326338,0.09776849998161197,7.0,2.397469599964097,,,,,,,,2993,Moral,2024-07-25_11h35.38.430,MoralCondition_v2,2022.2.5,29.97335967744891,
13,0,13,0,0,0,0,0,,,,,,,,,,,,,,,,,,,,647.6621467000805,0.00013589998707175255,0.09932130004744977,653.6785106000025,6.015919300029054,,653.8620205000043,653.8620205000043,0.09079839999321848,0.19951710000168532,5.9992541000247,659.945389600005,659.945389600005,659.945389600005,0.06940360006410629,0.18284240004140884,665.6451427000575,665.8451533000916,6.015954000060447,6.115973700070754,671.8451561999973,12.01595630007796,671.9784821000649,671.9784821000649,0.016221200115978718,0.11582350009121001,up,0.5302713999990374,672.5451993000461,4.7200010158121586e-05,0.09762959997169673,678.5786713000853,678.5786713000853,0.026695200009271502,0.13128209998831153,2.0,2.372326700016856,,,,,,,659.945389600005,659.945389600005,671.9451208000537,671.9451208000537,,6.0992593000410125,,2993,Moral,2024-07-25_11h35.38.430,MoralCondition_v2,2022.2.5,29.97335967744891,
13,0,13,0,1,0,1,0,,,,,,,,,,,,,,,,,,,,,,,,,,,,,,,,,,,,,,,,,,,,,,,,,,,680.9785610000836,680.9785610000836,0.006908300099894404,0.0991756001021713,6.0,1.8265171999810264,,,,,,,,,,,,,,2993,Moral,2024-07-25_11h35.38.430,MoralCondition_v2,2022.2.5,29.97335967744891,
13,0,13,0,2,0,2,0,,,,,,,,,,,,,,,,,,,,,,,,,,,,,,,,,,,,,,,,,,,,,,,,,,,682.8449084000895,682.8449084000895,0.007222000043839216,0.09775630000513047,1.0,1.0916996001033112,,,,,,,,,,,,,,2993,Moral,2024-07-25_11h35.38.430,MoralCondition_v2,2022.2.5,29.97335967744891,
13,0,13,0,3,0,3,0,,,,,,,,,,,,,,,,,,,,,,,,,,,,,,,,,,,,,,,,,,,,,,,,,,,683.9785167000955,683.9785167000955,0.007974799955263734,0.09909689996857196,2.0,1.1922664999729022,,,,,,,,,,,,,,2993,Moral,2024-07-25_11h35.38.430,MoralCondition_v2,2022.2.5,29.97335967744891,
13,0,13,0,4,0,4,0,,,,,,,,,,,,,,,,,,,,,,,,,,,,,,,,,,,,,,,,,,,,,,,,,,,685.2115566000575,685.2115566000575,0.007860900019295514,0.0978844000492245,2.0,0.9242524000583217,,,,,,,,,,,,,,2993,Moral,2024-07-25_11h35.38.430,MoralCondition_v2,2022.2.5,29.97335967744891,
13,0,13,0,5,0,5,0,,,,,,,,,,,,,,,,,,,,,,,,,,,,,,,,,,,,,,,,,,,,,,,,,,,686.1784830000252,686.1784830000252,0.00865870004054159,0.09764990000985563,7.0,1.0233130999840796,,,,,,,,,,,,,,2993,Moral,2024-07-25_11h35.38.430,MoralCondition_v2,2022.2.5,29.97335967744891,
13,0,13,0,6,0,6,0,,,,,,,,,,,,,,,,,,,,,,,,,,,,,,,,,,,,,,,,,,,,,,,,,,,687.245072400081,687.245072400081,0.006820300011895597,0.09932409995235503,1.0,1.2267941000172868,,,,,,,,,,,,,,2993,Moral,2024-07-25_11h35.38.430,MoralCondition_v2,2022.2.5,29.97335967744891,
13,0,13,0,,,,,,,,,,,,,,,,,,,,,,,,,,,,,,,,,,,,,,,,,,,,,,,,,,,,,,,,,,,,,688.5117396999849,688.5117396999849,0.0019711999921128154,0.09728190000168979,7.0,2.630206299945712,,,,,,,,2993,Moral,2024-07-25_11h35.38.430,MoralCondition_v2,2022.2.5,29.97335967744891,
14,0,14,0,0,0,0,0,,,,,,,,,,,,,,,,,,,,691.1786136000883,0.00024259998463094234,0.09906129993032664,697.1784602000844,6.032351000001654,,697.3951461000834,697.3951461000834,0.1028890999732539,0.215857999981381,6.015724100056104,703.4616462000413,703.4616462000413,703.4616462000413,0.08214240008965135,0.18247120000887662,709.1616465999978,709.3616169000743,6.015586100053042,6.11560790007934,715.3614710000111,12.01534550008364,715.4949602000415,715.4949602000415,0.01546350005082786,0.11548850010149181,down,0.4784222000744194,716.0282442000462,1.7000013031065464e-05,0.09911349997855723,722.0452049000887,722.0452049000887,0.00988230004440993,0.1159345000050962,6.0,3.606943399994634,,,,,,,,,715.4448237000033,715.4448237000033,722.0452049000887,,,2993,Moral,2024-07-25_11h35.38.430,MoralCondition_v2,2022.2.5,29.97335967744891,
14,0,14,0,1,0,1,0,,,,,,,,,,,,,,,,,,,,,,,,,,,,,,,,,,,,,,,,,,,,,,,,,,,725.6782266000519,725.6782266000519,0.009160400019027293,0.09919610002543777,2.0,1.524403000017628,,,,,,,,,,,,,,2993,Moral,2024-07-25_11h35.38.430,MoralCondition_v2,2022.2.5,29.97335967744891,
14,0,14,0,2,0,2,0,,,,,,,,,,,,,,,,,,,,,,,,,,,,,,,,,,,,,,,,,,,,,,,,,,,727.2450005999999,727.2450005999999,0.007220700033940375,0.09803350002039224,1.0,1.3916561999358237,,,,,,,,,,,,,,2993,Moral,2024-07-25_11h35.38.430,MoralCondition_v2,2022.2.5,29.97335967744891,
14,0,14,0,3,0,3,0,,,,,,,,,,,,,,,,,,,,,,,,,,,,,,,,,,,,,,,,,,,,,,,,,,,728.6781310000224,728.6781310000224,0.006693099974654615,0.09798249998129904,2.0,1.2589133000001311,,,,,,,,,,,,,,2993,Moral,2024-07-25_11h35.38.430,MoralCondition_v2,2022.2.5,29.97335967744891,
14,0,14,0,4,0,4,0,,,,,,,,,,,,,,,,,,,,,,,,,,,,,,,,,,,,,,,,,,,,,,,,,,,729.9782448000042,729.9782448000042,0.006208600010722876,0.09916979994159192,6.0,2.6939688000129536,,,,,,,,,,,,,,2993,Moral,2024-07-25_11h35.38.430,MoralCondition_v2,2022.2.5,29.97335967744891,
14,0,14,0,5,0,5,0,,,,,,,,,,,,,,,,,,,,,,,,,,,,,,,,,,,,,,,,,,,,,,,,,,,732.7116757000331,732.7116757000331,0.007214999990537763,0.09780729992780834,2.0,1.5917770999949425,,,,,,,,,,,,,,2993,Moral,2024-07-25_11h35.38.430,MoralCondition_v2,2022.2.5,29.97335967744891,
14,0,14,0,6,0,6,0,,,,,,,,,,,,,,,,,,,,,,,,,,,,,,,,,,,,,,,,,,,,,,,,,,,734.3450808000052,734.3450808000052,0.006420199992135167,0.09914030006621033,2.0,1.0942515000933781,,,,,,,,,,,,,,2993,Moral,2024-07-25_11h35.38.430,MoralCondition_v2,2022.2.5,29.97335967744891,
14,0,14,0,,,,,,,,,,,,,,,,,,,,,,,,,,,,,,,,,,,,,,,,,,,,,,,,,,,,,,,,,,,,,735.4782031000359,735.4782031000359,0.0012483999598771334,0.09796349995303899,1.0,3.431195899960585,,,,,,,,2993,Moral,2024-07-25_11h35.38.430,MoralCondition_v2,2022.2.5,29.97335967744891,
15,0,15,0,0,0,0,0,,,,,,,,,,,,,,,,,,,,738.9450105000287,0.0003206999972462654,0.09730629995465279,744.9448383999988,6.030616999953054,,745.1283500000136,745.1283500000136,0.07683169993106276,0.18075159995350987,6.013855300028808,751.2113936000969,751.2113936000969,751.2113936000969,0.06915650004521012,0.16405879997182637,756.9114313999889,757.1447338000871,6.030530099989846,6.130417000036687,763.1448004000122,12.03062360000331,763.2781002999982,763.2781002999982,0.03080870001576841,0.13047630002256483,up,0.5908919000066817,763.9113002000377,1.3399985618889332e-05,0.09919580002315342,769.9282534000231,769.9282534000231,0.010587699944153428,0.11593149998225272,2.0,2.339760899893008,,,,,,,751.1112277000211,751.1112277000211,763.2114096999867,763.2114096999867,769.9282534000231,,,2993,Moral,2024-07-25_11h35.38.430,MoralCondition_v2,2022.2.5,29.97335967744891,
15,0,15,0,1,0,1,0,,,,,,,,,,,,,,,,,,,,,,,,,,,,,,,,,,,,,,,,,,,,,,,,,,,772.2947466000915,772.2947466000915,0.006943899905309081,0.09918069990817457,3.0,3.1598091000923887,,,,,,,,,,,,,,2993,Moral,2024-07-25_11h35.38.430,MoralCondition_v2,2022.2.5,29.97335967744891,
15,0,15,0,2,0,2,0,,,,,,,,,,,,,,,,,,,,,,,,,,,,,,,,,,,,,,,,,,,,,,,,,,,775.4947145000333,775.4947145000333,0.006593100028112531,0.09949910000432283,2.0,1.6270499000092968,,,,,,,,,,,,,,2993,Moral,2024-07-25_11h35.38.430,MoralCondition_v2,2022.2.5,29.97335967744891,
15,0,15,0,3,0,3,0,,,,,,,,,,,,,,,,,,,,,,,,,,,,,,,,,,,,,,,,,,,,,,,,,,,777.1613418000052,777.1613418000052,0.0073145999340340495,0.0980126999784261,3.0,1.6586674998980016,,,,,,,,,,,,,,2993,Moral,2024-07-25_11h35.38.430,MoralCondition_v2,2022.2.5,29.97335967744891,
15,0,15,0,4,0,4,0,,,,,,,,,,,,,,,,,,,,,,,,,,,,,,,,,,,,,,,,,,,,,,,,,,,778.8611264000647,778.8611264000647,0.007611499982886016,0.09821359999477863,3.0,2.858717600000091,,,,,,,,,,,,,,2993,Moral,2024-07-25_11h35.38.430,MoralCondition_v2,2022.2.5,29.97335967744891,
15,0,15,0,5,0,5,0,,,,,,,,,,,,,,,,,,,,,,,,,,,,,,,,,,,,,,,,,,,,,,,,,,,781.7613460000139,781.7613460000139,0.0071429000236094,0.09798580000642687,2.0,2.25842399999965,,,,,,,,,,,,,,2993,Moral,2024-07-25_11h35.38.430,MoralCondition_v2,2022.2.5,29.97335967744891,
15,0,15,0,6,0,6,0,,,,,,,,,,,,,,,,,,,,,,,,,,,,,,,,,,,,,,,,,,,,,,,,,,,784.0611983999843,784.0611983999843,0.007958699949085712,0.09807539999019355,5.0,1.6243046000599861,,,,,,,,,,,,,,2993,Moral,2024-07-25_11h35.38.430,MoralCondition_v2,2022.2.5,29.97335967744891,
15,0,15,0,,,,,,,,,,,,,,,,,,,,,,,,,,,,,,,,,,,,,,,,,,,,,,,,,,,,,,,,,,,,,785.7282013000222,785.7282013000222,0.0015695999609306455,0.09761319996323436,2.0,3.897175900056027,,,,,,,,2993,Moral,2024-07-25_11h35.38.430,MoralCondition_v2,2022.2.5,29.97335967744891,
16,0,16,0,0,0,0,0,,,,,,,,,,,,,,,,,,,,789.661561600049,0.00015660002827644348,0.09923320007510483,795.6612590000732,5.999110100092366,6.099172700080089,795.8280241000466,795.8280241000466,0.061180900083854795,0.16594310011714697,5.999054300133139,801.9278939000797,801.9278939000797,801.9278939000797,0.051839400082826614,0.1659708000952378,807.627922500018,807.8612344000721,5.999042700044811,6.099042200134136,813.8612174000591,11.999298200127669,813.9612082000822,813.9612082000822,-8.599983993917704e-05,0.09909870009869337,up,0.6443753000348806,814.6614900000859,5.370005965232849e-05,0.09747010003775358,820.6946774000535,820.6946774000535,0.024489999981597066,0.1304811000591144,2.0,2.7738476999802515,,,,,,,801.8279150000308,801.8279150000308,813.9278339000884,813.9278339000884,,6.099148300127126,12.09905670012813,2993,Moral,2024-07-25_11h35.38.430,MoralCondition_v2,2022.2.5,29.97335967744891,
16,0,16,0,1,0,1,0,,,,,,,,,,,,,,,,,,,,,,,,,,,,,,,,,,,,,,,,,,,,,,,,,,,823.494463799987,823.494463799987,0.006509299972094595,0.09909090003930032,2.0,0.9937168000033125,,,,,,,,,,,,,,2993,Moral,2024-07-25_11h35.38.430,MoralCondition_v2,2022.2.5,29.97335967744891,
16,0,16,0,2,0,2,0,,,,,,,,,,,,,,,,,,,,,,,,,,,,,,,,,,,,,,,,,,,,,,,,,,,824.528025800013,824.528025800013,0.005785300047136843,0.09925029997248203,2.0,1.1612112999428064,,,,,,,,,,,,,,2993,Moral,2024-07-25_11h35.38.430,MoralCondition_v2,2022.2.5,29.97335967744891,
16,0,16,0,3,0,3,0,,,,,,,,,,,,,,,,,,,,,,,,,,,,,,,,,,,,,,,,,,,,,,,,,,,825.7277341000736,825.7277341000736,0.006844700081273913,0.09888200007844716,6.0,1.2263853999320418,,,,,,,,,,,,,,2993,Moral,2024-07-25_11h35.38.430,MoralCondition_v2,2022.2.5,29.97335967744891,
16,0,16,0,4,0,4,0,,,,,,,,,,,,,,,,,,,,,,,,,,,,,,,,,,,,,,,,,,,,,,,,,,,826.994360200013,826.994360200013,0.007463900023140013,0.0981988999992609,1.0,1.4917872999794781,,,,,,,,,,,,,,2993,Moral,2024-07-25_11h35.38.430,MoralCondition_v2,2022.2.5,29.97335967744891,
16,0,16,0,5,0,5,0,,,,,,,,,,,,,,,,,,,,,,,,,,,,,,,,,,,,,,,,,,,,,,,,,,,828.5278046000749,828.5278046000749,0.007335499976761639,0.09794300002977252,1.0,0.7249311999185011,,,,,,,,,,,,,,2993,Moral,2024-07-25_11h35.38.430,MoralCondition_v2,2022.2.5,29.97335967744891,
16,0,16,0,6,0,6,0,,,,,,,,,,,,,,,,,,,,,,,,,,,,,,,,,,,,,,,,,,,,,,,,,,,829.2945712000364,829.2945712000364,0.006924699991941452,0.09894009993877262,7.0,0.9931096999207512,,,,,,,,,,,,,,2993,Moral,2024-07-25_11h35.38.430,MoralCondition_v2,2022.2.5,29.97335967744891,
16,0,16,0,,,,,,,,,,,,,,,,,,,,,,,,,,,,,,,,,,,,,,,,,,,,,,,,,,,,,,,,,,,,,830.3279470000416,830.3279470000416,0.0018711999291554093,0.09719749994110316,7.0,1.9633513999870047,,,,,,,,2993,Moral,2024-07-25_11h35.38.430,MoralCondition_v2,2022.2.5,29.97335967744891,
17,0,17,0,0,0,0,0,,,,,,,,,,,,,,,,,,,,832.3279952000594,0.00021139997988939285,0.0984487000387162,838.3276764000766,6.031596900080331,,838.52779870003,838.52779870003,0.09529620001558214,0.19858590001240373,6.031662100111134,844.6108818000648,844.6108818000648,844.6108818000648,0.08238210005220026,0.1813271000282839,850.3110450000968,850.5110529999947,6.014986900030635,6.114930200041272,856.5110205000965,12.01495540002361,856.6443171000574,856.6443171000574,0.015169200138188899,0.11464040004648268,up,0.6174297999823466,857.3276566000422,6.350001785904169e-05,0.09792860003653914,863.327663000091,863.327663000091,0.009272500057704747,0.09810990002006292,2.0,2.2563516999362037,,,,,,,844.5276709999889,844.5276709999889,856.6110276000109,856.6110276000109,863.327663000091,,,2993,Moral,2024-07-25_11h35.38.430,MoralCondition_v2,2022.2.5,29.97335967744891,
17,0,17,0,1,0,1,0,,,,,,,,,,,,,,,,,,,,,,,,,,,,,,,,,,,,,,,,,,,,,,,,,,,865.6275862000184,865.6275862000184,0.006992499926127493,0.09884579991921782,5.0,2.292936700046994,,,,,,,,,,,,,,2993,Moral,2024-07-25_11h35.38.430,MoralCondition_v2,2022.2.5,29.97335967744891,
17,0,17,0,2,0,2,0,,,,,,,,,,,,,,,,,,,,,,,,,,,,,,,,,,,,,,,,,,,,,,,,,,,867.9608590999851,867.9608590999851,0.00727770000230521,0.09778039995580912,2.0,1.5582429999485612,,,,,,,,,,,,,,2993,Moral,2024-07-25_11h35.38.430,MoralCondition_v2,2022.2.5,29.97335967744891,
17,0,17,0,3,0,3,0,,,,,,,,,,,,,,,,,,,,,,,,,,,,,,,,,,,,,,,,,,,,,,,,,,,869.5779038000619,869.5779038000619,0.009023900027386844,0.11419380002189428,2.0,1.9728728000773117,,,,,,,,,,,,,,2993,Moral,2024-07-25_11h35.38.430,MoralCondition_v2,2022.2.5,29.97335967744891,
17,0,17,0,4,0,4,0,,,,,,,,,,,,,,,,,,,,,,,,,,,,,,,,,,,,,,,,,,,,,,,,,,,871.5775725999847,871.5775725999847,0.0071038000751286745,0.0980897000990808,2.0,1.0252031999407336,,,,,,,,,,,,,,2993,Moral,2024-07-25_11h35.38.430,MoralCondition_v2,2022.2.5,29.97335967744891,
17,0,17,0,5,0,5,0,,,,,,,,,,,,,,,,,,,,,,,,,,,,,,,,,,,,,,,,,,,,,,,,,,,872.6443714000052,872.6443714000052,0.00682409992441535,0.09921599994413555,2.0,1.093366700108163,,,,,,,,,,,,,,2993,Moral,2024-07-25_11h35.38.430,MoralCondition_v2,2022.2.5,29.97335967744891,
17,0,17,0,6,0,6,0,,,,,,,,,,,,,,,,,,,,,,,,,,,,,,,,,,,,,,,,,,,,,,,,,,,873.7776109999977,873.7776109999977,0.00774000003002584,0.09789630002342165,5.0,1.8911218999419361,,,,,,,,,,,,,,2993,Moral,2024-07-25_11h35.38.430,MoralCondition_v2,2022.2.5,29.97335967744891,
17,0,17,0,,,,,,,,,,,,,,,,,,,,,,,,,,,,,,,,,,,,,,,,,,,,,,,,,,,,,,,,,,,,,875.7110178000294,875.7110178000294,0.001331700012087822,0.09761599998455495,2.0,2.0308130000485107,,,,,,,,2993,Moral,2024-07-25_11h35.38.430,MoralCondition_v2,2022.2.5,29.97335967744891,
18,0,18,0,0,0,0,0,,,,,,,,,,,,,,,,,,,,877.7776581000071,0.00025720009580254555,0.09793689998332411,883.7775707000401,6.031325499992818,,883.9611681000097,883.9611681000097,0.07967660005670041,0.18150890001561493,6.014563900069334,890.0607994000893,890.0607994000893,890.0607994000893,0.07249860011506826,0.18126260011922568,895.7608622000553,895.9608410000801,6.014595900080167,6.114641000051051,901.9608525000513,12.01462450006511,902.0941398000577,902.0941398000577,0.014700300060212612,0.11446230008732527,up,0.6152490000240505,902.7442146000685,4.3599982745945454e-05,0.097688699956052,908.760845700046,908.760845700046,0.025087399990297854,0.11432529997546226,2.0,4.556570700020529,,,,,,,889.9608648000285,889.9608648000285,902.0607801000588,902.0607801000588,,,,2993,Moral,2024-07-25_11h35.38.430,MoralCondition_v2,2022.2.5,29.97335967744891,
18,0,18,0,1,0,1,0,,,,,,,,,,,,,,,,,,,,,,,,,,,,,,,,,,,,,,,,,,,,,,,,,,,913.3776027000276,913.3776027000276,0.008552500046789646,0.113637899979949,5.0,1.672886300017126,,,,,,,,,,,,,,2993,Moral,2024-07-25_11h35.38.430,MoralCondition_v2,2022.2.5,29.97335967744891,
18,0,18,0,2,0,2,0,,,,,,,,,,,,,,,,,,,,,,,,,,,,,,,,,,,,,,,,,,,,,,,,,,,915.0774951000931,915.0774951000931,0.007356500020250678,0.0978639000095427,2.0,1.1582518999930471,,,,,,,,,,,,,,2993,Moral,2024-07-25_11h35.38.430,MoralCondition_v2,2022.2.5,29.97335967744891,
18,0,18,0,3,0,3,0,,,,,,,,,,,,,,,,,,,,,,,,,,,,,,,,,,,,,,,,,,,,,,,,,,,916.2772013000213,916.2772013000213,0.007848400040529668,0.09785010002087802,5.0,1.357764600077644,,,,,,,,,,,,,,2993,Moral,2024-07-25_11h35.38.430,MoralCondition_v2,2022.2.5,29.97335967744891,
18,0,18,0,4,0,4,0,,,,,,,,,,,,,,,,,,,,,,,,,,,,,,,,,,,,,,,,,,,,,,,,,,,917.6773032000056,917.6773032000056,0.007242899970151484,0.09921859996393323,3.0,3.0933657999848947,,,,,,,,,,,,,,2993,Moral,2024-07-25_11h35.38.430,MoralCondition_v2,2022.2.5,29.97335967744891,
18,0,18,0,5,0,5,0,,,,,,,,,,,,,,,,,,,,,,,,,,,,,,,,,,,,,,,,,,,,,,,,,,,920.8109208000824,920.8109208000824,0.006490100058726966,0.09924670006148517,2.0,1.1271513999672607,,,,,,,,,,,,,,2993,Moral,2024-07-25_11h35.38.430,MoralCondition_v2,2022.2.5,29.97335967744891,
18,0,18,0,6,0,6,0,,,,,,,,,,,,,,,,,,,,,,,,,,,,,,,,,,,,,,,,,,,,,,,,,,,921.977555999998,921.977555999998,0.00749099999666214,0.09788959997240454,1.0,1.3909269999712706,,,,,,,,,,,,,,2993,Moral,2024-07-25_11h35.38.430,MoralCondition_v2,2022.2.5,29.97335967744891,
18,0,18,0,,,,,,,,,,,,,,,,,,,,,,,,,,,,,,,,,,,,,,,,,,,,,,,,,,,,,,,,,,,,,923.4108152000699,923.4108152000699,0.0008676999714225531,0.09888830001000315,2.0,2.066092099994421,,,,,,,,2993,Moral,2024-07-25_11h35.38.430,MoralCondition_v2,2022.2.5,29.97335967744891,
19,0,19,0,0,0,0,0,,,,,,,,,,,,,,,,,,,,925.5109565000748,0.0002778000198304653,0.114785399986431,931.5273081000196,6.014897900051437,,931.7108494000277,931.7108494000277,0.09927130001597106,0.19835219997912645,6.031479099998251,937.8108539000386,937.8108539000386,937.8108539000386,0.08863310003653169,0.19811650004703552,943.5108991999878,943.7106489000143,6.031461600097828,6.131296400097199,949.7106332000112,12.031449600006454,949.8440224000951,949.8440224000951,0.031659800093621016,0.1316501001128927,up,0.7212517000734806,950.6107367000077,4.099996294826269e-05,0.09772640001028776,956.6440157000907,956.6440157000907,0.024907700018957257,0.1309132999740541,5.0,3.1404925000388175,,,,,,,937.7106752999825,937.7106752999825,949.8106372000184,949.8106372000184,,,,2993,Moral,2024-07-25_11h35.38.430,MoralCondition_v2,2022.2.5,29.97335967744891,
19,0,19,0,1,0,1,0,,,,,,,,,,,,,,,,,,,,,,,,,,,,,,,,,,,,,,,,,,,,,,,,,,,959.8105789000401,959.8105789000401,0.006889199954457581,0.09792560001369566,2.0,3.125553899910301,,,,,,,,,,,,,,2993,Moral,2024-07-25_11h35.38.430,MoralCondition_v2,2022.2.5,29.97335967744891,
19,0,19,0,2,0,2,0,,,,,,,,,,,,,,,,,,,,,,,,,,,,,,,,,,,,,,,,,,,,,,,,,,,962.9771380000748,962.9771380000748,0.006902399938553572,0.09910430002491921,2.0,0.9932715999893844,,,,,,,,,,,,,,2993,Moral,2024-07-25_11h35.38.430,MoralCondition_v2,2022.2.5,29.97335967744891,
19,0,19,0,3,0,3,0,,,,,,,,,,,,,,,,,,,,,,,,,,,,,,,,,,,,,,,,,,,,,,,,,,,964.027338200016,964.027338200016,0.007947699981741607,0.1142414000350982,2.0,0.9074395999778062,,,,,,,,,,,,,,2993,Moral,2024-07-25_11h35.38.430,MoralCondition_v2,2022.2.5,29.97335967744891,
19,0,19,0,4,0,4,0,,,,,,,,,,,,,,,,,,,,,,,,,,,,,,,,,,,,,,,,,,,,,,,,,,,964.9604936999967,964.9604936999967,0.007517999969422817,0.09762489993590862,3.0,3.5578620999585837,,,,,,,,,,,,,,2993,Moral,2024-07-25_11h35.38.430,MoralCondition_v2,2022.2.5,29.97335967744891,
19,0,19,0,5,0,5,0,,,,,,,,,,,,,,,,,,,,,,,,,,,,,,,,,,,,,,,,,,,,,,,,,,,968.5778452000814,968.5778452000814,0.008284299983642995,0.11446820001583546,3.0,2.7073294000001624,,,,,,,,,,,,,,2993,Moral,2024-07-25_11h35.38.430,MoralCondition_v2,2022.2.5,29.97335967744891,
19,0,19,0,6,0,6,0,,,,,,,,,,,,,,,,,,,,,,,,,,,,,,,,,,,,,,,,,,,,,,,,,,,971.3105332000414,971.3105332000414,0.006246100063435733,0.09884120000060648,5.0,2.2268544000107795,,,,,,,,,,,,,,2993,Moral,2024-07-25_11h35.38.430,MoralCondition_v2,2022.2.5,29.97335967744891,
19,0,19,0,,,,,,,,,,,,,,,,,,,,,,,,,,,,,,,,,,,,,,,,,,,,,,,,,,,,,,,,,,,,,973.5772583000362,973.5772583000362,0.0010084999958053231,0.09841550001874566,3.0,2.132062799995765,,,,,,,,2993,Moral,2024-07-25_11h35.38.430,MoralCondition_v2,2022.2.5,29.97335967744891,
