loop.thisRepN,loop.thisTrialN,loop.thisN,loop.thisIndex,evaluate_all_emotions.thisRepN,evaluate_all_emotions.thisTrialN,evaluate_all_emotions.thisN,evaluate_all_emotions.thisIndex,sync_beep_1.started,p_port.started,p_port.stopped,sync_beep_2.started,sync_beep_2.stopped,sync_beep_3.started,sync_beep_3.stopped,sync_beep_4.started,sync_beep_4.stopped,baseline.started,p_port_2.started,p_port_2.stopped,baseline.stopped,p_port_3.started,Game_Start_Text.started,p_port_4.started,p_port_4.stopped,key_resp.started,key_resp.keys,key_resp.rt,fixation_cross.started,p_port_5.started,p_port_5.stopped,fixation_cross.stopped,p_port_6.started,player_image_intro.started,player_name_intro.started,p_port_7.started,p_port_7.stopped,p_port_8.started,player_image_offer.started,player_name_offer.started,proposed_split.started,p_port_9.started,p_port_9.stopped,proposed_split.stopped,accept_reject.started,p_port_15.started,p_port_15.stopped,accept_reject.stopped,p_port_10.started,arrow_instructions.started,offer_choice.started,p_port_11.started,p_port_11.stopped,offer_choice.keys,offer_choice.rt,Instructions_Affinity_Score.started,p_port_12.started,p_port_12.stopped,Emotion_Image.started,AffinityScore.started,p_port_13.started,p_port_13.stopped,AffinityScore.response,AffinityScore.rt,Instruction.started,Moral_Disgust_Score.started,p_port_14.started,p_port_14.stopped,Moral_Disgust_Score.response,Moral_Disgust_Score.rt,p_port_6.stopped,player_image_offer.stopped,player_name_offer.stopped,player_image_intro.stopped,player_name_intro.stopped,Instructions_Affinity_Score.stopped,p_port_8.stopped,p_port_10.stopped,participant,session,date,expName,psychopyVersion,frameRate,
,,,,,,,,17.79852324835956,0.0008755996823310852,0.10461889998987317,18.396293849963694,18.713126699905843,19.01337644951418,19.31306489976123,19.59639344951138,19.929678599815816,19.929678599815816,0.005366599652916193,0.10480939969420433,34.94643389992416,15.021461999975145,35.04655159963295,0.021583999507129192,0.12144869985058904,35.51322599966079,space,2.3608788000419736,,,,,,,,,,,,,,,,,,,,,,,,,,,,,,,,,,,,,,,,,,,,,,,,,,,3081,Moral,2024-08-26_10h29.58.124,MoralCondition_v2,2022.2.5,29.997510180712144,
0,0,0,0,0,0,0,0,,,,,,,,,,,,,,,,,,,,,37.91303449962288,0.0015026000328361988,0.09782600030303001,43.929775699973106,6.014356100000441,44.19622999988496,44.19622999988496,0.145229899790138,0.28093669982627034,6.0143532999791205,50.22982989996672,50.22982989996672,50.22982989996672,0.07512809988111258,0.21439659968018532,55.92970489989966,56.09631139971316,6.014303300064057,6.114361899904907,62.096367799676955,12.014353199861944,62.22967889998108,62.22967889998108,0.014571299776434898,0.11426279973238707,up,4.156930600292981,66.44638059986755,5.239993333816528e-05,0.08869019988924265,72.47977899992839,72.47977899992839,0.016364499926567078,0.12197019997984171,5.0,22.123424800112844,,,,,,,,,,,,,,,3081,Moral,2024-08-26_10h29.58.124,MoralCondition_v2,2022.2.5,29.997510180712144,
0,0,0,0,1,0,1,0,,,,,,,,,,,,,,,,,,,,,,,,,,,,,,,,,,,,,,,,,,,,,,,,,,,94.62963619967923,94.62963619967923,0.009866499807685614,0.0978767997585237,4.0,6.789439399726689,,,,,,,,,,,,,,,3081,Moral,2024-08-26_10h29.58.124,MoralCondition_v2,2022.2.5,29.997510180712144,
0,0,0,0,2,0,2,0,,,,,,,,,,,,,,,,,,,,,,,,,,,,,,,,,,,,,,,,,,,,,,,,,,,101.47980629978701,101.47980629978701,0.009820700157433748,0.11419040011242032,5.0,5.505545800086111,,,,,,,,,,,,,,,3081,Moral,2024-08-26_10h29.58.124,MoralCondition_v2,2022.2.5,29.997510180712144,
0,0,0,0,3,0,3,0,,,,,,,,,,,,,,,,,,,,,,,,,,,,,,,,,,,,,,,,,,,,,,,,,,,107.012871499639,107.012871499639,0.009156099986284971,0.09895669994875789,3.0,4.124216399621218,,,,,,,,,,,,,,,3081,Moral,2024-08-26_10h29.58.124,MoralCondition_v2,2022.2.5,29.997510180712144,
0,0,0,0,4,0,4,0,,,,,,,,,,,,,,,,,,,,,,,,,,,,,,,,,,,,,,,,,,,,,,,,,,,111.19635409954935,111.19635409954935,0.011501400265842676,0.11416780017316341,1.0,4.170497700106353,,,,,,,,,,,,,,,3081,Moral,2024-08-26_10h29.58.124,MoralCondition_v2,2022.2.5,29.997510180712144,
0,0,0,0,5,0,5,0,,,,,,,,,,,,,,,,,,,,,,,,,,,,,,,,,,,,,,,,,,,,,,,,,,,115.41321989987046,115.41321989987046,0.00907350005581975,0.11469999980181456,1.0,4.00653070025146,,,,,,,,,,,,,,,3081,Moral,2024-08-26_10h29.58.124,MoralCondition_v2,2022.2.5,29.997510180712144,
0,0,0,0,6,0,6,0,,,,,,,,,,,,,,,,,,,,,,,,,,,,,,,,,,,,,,,,,,,,,,,,,,,119.46322329994291,119.46322329994291,0.009277400095015764,0.11585290031507611,4.0,5.307495799846947,,,,,,,,,,,,,,,3081,Moral,2024-08-26_10h29.58.124,MoralCondition_v2,2022.2.5,29.997510180712144,
0,0,0,0,,,,,,,,,,,,,,,,,,,,,,,,,,,,,,,,,,,,,,,,,,,,,,,,,,,,,,,,,,,,,124.79628219967708,124.79628219967708,0.002278500236570835,0.09693989995867014,3.0,12.129269600380212,,,,,,,,,3081,Moral,2024-08-26_10h29.58.124,MoralCondition_v2,2022.2.5,29.997510180712144,
1,0,1,0,0,0,0,0,,,,,,,,,,,,,,,,,,,,,136.96293709985912,0.000420999713242054,0.09718979988247156,142.94614849984646,6.013758999761194,143.1960807996802,143.1960807996802,0.12141629960387945,0.23048479948192835,6.0305025996640325,149.26292809983715,149.26292809983715,149.26292809983715,0.08704319968819618,0.1971099996007979,154.96282989997417,155.16294439975172,6.030562399420887,6.130457599647343,161.1628968999721,12.030525599606335,161.29621839988977,161.29621839988977,0.030664299614727497,0.13057569926604629,up,2.5542806000448763,163.91289729997516,5.13000413775444e-05,0.09785070037469268,169.92987479967996,169.92987479967996,0.02126150019466877,0.11461650021374226,4.0,13.927645199932158,,,,,,,6.097035499755293,161.26289649959654,161.26289649959654,,,,,,3081,Moral,2024-08-26_10h29.58.124,MoralCondition_v2,2022.2.5,29.997510180712144,
1,0,1,0,1,0,1,0,,,,,,,,,,,,,,,,,,,,,,,,,,,,,,,,,,,,,,,,,,,,,,,,,,,183.91315419971943,183.91315419971943,0.007802899926900864,0.1142068998888135,5.0,3.1741865002550185,,,,,,,,,,,,,,,3081,Moral,2024-08-26_10h29.58.124,MoralCondition_v2,2022.2.5,29.997510180712144,
1,0,1,0,2,0,2,0,,,,,,,,,,,,,,,,,,,,,,,,,,,,,,,,,,,,,,,,,,,,,,,,,,,187.11275929957628,187.11275929957628,0.007662499789148569,0.09784090006724,3.0,2.4577401001006365,,,,,,,,,,,,,,,3081,Moral,2024-08-26_10h29.58.124,MoralCondition_v2,2022.2.5,29.997510180712144,
1,0,1,0,3,0,3,0,,,,,,,,,,,,,,,,,,,,,,,,,,,,,,,,,,,,,,,,,,,,,,,,,,,189.6128405998461,189.6128405998461,0.007550999987870455,0.09760139975696802,2.0,4.591395299881697,,,,,,,,,,,,,,,3081,Moral,2024-08-26_10h29.58.124,MoralCondition_v2,2022.2.5,29.997510180712144,
1,0,1,0,4,0,4,0,,,,,,,,,,,,,,,,,,,,,,,,,,,,,,,,,,,,,,,,,,,,,,,,,,,194.2464975998737,194.2464975998737,0.006711799651384354,0.097191599663347,1.0,3.1248233998194337,,,,,,,,,,,,,,,3081,Moral,2024-08-26_10h29.58.124,MoralCondition_v2,2022.2.5,29.997510180712144,
1,0,1,0,5,0,5,0,,,,,,,,,,,,,,,,,,,,,,,,,,,,,,,,,,,,,,,,,,,,,,,,,,,197.41284749982879,197.41284749982879,0.006962399929761887,0.09836139995604753,3.0,9.992246099747717,,,,,,,,,,,,,,,3081,Moral,2024-08-26_10h29.58.124,MoralCondition_v2,2022.2.5,29.997510180712144,
1,0,1,0,6,0,6,0,,,,,,,,,,,,,,,,,,,,,,,,,,,,,,,,,,,,,,,,,,,,,,,,,,,207.44617589982226,207.44617589982226,0.0076639000326395035,0.09774819994345307,1.0,3.8577538998797536,,,,,,,,,,,,,,,3081,Moral,2024-08-26_10h29.58.124,MoralCondition_v2,2022.2.5,29.997510180712144,
1,0,1,0,,,,,,,,,,,,,,,,,,,,,,,,,,,,,,,,,,,,,,,,,,,,,,,,,,,,,,,,,,,,,211.3463850999251,211.3463850999251,0.0013770000077784061,0.09755259985104203,3.0,6.997664500027895,,,,,,,,,3081,Moral,2024-08-26_10h29.58.124,MoralCondition_v2,2022.2.5,29.997510180712144,
2,0,2,0,0,0,0,0,,,,,,,,,,,,,,,,,,,,,218.37988149980083,0.00030010007321834564,0.09768630005419254,224.37949489988387,6.031030800193548,224.5795672996901,224.5795672996901,0.08481660019606352,0.19775980012491345,6.030993800144643,230.6793970996514,230.6793970996514,230.6793970996514,0.0866231000982225,0.19784849975258112,236.3794952998869,236.57958889985457,6.031158899888396,6.1309485998936,242.57945259986445,12.0309905000031,242.71278119971976,242.71278119971976,0.031165699940174818,0.13092759996652603,up,1.5773189002647996,244.32944439956918,4.0499959141016006e-05,0.09775670012459159,250.3463146998547,250.3463146998547,0.010012200102210045,0.11451019998639822,1.0,5.272169299889356,,,,,,,,242.67942499974743,242.67942499974743,230.57962979981676,230.57962979981676,250.3463146998547,,,3081,Moral,2024-08-26_10h29.58.124,MoralCondition_v2,2022.2.5,29.997510180712144,
2,0,2,0,1,0,1,0,,,,,,,,,,,,,,,,,,,,,,,,,,,,,,,,,,,,,,,,,,,,,,,,,,,255.6459810999222,255.6459810999222,0.0067599001340568066,0.09925239998847246,1.0,2.3603090001270175,,,,,,,,,,,,,,,3081,Moral,2024-08-26_10h29.58.124,MoralCondition_v2,2022.2.5,29.997510180712144,
2,0,2,0,2,0,2,0,,,,,,,,,,,,,,,,,,,,,,,,,,,,,,,,,,,,,,,,,,,,,,,,,,,258.0460654995404,258.0460654995404,0.006713200360536575,0.09915880020707846,1.0,3.5270083998329937,,,,,,,,,,,,,,,3081,Moral,2024-08-26_10h29.58.124,MoralCondition_v2,2022.2.5,29.997510180712144,
2,0,2,0,3,0,3,0,,,,,,,,,,,,,,,,,,,,,,,,,,,,,,,,,,,,,,,,,,,,,,,,,,,261.61285879975185,261.61285879975185,0.006521199829876423,0.0992620000615716,1.0,1.1272996999323368,,,,,,,,,,,,,,,3081,Moral,2024-08-26_10h29.58.124,MoralCondition_v2,2022.2.5,29.997510180712144,
2,0,2,0,4,0,4,0,,,,,,,,,,,,,,,,,,,,,,,,,,,,,,,,,,,,,,,,,,,,,,,,,,,262.7794202999212,262.7794202999212,0.0066651999950408936,0.09920549998059869,2.0,8.09354279981926,,,,,,,,,,,,,,,3081,Moral,2024-08-26_10h29.58.124,MoralCondition_v2,2022.2.5,29.997510180712144,
2,0,2,0,5,0,5,0,,,,,,,,,,,,,,,,,,,,,,,,,,,,,,,,,,,,,,,,,,,,,,,,,,,270.91264249989763,270.91264249989763,0.006786799989640713,0.09892790019512177,2.0,2.4932655999436975,,,,,,,,,,,,,,,3081,Moral,2024-08-26_10h29.58.124,MoralCondition_v2,2022.2.5,29.997510180712144,
2,0,2,0,6,0,6,0,,,,,,,,,,,,,,,,,,,,,,,,,,,,,,,,,,,,,,,,,,,,,,,,,,,273.4631068999879,273.4631068999879,0.007407400291413069,0.11394259985536337,2.0,3.1409198003821075,,,,,,,,,,,,,,,3081,Moral,2024-08-26_10h29.58.124,MoralCondition_v2,2022.2.5,29.997510180712144,
2,0,2,0,,,,,,,,,,,,,,,,,,,,,,,,,,,,,,,,,,,,,,,,,,,,,,,,,,,,,,,,,,,,,276.62943849992007,276.62943849992007,0.0015785000286996365,0.09777370002120733,4.0,3.197302999906242,,,,,,,,,3081,Moral,2024-08-26_10h29.58.124,MoralCondition_v2,2022.2.5,29.997510180712144,
3,0,3,0,0,0,0,0,,,,,,,,,,,,,,,,,,,,,279.8629281995818,0.0002631000243127346,0.1141393999569118,285.87938259961084,6.014151300303638,286.04607039969414,286.04607039969414,0.06892020022496581,0.181135100312531,6.014170399866998,292.1459766998887,292.1459766998887,292.1459766998887,0.07445219997316599,0.18109739990904927,297.8460331996903,298.04599399957806,6.01428039977327,6.1141560999676585,304.04586259974167,12.013982499949634,304.1793184997514,304.1793184997514,0.014403100125491619,0.11418379982933402,up,1.6392502998933196,305.8793590995483,4.740012809634209e-05,0.09795980015769601,311.91259069973603,311.91259069973603,0.025850600097328424,0.1314491000957787,1.0,4.90649180021137,,,,,,,,304.145983599592,304.145983599592,292.0459874998778,292.0459874998778,,,,3081,Moral,2024-08-26_10h29.58.124,MoralCondition_v2,2022.2.5,29.997510180712144,
3,0,3,0,1,0,1,0,,,,,,,,,,,,,,,,,,,,,,,,,,,,,,,,,,,,,,,,,,,,,,,,,,,316.8462346997112,316.8462346997112,0.006689500063657761,0.09905589977279305,5.0,8.326837199740112,,,,,,,,,,,,,,,3081,Moral,2024-08-26_10h29.58.124,MoralCondition_v2,2022.2.5,29.997510180712144,
3,0,3,0,2,0,2,0,,,,,,,,,,,,,,,,,,,,,,,,,,,,,,,,,,,,,,,,,,,,,,,,,,,325.2127073998563,325.2127073998563,0.0066096000373363495,0.09904220001772046,4.0,8.52701469976455,,,,,,,,,,,,,,,3081,Moral,2024-08-26_10h29.58.124,MoralCondition_v2,2022.2.5,29.997510180712144,
3,0,3,0,3,0,3,0,,,,,,,,,,,,,,,,,,,,,,,,,,,,,,,,,,,,,,,,,,,,,,,,,,,333.7791615999304,333.7791615999304,0.007263599894940853,0.09832810005173087,3.0,7.692222999874502,,,,,,,,,,,,,,,3081,Moral,2024-08-26_10h29.58.124,MoralCondition_v2,2022.2.5,29.997510180712144,
3,0,3,0,4,0,4,0,,,,,,,,,,,,,,,,,,,,,,,,,,,,,,,,,,,,,,,,,,,,,,,,,,,341.51265689963475,341.51265689963475,0.007362900301814079,0.09913560003042221,2.0,5.826291700359434,,,,,,,,,,,,,,,3081,Moral,2024-08-26_10h29.58.124,MoralCondition_v2,2022.2.5,29.997510180712144,
3,0,3,0,5,0,5,0,,,,,,,,,,,,,,,,,,,,,,,,,,,,,,,,,,,,,,,,,,,,,,,,,,,347.3960314998403,347.3960314998403,0.007951600011438131,0.11424789996817708,2.0,1.8405859000049531,,,,,,,,,,,,,,,3081,Moral,2024-08-26_10h29.58.124,MoralCondition_v2,2022.2.5,29.997510180712144,
3,0,3,0,6,0,6,0,,,,,,,,,,,,,,,,,,,,,,,,,,,,,,,,,,,,,,,,,,,,,,,,,,,349.2624324997887,349.2624324997887,0.006906100083142519,0.09911429975181818,3.0,6.426529900170863,,,,,,,,,,,,,,,3081,Moral,2024-08-26_10h29.58.124,MoralCondition_v2,2022.2.5,29.997510180712144,
3,0,3,0,,,,,,,,,,,,,,,,,,,,,,,,,,,,,,,,,,,,,,,,,,,,,,,,,,,,,,,,,,,,,355.72947449982166,355.72947449982166,0.0007028002291917801,0.0991130000911653,2.0,5.932764800265431,,,,,,,,,3081,Moral,2024-08-26_10h29.58.124,MoralCondition_v2,2022.2.5,29.997510180712144,
4,0,4,0,0,0,0,0,,,,,,,,,,,,,,,,,,,,,361.69607729976997,0.0002838997170329094,0.09766809968277812,367.69587449962273,6.031040799804032,367.89570959983394,367.89570959983394,0.08520889980718493,0.19762349966913462,6.030952399596572,373.9791002999991,373.9791002999991,373.9791002999991,0.08145729964599013,0.18115609977394342,379.6790108997375,379.87909749988467,6.014273499604315,6.114038499537855,385.8793702996336,12.01452579954639,386.0124895996414,386.0124895996414,0.014530099462717772,0.11428329953923821,up,1.5984839997254312,387.66250159963965,2.9100105166435242e-05,0.09880630020052195,393.6793385995552,393.6793385995552,0.009618000127375126,0.11543400026857853,4.0,5.206796100363135,,,,,,,,385.97918109968305,385.97918109968305,373.8956854999997,373.8956854999997,393.6793385995552,,,3081,Moral,2024-08-26_10h29.58.124,MoralCondition_v2,2022.2.5,29.997510180712144,
4,0,4,0,1,0,1,0,,,,,,,,,,,,,,,,,,,,,,,,,,,,,,,,,,,,,,,,,,,,,,,,,,,398.9294708999805,398.9294708999805,0.007793600205332041,0.11452910024672747,2.0,3.6409126999787986,,,,,,,,,,,,,,,3081,Moral,2024-08-26_10h29.58.124,MoralCondition_v2,2022.2.5,29.997510180712144,
4,0,4,0,2,0,2,0,,,,,,,,,,,,,,,,,,,,,,,,,,,,,,,,,,,,,,,,,,,,,,,,,,,402.59577609971166,402.59577609971166,0.007637099828571081,0.09812329988926649,2.0,2.7245283001102507,,,,,,,,,,,,,,,3081,Moral,2024-08-26_10h29.58.124,MoralCondition_v2,2022.2.5,29.997510180712144,
4,0,4,0,3,0,3,0,,,,,,,,,,,,,,,,,,,,,,,,,,,,,,,,,,,,,,,,,,,,,,,,,,,405.3623126996681,405.3623126996681,0.007408000063151121,0.09741950035095215,2.0,5.12440409976989,,,,,,,,,,,,,,,3081,Moral,2024-08-26_10h29.58.124,MoralCondition_v2,2022.2.5,29.997510180712144,
4,0,4,0,4,0,4,0,,,,,,,,,,,,,,,,,,,,,,,,,,,,,,,,,,,,,,,,,,,,,,,,,,,410.5459639998153,410.5459639998153,0.008859199937433004,0.1140684001147747,2.0,5.706293000373989,,,,,,,,,,,,,,,3081,Moral,2024-08-26_10h29.58.124,MoralCondition_v2,2022.2.5,29.997510180712144,
4,0,4,0,5,0,5,0,,,,,,,,,,,,,,,,,,,,,,,,,,,,,,,,,,,,,,,,,,,,,,,,,,,416.27914329990745,416.27914329990745,0.007310400251299143,0.0981177999638021,2.0,2.99185680039227,,,,,,,,,,,,,,,3081,Moral,2024-08-26_10h29.58.124,MoralCondition_v2,2022.2.5,29.997510180712144,
4,0,4,0,6,0,6,0,,,,,,,,,,,,,,,,,,,,,,,,,,,,,,,,,,,,,,,,,,,,,,,,,,,419.3125779996626,419.3125779996626,0.007548799738287926,0.097565199714154,1.0,2.657921999692917,,,,,,,,,,,,,,,3081,Moral,2024-08-26_10h29.58.124,MoralCondition_v2,2022.2.5,29.997510180712144,
4,0,4,0,,,,,,,,,,,,,,,,,,,,,,,,,,,,,,,,,,,,,,,,,,,,,,,,,,,,,,,,,,,,,422.0125842997804,422.0125842997804,0.0007073003798723221,0.09896740037947893,6.0,10.033239500131458,,,,,,,,,3081,Moral,2024-08-26_10h29.58.124,MoralCondition_v2,2022.2.5,29.997510180712144,
5,0,5,0,0,0,0,0,,,,,,,,,,,,,,,,,,,,,432.07904179999605,0.00013379985466599464,0.09913469990715384,438.07898119976744,5.999094299972057,438.34551439993083,438.34551439993083,0.15901480009779334,0.26576879993081093,5.9991147997789085,444.37906149961054,444.37906149961054,444.37906149961054,0.09280869970098138,0.19908649986609817,450.07890979992226,450.24572169966996,5.999323399737477,6.099076099693775,456.2457330999896,11.999213099945337,456.37897609965876,456.37897609965876,0.0003235996700823307,0.09906929964199662,up,1.9589741001836956,458.3790215998888,2.5599729269742966e-05,0.09866039967164397,464.39565369999036,464.39565369999036,0.02603770000860095,0.11509629990905523,2.0,7.056841200217605,,,,,,,6.099067899864167,456.37897609965876,456.37897609965876,,,,6.099080099724233,12.09926059981808,3081,Moral,2024-08-26_10h29.58.124,MoralCondition_v2,2022.2.5,29.997510180712144,
5,0,5,0,1,0,1,0,,,,,,,,,,,,,,,,,,,,,,,,,,,,,,,,,,,,,,,,,,,,,,,,,,,471.49545609997585,471.49545609997585,0.007761899847537279,0.09777230024337769,2.0,6.524364899843931,,,,,,,,,,,,,,,3081,Moral,2024-08-26_10h29.58.124,MoralCondition_v2,2022.2.5,29.997510180712144,
5,0,5,0,2,0,2,0,,,,,,,,,,,,,,,,,,,,,,,,,,,,,,,,,,,,,,,,,,,,,,,,,,,478.0621374999173,478.0621374999173,0.006596100050956011,0.09919600002467632,3.0,4.660392299760133,,,,,,,,,,,,,,,3081,Moral,2024-08-26_10h29.58.124,MoralCondition_v2,2022.2.5,29.997510180712144,
5,0,5,0,3,0,3,0,,,,,,,,,,,,,,,,,,,,,,,,,,,,,,,,,,,,,,,,,,,,,,,,,,,482.762269299943,482.762269299943,0.007587300147861242,0.09786630002781749,2.0,2.0243362998589873,,,,,,,,,,,,,,,3081,Moral,2024-08-26_10h29.58.124,MoralCondition_v2,2022.2.5,29.997510180712144,
5,0,5,0,4,0,4,0,,,,,,,,,,,,,,,,,,,,,,,,,,,,,,,,,,,,,,,,,,,,,,,,,,,484.845738499891,484.845738499891,0.008744999766349792,0.11396769993007183,2.0,1.6730680000036955,,,,,,,,,,,,,,,3081,Moral,2024-08-26_10h29.58.124,MoralCondition_v2,2022.2.5,29.997510180712144,
5,0,5,0,5,0,5,0,,,,,,,,,,,,,,,,,,,,,,,,,,,,,,,,,,,,,,,,,,,,,,,,,,,486.56228039972484,486.56228039972484,0.008150599896907806,0.11448380025103688,2.0,2.873975300230086,,,,,,,,,,,,,,,3081,Moral,2024-08-26_10h29.58.124,MoralCondition_v2,2022.2.5,29.997510180712144,
5,0,5,0,6,0,6,0,,,,,,,,,,,,,,,,,,,,,,,,,,,,,,,,,,,,,,,,,,,,,,,,,,,489.4620407996699,489.4620407996699,0.006620499771088362,0.09906629985198379,2.0,4.12703560013324,,,,,,,,,,,,,,,3081,Moral,2024-08-26_10h29.58.124,MoralCondition_v2,2022.2.5,29.997510180712144,
5,0,5,0,,,,,,,,,,,,,,,,,,,,,,,,,,,,,,,,,,,,,,,,,,,,,,,,,,,,,,,,,,,,,493.62889909977093,493.62889909977093,0.0006753001362085342,0.0986426998861134,5.0,11.099100399762392,,,,,,,,,3081,Moral,2024-08-26_10h29.58.124,MoralCondition_v2,2022.2.5,29.997510180712144,
6,0,6,0,0,0,0,0,,,,,,,,,,,,,,,,,,,,,504.7625349997543,0.0002955002710223198,0.09924630029127002,510.77885479992256,6.015884399879724,510.94565409980714,510.94565409980714,0.07148349983617663,0.18267539981752634,6.015905700158328,517.0457507995889,517.0457507995889,517.0457507995889,0.06755780009552836,0.18278490006923676,522.7454633996822,522.9454484996386,6.015911099966615,6.11579900002107,528.9454474998638,12.015909799840301,529.0787353999913,529.0787353999913,0.015980799682438374,0.1158186998218298,up,1.7154516000300646,530.8289729999378,4.8199668526649475e-05,0.09776829974725842,536.8620131998323,536.8620131998323,0.02530069975182414,0.13098919996991754,2.0,9.30676979990676,,,,,,,,529.0453679999337,529.0453679999337,516.9454638999887,516.9454638999887,,,,3081,Moral,2024-08-26_10h29.58.124,MoralCondition_v2,2022.2.5,29.997510180712144,
6,0,6,0,1,0,1,0,,,,,,,,,,,,,,,,,,,,,,,,,,,,,,,,,,,,,,,,,,,,,,,,,,,546.2122562997974,546.2122562997974,0.00798800028860569,0.11434190021827817,2.0,4.007163799833506,,,,,,,,,,,,,,,3081,Moral,2024-08-26_10h29.58.124,MoralCondition_v2,2022.2.5,29.997510180712144,
6,0,6,0,2,0,2,0,,,,,,,,,,,,,,,,,,,,,,,,,,,,,,,,,,,,,,,,,,,,,,,,,,,550.2456543999724,550.2456543999724,0.0065482002682983875,0.09914930025115609,2.0,3.227085799910128,,,,,,,,,,,,,,,3081,Moral,2024-08-26_10h29.58.124,MoralCondition_v2,2022.2.5,29.997510180712144,
6,0,6,0,3,0,3,0,,,,,,,,,,,,,,,,,,,,,,,,,,,,,,,,,,,,,,,,,,,,,,,,,,,553.5287392996252,553.5287392996252,0.00956290028989315,0.11405810015276074,2.0,1.9391417000442743,,,,,,,,,,,,,,,3081,Moral,2024-08-26_10h29.58.124,MoralCondition_v2,2022.2.5,29.997510180712144,
6,0,6,0,4,0,4,0,,,,,,,,,,,,,,,,,,,,,,,,,,,,,,,,,,,,,,,,,,,,,,,,,,,555.4953089999035,555.4953089999035,0.007462500128895044,0.09815149987116456,2.0,4.791701099835336,,,,,,,,,,,,,,,3081,Moral,2024-08-26_10h29.58.124,MoralCondition_v2,2022.2.5,29.997510180712144,
6,0,6,0,5,0,5,0,,,,,,,,,,,,,,,,,,,,,,,,,,,,,,,,,,,,,,,,,,,,,,,,,,,560.3287020996213,560.3287020996213,0.006686600390821695,0.09888140019029379,2.0,5.260271199978888,,,,,,,,,,,,,,,3081,Moral,2024-08-26_10h29.58.124,MoralCondition_v2,2022.2.5,29.997510180712144,
6,0,6,0,6,0,6,0,,,,,,,,,,,,,,,,,,,,,,,,,,,,,,,,,,,,,,,,,,,,,,,,,,,565.628638099879,565.628638099879,0.006945899687707424,0.09936359990388155,2.0,5.959922999609262,,,,,,,,,,,,,,,3081,Moral,2024-08-26_10h29.58.124,MoralCondition_v2,2022.2.5,29.997510180712144,
6,0,6,0,,,,,,,,,,,,,,,,,,,,,,,,,,,,,,,,,,,,,,,,,,,,,,,,,,,,,,,,,,,,,571.6285931998864,571.6285931998864,0.0009687002748250961,0.0983584001660347,6.0,9.865242700092494,,,,,,,,,3081,Moral,2024-08-26_10h29.58.124,MoralCondition_v2,2022.2.5,29.997510180712144,
7,0,7,0,0,0,0,0,,,,,,,,,,,,,,,,,,,,,581.5289492998272,0.00031160004436969757,0.09758190019056201,587.5452349996194,6.013997099827975,587.7287486996502,587.7287486996502,0.08921679994091392,0.19756409991532564,6.030623899772763,593.8284215996973,593.8284215996973,593.8284215996973,0.09201359981670976,0.19735999964177608,599.5285593997687,599.7285151998512,6.03064819984138,6.1306092999875546,605.7285063997842,12.030671599786729,605.8620364996605,605.8620364996605,0.030787399504333735,0.1307763997465372,up,1.6206735000014305,607.5116874999367,1.3799872249364853e-05,0.08318039961159229,613.528811099939,613.528811099939,0.010916200000792742,0.09959189966320992,4.0,5.323163399938494,,,,,,,,605.8284941995516,605.8284941995516,593.7285385997966,593.7285385997966,613.528811099939,,,3081,Moral,2024-08-26_10h29.58.124,MoralCondition_v2,2022.2.5,29.997510180712144,
7,0,7,0,1,0,1,0,,,,,,,,,,,,,,,,,,,,,,,,,,,,,,,,,,,,,,,,,,,,,,,,,,,618.8951521995477,618.8951521995477,0.008039300329983234,0.09783350024372339,2.0,4.29101620009169,,,,,,,,,,,,,,,3081,Moral,2024-08-26_10h29.58.124,MoralCondition_v2,2022.2.5,29.997510180712144,
7,0,7,0,2,0,2,0,,,,,,,,,,,,,,,,,,,,,,,,,,,,,,,,,,,,,,,,,,,,,,,,,,,623.228360499721,623.228360499721,0.007101000286638737,0.09915680019184947,2.0,1.7595595000311732,,,,,,,,,,,,,,,3081,Moral,2024-08-26_10h29.58.124,MoralCondition_v2,2022.2.5,29.997510180712144,
7,0,7,0,3,0,3,0,,,,,,,,,,,,,,,,,,,,,,,,,,,,,,,,,,,,,,,,,,,,,,,,,,,625.0453208996914,625.0453208996914,0.00812629982829094,0.11463349964469671,2.0,2.2406347999349236,,,,,,,,,,,,,,,3081,Moral,2024-08-26_10h29.58.124,MoralCondition_v2,2022.2.5,29.997510180712144,
7,0,7,0,4,0,4,0,,,,,,,,,,,,,,,,,,,,,,,,,,,,,,,,,,,,,,,,,,,,,,,,,,,627.3119122995995,627.3119122995995,0.007379000075161457,0.09765039989724755,2.0,1.8247779002413154,,,,,,,,,,,,,,,3081,Moral,2024-08-26_10h29.58.124,MoralCondition_v2,2022.2.5,29.997510180712144,
7,0,7,0,5,0,5,0,,,,,,,,,,,,,,,,,,,,,,,,,,,,,,,,,,,,,,,,,,,,,,,,,,,629.1952509996481,629.1952509996481,0.007755400147289038,0.11435330007225275,2.0,3.1742892996408045,,,,,,,,,,,,,,,3081,Moral,2024-08-26_10h29.58.124,MoralCondition_v2,2022.2.5,29.997510180712144,
7,0,7,0,6,0,6,0,,,,,,,,,,,,,,,,,,,,,,,,,,,,,,,,,,,,,,,,,,,,,,,,,,,632.3950967998244,632.3950967998244,0.007279300130903721,0.09748339978978038,3.0,3.0581205999478698,,,,,,,,,,,,,,,3081,Moral,2024-08-26_10h29.58.124,MoralCondition_v2,2022.2.5,29.997510180712144,
7,0,7,0,,,,,,,,,,,,,,,,,,,,,,,,,,,,,,,,,,,,,,,,,,,,,,,,,,,,,,,,,,,,,635.4952509999275,635.4952509999275,0.0013602999970316887,0.09819769999012351,5.0,9.164340099785477,,,,,,,,,3081,Moral,2024-08-26_10h29.58.124,MoralCondition_v2,2022.2.5,29.997510180712144,
8,0,8,0,0,0,0,0,,,,,,,,,,,,,,,,,,,,,644.6953098997474,0.0002516000531613827,0.09810289973393083,650.711709999945,6.014748499728739,650.8783132997341,650.8783132997341,0.07129189977422357,0.18145749997347593,6.014802199788392,656.9785152999684,656.9785152999684,656.9785152999684,0.06927419966086745,0.181366799864918,662.6783946999349,662.8783160997555,6.0147802997380495,6.114728999789804,668.8783064996824,12.014761199709028,669.0116011998616,669.0116011998616,0.01491289958357811,0.1146588996052742,up,1.5746605000458658,670.6449738997035,4.319986328482628e-05,0.09786579990759492,676.6785461995751,676.6785461995751,0.026478199753910303,0.13131710002198815,5.0,5.839131199754775,,,,,,,,668.9782864996232,668.9782864996232,656.8783560995944,656.8783560995944,,,,3081,Moral,2024-08-26_10h29.58.124,MoralCondition_v2,2022.2.5,29.997510180712144,
8,0,8,0,1,0,1,0,,,,,,,,,,,,,,,,,,,,,,,,,,,,,,,,,,,,,,,,,,,,,,,,,,,682.544863099698,682.544863099698,0.006420600228011608,0.09948450000956655,1.0,2.393815000075847,,,,,,,,,,,,,,,3081,Moral,2024-08-26_10h29.58.124,MoralCondition_v2,2022.2.5,29.997510180712144,
8,0,8,0,2,0,2,0,,,,,,,,,,,,,,,,,,,,,,,,,,,,,,,,,,,,,,,,,,,,,,,,,,,684.9783904999495,684.9783904999495,0.006576499901711941,0.09973379969596863,3.0,4.160448600072414,,,,,,,,,,,,,,,3081,Moral,2024-08-26_10h29.58.124,MoralCondition_v2,2022.2.5,29.997510180712144,
8,0,8,0,3,0,3,0,,,,,,,,,,,,,,,,,,,,,,,,,,,,,,,,,,,,,,,,,,,,,,,,,,,689.1781525998376,689.1781525998376,0.006244299933314323,0.09920069994404912,3.0,2.4605768001638353,,,,,,,,,,,,,,,3081,Moral,2024-08-26_10h29.58.124,MoralCondition_v2,2022.2.5,29.997510180712144,
8,0,8,0,4,0,4,0,,,,,,,,,,,,,,,,,,,,,,,,,,,,,,,,,,,,,,,,,,,,,,,,,,,691.6951736998744,691.6951736998744,0.008007599972188473,0.1144115999341011,3.0,9.473916799761355,,,,,,,,,,,,,,,3081,Moral,2024-08-26_10h29.58.124,MoralCondition_v2,2022.2.5,29.997510180712144,
8,0,8,0,5,0,5,0,,,,,,,,,,,,,,,,,,,,,,,,,,,,,,,,,,,,,,,,,,,,,,,,,,,701.1949636996724,701.1949636996724,0.007823599968105555,0.09761789999902248,3.0,3.290914200246334,,,,,,,,,,,,,,,3081,Moral,2024-08-26_10h29.58.124,MoralCondition_v2,2022.2.5,29.997510180712144,
8,0,8,0,6,0,6,0,,,,,,,,,,,,,,,,,,,,,,,,,,,,,,,,,,,,,,,,,,,,,,,,,,,704.5281479996629,704.5281479996629,0.006713099777698517,0.09930429980158806,5.0,2.0268099000677466,,,,,,,,,,,,,,,3081,Moral,2024-08-26_10h29.58.124,MoralCondition_v2,2022.2.5,29.997510180712144,
8,0,8,0,,,,,,,,,,,,,,,,,,,,,,,,,,,,,,,,,,,,,,,,,,,,,,,,,,,,,,,,,,,,,706.5949156996794,706.5949156996794,0.0007312004454433918,0.09917800035327673,3.0,12.4328518002294,,,,,,,,,3081,Moral,2024-08-26_10h29.58.124,MoralCondition_v2,2022.2.5,29.997510180712144,
9,0,9,0,0,0,0,0,,,,,,,,,,,,,,,,,,,,,719.061748099979,0.00023300014436244965,0.0981334000825882,725.0445665996522,6.014544500038028,725.2279564999044,725.2279564999044,0.051125199999660254,0.1647336999885738,6.03158689988777,731.3616250995547,731.3616250995547,731.3616250995547,0.08584610000252724,0.19810950011014938,737.0613499996252,737.2613412998617,6.03136059967801,6.131385500077158,743.2613400998525,12.031350899953395,743.394805799704,743.394805799704,0.03178919991478324,0.1312845996581018,up,2.023113099858165,745.478062399663,4.449998959898949e-05,0.09786990005522966,751.511752799619,751.511752799619,0.025126100052148104,0.1310981996357441,3.0,4.1401521996594965,,,,,,,6.0979444002732635,743.3615999999456,743.3615999999456,731.228063899558,731.228063899558,,,,3081,Moral,2024-08-26_10h29.58.124,MoralCondition_v2,2022.2.5,29.997510180712144,
9,0,9,0,1,0,1,0,,,,,,,,,,,,,,,,,,,,,,,,,,,,,,,,,,,,,,,,,,,,,,,,,,,755.6779405996203,755.6779405996203,0.007102900184690952,0.0980230001732707,3.0,11.558550600428134,,,,,,,,,,,,,,,3081,Moral,2024-08-26_10h29.58.124,MoralCondition_v2,2022.2.5,29.997510180712144,
9,0,9,0,2,0,2,0,,,,,,,,,,,,,,,,,,,,,,,,,,,,,,,,,,,,,,,,,,,,,,,,,,,767.2780581996776,767.2780581996776,0.007449199911206961,0.09769339999184012,5.0,2.424885999877006,,,,,,,,,,,,,,,3081,Moral,2024-08-26_10h29.58.124,MoralCondition_v2,2022.2.5,29.997510180712144,
9,0,9,0,3,0,3,0,,,,,,,,,,,,,,,,,,,,,,,,,,,,,,,,,,,,,,,,,,,,,,,,,,,769.7612552996725,769.7612552996725,0.008059999905526638,0.11338299978524446,3.0,5.139805700164288,,,,,,,,,,,,,,,3081,Moral,2024-08-26_10h29.58.124,MoralCondition_v2,2022.2.5,29.997510180712144,
9,0,9,0,4,0,4,0,,,,,,,,,,,,,,,,,,,,,,,,,,,,,,,,,,,,,,,,,,,,,,,,,,,774.9280138998292,774.9280138998292,0.007797400001436472,0.09747359994798899,1.0,1.8584103998728096,,,,,,,,,,,,,,,3081,Moral,2024-08-26_10h29.58.124,MoralCondition_v2,2022.2.5,29.997510180712144,
9,0,9,0,5,0,5,0,,,,,,,,,,,,,,,,,,,,,,,,,,,,,,,,,,,,,,,,,,,,,,,,,,,776.8279261998832,776.8279261998832,0.006469800136983395,0.09912810008972883,2.0,3.8937193998135626,,,,,,,,,,,,,,,3081,Moral,2024-08-26_10h29.58.124,MoralCondition_v2,2022.2.5,29.997510180712144,
9,0,9,0,6,0,6,0,,,,,,,,,,,,,,,,,,,,,,,,,,,,,,,,,,,,,,,,,,,,,,,,,,,780.7611354999244,780.7611354999244,0.006586399860680103,0.09936639992520213,2.0,7.22692110016942,,,,,,,,,,,,,,,3081,Moral,2024-08-26_10h29.58.124,MoralCondition_v2,2022.2.5,29.997510180712144,
9,0,9,0,,,,,,,,,,,,,,,,,,,,,,,,,,,,,,,,,,,,,,,,,,,,,,,,,,,,,,,,,,,,,788.0279886997305,788.0279886997305,0.0007122000679373741,0.09931010007858276,4.0,8.466455299872905,,,,,,,,,3081,Moral,2024-08-26_10h29.58.124,MoralCondition_v2,2022.2.5,29.997510180712144,
10,0,10,0,0,0,0,0,,,,,,,,,,,,,,,,,,,,,796.5280740996823,0.00018539978191256523,0.09879219997674227,802.5278307995759,6.031958899926394,802.7279875995591,802.7279875995591,0.0876456000842154,0.1988051999360323,6.031898899935186,808.8277941998094,808.8277941998094,808.8277941998094,0.08736399980261922,0.1989155998453498,814.5277853999287,814.7279078997672,6.032039699610323,6.131977899931371,820.7277330998331,12.031893000006676,820.8610694999807,820.8610694999807,0.03209369955584407,0.13181159971281886,up,1.7817245996557176,822.6942909997888,4.440033808350563e-05,0.09789460012689233,828.711238599848,828.711238599848,0.0250902003608644,0.11463730037212372,3.0,5.8569779000245035,,,,,,,,820.8278110995889,820.8278110995889,808.7277731997892,808.7277731997892,,,,3081,Moral,2024-08-26_10h29.58.124,MoralCondition_v2,2022.2.5,29.997510180712144,
10,0,10,0,1,0,1,0,,,,,,,,,,,,,,,,,,,,,,,,,,,,,,,,,,,,,,,,,,,,,,,,,,,834.6279954998754,834.6279954998754,0.007561200298368931,0.11427820008248091,3.0,4.94107920024544,,,,,,,,,,,,,,,3081,Moral,2024-08-26_10h29.58.124,MoralCondition_v2,2022.2.5,29.997510180712144,
10,0,10,0,2,0,2,0,,,,,,,,,,,,,,,,,,,,,,,,,,,,,,,,,,,,,,,,,,,,,,,,,,,839.5943739996292,839.5943739996292,0.006579800043255091,0.09907379979267716,3.0,6.293582400307059,,,,,,,,,,,,,,,3081,Moral,2024-08-26_10h29.58.124,MoralCondition_v2,2022.2.5,29.997510180712144,
10,0,10,0,3,0,3,0,,,,,,,,,,,,,,,,,,,,,,,,,,,,,,,,,,,,,,,,,,,,,,,,,,,845.9278827998787,845.9278827998787,0.00679320003837347,0.09918850008398294,2.0,1.5604361002333462,,,,,,,,,,,,,,,3081,Moral,2024-08-26_10h29.58.124,MoralCondition_v2,2022.2.5,29.997510180712144,
10,0,10,0,4,0,4,0,,,,,,,,,,,,,,,,,,,,,,,,,,,,,,,,,,,,,,,,,,,,,,,,,,,847.5278003998101,847.5278003998101,0.00714130001142621,0.09806880028918386,2.0,2.458940400276333,,,,,,,,,,,,,,,3081,Moral,2024-08-26_10h29.58.124,MoralCondition_v2,2022.2.5,29.997510180712144,
10,0,10,0,5,0,5,0,,,,,,,,,,,,,,,,,,,,,,,,,,,,,,,,,,,,,,,,,,,,,,,,,,,850.027667499613,850.027667499613,0.007323700003325939,0.09807369997724891,2.0,2.6587072000838816,,,,,,,,,,,,,,,3081,Moral,2024-08-26_10h29.58.124,MoralCondition_v2,2022.2.5,29.997510180712144,
10,0,10,0,6,0,6,0,,,,,,,,,,,,,,,,,,,,,,,,,,,,,,,,,,,,,,,,,,,,,,,,,,,852.7275569997728,852.7275569997728,0.007674199994653463,0.09789610002189875,3.0,1.8579408000223339,,,,,,,,,,,,,,,3081,Moral,2024-08-26_10h29.58.124,MoralCondition_v2,2022.2.5,29.997510180712144,
10,0,10,0,,,,,,,,,,,,,,,,,,,,,,,,,,,,,,,,,,,,,,,,,,,,,,,,,,,,,,,,,,,,,854.6277069998905,854.6277069998905,0.0012982003390789032,0.09775130031630397,4.0,3.864340200088918,,,,,,,,,3081,Moral,2024-08-26_10h29.58.124,MoralCondition_v2,2022.2.5,29.997510180712144,
11,0,11,0,0,0,0,0,,,,,,,,,,,,,,,,,,,,,858.5279808999039,0.00013720011338591576,0.09936550026759505,864.5442589996383,6.015872300136834,864.7774528996088,864.7774528996088,0.14736590022221208,0.24944050004705787,6.015826300252229,870.8110660999082,870.8110660999082,870.8110660999082,0.07306540012359619,0.18278189981356263,876.5110456999391,876.7108761998825,6.01593350013718,6.1158652999438345,882.7108810995705,12.015909299720079,882.8444034997374,882.8444034997374,0.016023200005292892,0.11591869965195656,up,0.9742034999653697,883.8775077997707,4.3400097638368607e-05,0.09801150020211935,889.8941513998434,889.8941513998434,0.010110400151461363,0.1147103002294898,3.0,2.8054806999862194,,,,,,,,882.810807199683,882.810807199683,,,889.8941513998434,,,3081,Moral,2024-08-26_10h29.58.124,MoralCondition_v2,2022.2.5,29.997510180712144,
11,0,11,0,1,0,1,0,,,,,,,,,,,,,,,,,,,,,,,,,,,,,,,,,,,,,,,,,,,,,,,,,,,892.7273268997669,892.7273268997669,0.007260400336235762,0.09865880012512207,3.0,3.1256284997798502,,,,,,,,,,,,,,,3081,Moral,2024-08-26_10h29.58.124,MoralCondition_v2,2022.2.5,29.997510180712144,
11,0,11,0,2,0,2,0,,,,,,,,,,,,,,,,,,,,,,,,,,,,,,,,,,,,,,,,,,,,,,,,,,,895.8942826995626,895.8942826995626,0.007632200140506029,0.09799250029027462,4.0,4.757895899936557,,,,,,,,,,,,,,,3081,Moral,2024-08-26_10h29.58.124,MoralCondition_v2,2022.2.5,29.997510180712144,
11,0,11,0,3,0,3,0,,,,,,,,,,,,,,,,,,,,,,,,,,,,,,,,,,,,,,,,,,,,,,,,,,,900.7111612996086,900.7111612996086,0.008023399859666824,0.11407299991697073,5.0,1.87382150022313,,,,,,,,,,,,,,,3081,Moral,2024-08-26_10h29.58.124,MoralCondition_v2,2022.2.5,29.997510180712144,
11,0,11,0,4,0,4,0,,,,,,,,,,,,,,,,,,,,,,,,,,,,,,,,,,,,,,,,,,,,,,,,,,,902.6107608997263,902.6107608997263,0.006594100035727024,0.09875300014391541,5.0,2.6599129997193813,,,,,,,,,,,,,,,3081,Moral,2024-08-26_10h29.58.124,MoralCondition_v2,2022.2.5,29.997510180712144,
11,0,11,0,5,0,5,0,,,,,,,,,,,,,,,,,,,,,,,,,,,,,,,,,,,,,,,,,,,,,,,,,,,905.3276764997281,905.3276764997281,0.008737999945878983,0.11417789990082383,4.0,1.7396718002855778,,,,,,,,,,,,,,,3081,Moral,2024-08-26_10h29.58.124,MoralCondition_v2,2022.2.5,29.997510180712144,
11,0,11,0,6,0,6,0,,,,,,,,,,,,,,,,,,,,,,,,,,,,,,,,,,,,,,,,,,,,,,,,,,,907.0941039999016,907.0941039999016,0.0074257999658584595,0.09793480020016432,2.0,2.2914187000133097,,,,,,,,,,,,,,,3081,Moral,2024-08-26_10h29.58.124,MoralCondition_v2,2022.2.5,29.997510180712144,
11,0,11,0,,,,,,,,,,,,,,,,,,,,,,,,,,,,,,,,,,,,,,,,,,,,,,,,,,,,,,,,,,,,,909.4274459998123,909.4274459998123,0.0014308001846075058,0.09769610036164522,3.0,11.664179999846965,,,,,,,,,3081,Moral,2024-08-26_10h29.58.124,MoralCondition_v2,2022.2.5,29.997510180712144,
12,0,12,0,0,0,0,0,,,,,,,,,,,,,,,,,,,,,921.1276003997773,0.00013409974053502083,0.09955899976193905,927.1273615998216,5.9995434996671975,927.2943700999022,927.2943700999022,0.058803499676287174,0.16621579974889755,5.999336399603635,933.3940078997985,933.3940078997985,933.3940078997985,0.05757199972867966,0.1661309995688498,939.0939892996103,939.2939605996944,5.999333399813622,6.0993359996937215,945.2939540999942,11.999335499480367,945.4272981998511,945.4272981998511,0.00031059933826327324,0.09941449947655201,up,3.159008299931884,948.627383899875,5.2900053560733795e-05,0.09749570023268461,954.6442687995732,954.6442687995732,0.024838800076395273,0.11398830031976104,3.0,4.623780000023544,,,,,,,6.099344399757683,945.3939815997146,945.3939815997146,933.2940462999977,933.2940462999977,,6.09956459980458,12.099363399669528,3081,Moral,2024-08-26_10h29.58.124,MoralCondition_v2,2022.2.5,29.997510180712144,
12,0,12,0,1,0,1,0,,,,,,,,,,,,,,,,,,,,,,,,,,,,,,,,,,,,,,,,,,,,,,,,,,,959.3275799998082,959.3275799998082,0.008241700008511543,0.11435490008443594,3.0,2.507429199758917,,,,,,,,,,,,,,,3081,Moral,2024-08-26_10h29.58.124,MoralCondition_v2,2022.2.5,29.997510180712144,
12,0,12,0,2,0,2,0,,,,,,,,,,,,,,,,,,,,,,,,,,,,,,,,,,,,,,,,,,,,,,,,,,,961.8776207999326,961.8776207999326,0.0077241999097168446,0.11434319987893105,3.0,6.50797659996897,,,,,,,,,,,,,,,3081,Moral,2024-08-26_10h29.58.124,MoralCondition_v2,2022.2.5,29.997510180712144,
12,0,12,0,3,0,3,0,,,,,,,,,,,,,,,,,,,,,,,,,,,,,,,,,,,,,,,,,,,,,,,,,,,968.4103922997601,968.4103922997601,0.007044300436973572,0.09869310026988387,2.0,4.0591754000633955,,,,,,,,,,,,,,,3081,Moral,2024-08-26_10h29.58.124,MoralCondition_v2,2022.2.5,29.997510180712144,
12,0,12,0,4,0,4,0,,,,,,,,,,,,,,,,,,,,,,,,,,,,,,,,,,,,,,,,,,,,,,,,,,,972.5104889995418,972.5104889995418,0.0072869001887738705,0.0979848001152277,2.0,2.0582806998863816,,,,,,,,,,,,,,,3081,Moral,2024-08-26_10h29.58.124,MoralCondition_v2,2022.2.5,29.997510180712144,
12,0,12,0,5,0,5,0,,,,,,,,,,,,,,,,,,,,,,,,,,,,,,,,,,,,,,,,,,,,,,,,,,,974.6106072999537,974.6106072999537,0.007722599897533655,0.09762299992144108,2.0,7.324260500259697,,,,,,,,,,,,,,,3081,Moral,2024-08-26_10h29.58.124,MoralCondition_v2,2022.2.5,29.997510180712144,
12,0,12,0,6,0,6,0,,,,,,,,,,,,,,,,,,,,,,,,,,,,,,,,,,,,,,,,,,,,,,,,,,,981.97724869987,981.97724869987,0.007611600216478109,0.09780180035158992,2.0,3.790986599866301,,,,,,,,,,,,,,,3081,Moral,2024-08-26_10h29.58.124,MoralCondition_v2,2022.2.5,29.997510180712144,
12,0,12,0,,,,,,,,,,,,,,,,,,,,,,,,,,,,,,,,,,,,,,,,,,,,,,,,,,,,,,,,,,,,,985.8105679997243,985.8105679997243,0.0015239999629557133,0.0976201999001205,4.0,3.2305409000255167,,,,,,,,,3081,Moral,2024-08-26_10h29.58.124,MoralCondition_v2,2022.2.5,29.997510180712144,
13,0,13,0,0,0,0,0,,,,,,,,,,,,,,,,,,,,,989.0773551999591,0.0002929000183939934,0.09770359983667731,995.0937917996198,6.014383899979293,995.343619399704,995.343619399704,0.16051089996472,0.26428449992090464,6.030926099978387,1001.3772834995762,1001.3772834995762,1001.3772834995762,0.08732329960912466,0.1976347998715937,1007.0772751998156,1007.2770937997848,6.030966899823397,6.130787999834865,1013.2771890996955,12.03107009967789,1013.4105579997413,1013.4105579997413,0.031113199423998594,0.13082759967073798,up,1.503553899936378,1014.9770187996328,2.040015533566475e-05,0.09926619986072183,1020.9768392997794,1020.9768392997794,0.010785299818962812,0.09931860025972128,2.0,9.089363299775869,,,,,,,,1013.3770565995947,1013.3770565995947,,,1020.9768392997794,,,3081,Moral,2024-08-26_10h29.58.124,MoralCondition_v2,2022.2.5,29.997510180712144,
13,0,13,0,1,0,1,0,,,,,,,,,,,,,,,,,,,,,,,,,,,,,,,,,,,,,,,,,,,,,,,,,,,1030.1102812997997,1030.1102812997997,0.006942300125956535,0.09800380002707243,1.0,2.5254146000370383,,,,,,,,,,,,,,,3081,Moral,2024-08-26_10h29.58.124,MoralCondition_v2,2022.2.5,29.997510180712144,
13,0,13,0,2,0,2,0,,,,,,,,,,,,,,,,,,,,,,,,,,,,,,,,,,,,,,,,,,,,,,,,,,,1032.6771246995777,1032.6771246995777,0.0071541001088917255,0.09930190024897456,2.0,2.1262967996299267,,,,,,,,,,,,,,,3081,Moral,2024-08-26_10h29.58.124,MoralCondition_v2,2022.2.5,29.997510180712144,
13,0,13,0,3,0,3,0,,,,,,,,,,,,,,,,,,,,,,,,,,,,,,,,,,,,,,,,,,,,,,,,,,,1034.8605247996747,1034.8605247996747,0.007361800409853458,0.11402560025453568,2.0,2.6075822999700904,,,,,,,,,,,,,,,3081,Moral,2024-08-26_10h29.58.124,MoralCondition_v2,2022.2.5,29.997510180712144,
13,0,13,0,4,0,4,0,,,,,,,,,,,,,,,,,,,,,,,,,,,,,,,,,,,,,,,,,,,,,,,,,,,1037.4937035995536,1037.4937035995536,0.006443700287491083,0.09895320003852248,1.0,1.8268844997510314,,,,,,,,,,,,,,,3081,Moral,2024-08-26_10h29.58.124,MoralCondition_v2,2022.2.5,29.997510180712144,
13,0,13,0,5,0,5,0,,,,,,,,,,,,,,,,,,,,,,,,,,,,,,,,,,,,,,,,,,,,,,,,,,,1039.360093999654,1039.360093999654,0.007923500146716833,0.0976408002898097,2.0,5.290957500226796,,,,,,,,,,,,,,,3081,Moral,2024-08-26_10h29.58.124,MoralCondition_v2,2022.2.5,29.997510180712144,
13,0,13,0,6,0,6,0,,,,,,,,,,,,,,,,,,,,,,,,,,,,,,,,,,,,,,,,,,,,,,,,,,,1044.6937423995696,1044.6937423995696,0.006699299905449152,0.09905890002846718,1.0,1.8934144997037947,,,,,,,,,,,,,,,3081,Moral,2024-08-26_10h29.58.124,MoralCondition_v2,2022.2.5,29.997510180712144,
13,0,13,0,,,,,,,,,,,,,,,,,,,,,,,,,,,,,,,,,,,,,,,,,,,,,,,,,,,,,,,,,,,,,1046.6270430996083,1046.6270430996083,0.0012643998488783836,0.09750369982793927,5.0,4.93081030016765,,,,,,,,,3081,Moral,2024-08-26_10h29.58.124,MoralCondition_v2,2022.2.5,29.997510180712144,
14,0,14,0,0,0,0,0,,,,,,,,,,,,,,,,,,,,,1051.5940069998614,0.00013480009511113167,0.09927040012553334,1057.5935588995926,5.999147700145841,1057.7601277995855,1057.7601277995855,0.0538673996925354,0.16585119999945164,5.999143899884075,1063.8603823999874,1063.8603823999874,1063.8603823999874,0.05303719965741038,0.16603709990158677,1069.560236599762,1069.7601888999343,5.999134399928153,6.099079399835318,1075.7601847997867,11.999122299719602,1075.8935634996742,1075.8935634996742,-7.003545761108398e-07,0.09907969972118735,up,1.9642568998970091,1077.910267799627,2.9399991035461426e-05,0.09908199962228537,1083.9099740996026,1083.9099740996026,0.009498999919742346,0.09826859971508384,3.0,6.6233315002173185,,,,,,,6.099241400137544,1075.8602499999106,1075.8602499999106,1063.7602468999103,1063.7602468999103,1083.9099740996026,6.099291400052607,12.099194999784231,3081,Moral,2024-08-26_10h29.58.124,MoralCondition_v2,2022.2.5,29.997510180712144,
14,0,14,0,1,0,1,0,,,,,,,,,,,,,,,,,,,,,,,,,,,,,,,,,,,,,,,,,,,,,,,,,,,1090.5770038999617,1090.5770038999617,0.006672699935734272,0.09932669997215271,2.0,2.0267412001267076,,,,,,,,,,,,,,,3081,Moral,2024-08-26_10h29.58.124,MoralCondition_v2,2022.2.5,29.997510180712144,
14,0,14,0,2,0,2,0,,,,,,,,,,,,,,,,,,,,,,,,,,,,,,,,,,,,,,,,,,,,,,,,,,,1092.6434543998912,1092.6434543998912,0.006702100392431021,0.09929480031132698,5.0,8.426880300045013,,,,,,,,,,,,,,,3081,Moral,2024-08-26_10h29.58.124,MoralCondition_v2,2022.2.5,29.997510180712144,
14,0,14,0,3,0,3,0,,,,,,,,,,,,,,,,,,,,,,,,,,,,,,,,,,,,,,,,,,,,,,,,,,,1101.1101839998737,1101.1101839998737,0.006649299990385771,0.09898609993979335,5.0,2.226629499811679,,,,,,,,,,,,,,,3081,Moral,2024-08-26_10h29.58.124,MoralCondition_v2,2022.2.5,29.997510180712144,
14,0,14,0,4,0,4,0,,,,,,,,,,,,,,,,,,,,,,,,,,,,,,,,,,,,,,,,,,,,,,,,,,,1103.3769321995787,1103.3769321995787,0.007221899926662445,0.09838080033659935,3.0,4.225638300180435,,,,,,,,,,,,,,,3081,Moral,2024-08-26_10h29.58.124,MoralCondition_v2,2022.2.5,29.997510180712144,
14,0,14,0,5,0,5,0,,,,,,,,,,,,,,,,,,,,,,,,,,,,,,,,,,,,,,,,,,,,,,,,,,,1107.6435995995998,1107.6435995995998,0.00785379996523261,0.09733700007200241,1.0,1.6237085000611842,,,,,,,,,,,,,,,3081,Moral,2024-08-26_10h29.58.124,MoralCondition_v2,2022.2.5,29.997510180712144,
14,0,14,0,6,0,6,0,,,,,,,,,,,,,,,,,,,,,,,,,,,,,,,,,,,,,,,,,,,,,,,,,,,1109.3100732997991,1109.3100732997991,0.007963199634104967,0.09814809961244464,2.0,4.724710400216281,,,,,,,,,,,,,,,3081,Moral,2024-08-26_10h29.58.124,MoralCondition_v2,2022.2.5,29.997510180712144,
14,0,14,0,,,,,,,,,,,,,,,,,,,,,,,,,,,,,,,,,,,,,,,,,,,,,,,,,,,,,,,,,,,,,1114.0769180995412,1114.0769180995412,0.0016517001204192638,0.09808440040796995,3.0,3.7642898000776768,,,,,,,,,3081,Moral,2024-08-26_10h29.58.124,MoralCondition_v2,2022.2.5,29.997510180712144,
15,0,15,0,0,0,0,0,,,,,,,,,,,,,,,,,,,,,1117.8770790998824,0.0002717999741435051,0.09773880010470748,1123.8933364995755,6.0143421003594995,1124.0432342998683,1124.0432342998683,0.06430400023236871,0.16445880010724068,6.030930100008845,1130.1598930996843,1130.1598930996843,1130.1598930996843,0.06696589989587665,0.18125780019909143,1135.8599601997994,1136.0600066999905,6.014354700222611,6.1144595998339355,1142.0601722998545,12.014539199881256,1142.193290299736,1142.193290299736,0.014351299963891506,0.11422660015523434,up,2.569027100224048,1144.8266086997464,4.590023308992386e-05,0.09801150020211935,1150.8264204999432,1150.8264204999432,0.00909480033442378,0.09786750003695488,4.0,4.023232699837536,,,,,,,,1142.1431541997008,1142.1431541997008,1130.0265554999933,1130.0265554999933,1150.8264204999432,,,3081,Moral,2024-08-26_10h29.58.124,MoralCondition_v2,2022.2.5,29.997510180712144,
15,0,15,0,1,0,1,0,,,,,,,,,,,,,,,,,,,,,,,,,,,,,,,,,,,,,,,,,,,,,,,,,,,1154.8933272999711,1154.8933272999711,0.005882000084966421,0.09860120015218854,2.0,3.49418370006606,,,,,,,,,,,,,,,3081,Moral,2024-08-26_10h29.58.124,MoralCondition_v2,2022.2.5,29.997510180712144,
15,0,15,0,2,0,2,0,,,,,,,,,,,,,,,,,,,,,,,,,,,,,,,,,,,,,,,,,,,,,,,,,,,1158.4263859996572,1158.4263859996572,0.007706299889832735,0.09756769984960556,1.0,2.624266699887812,,,,,,,,,,,,,,,3081,Moral,2024-08-26_10h29.58.124,MoralCondition_v2,2022.2.5,29.997510180712144,
15,0,15,0,3,0,3,0,,,,,,,,,,,,,,,,,,,,,,,,,,,,,,,,,,,,,,,,,,,,,,,,,,,1161.0931951999664,1161.0931951999664,0.008274800144135952,0.09784350031986833,4.0,2.6238038996234536,,,,,,,,,,,,,,,3081,Moral,2024-08-26_10h29.58.124,MoralCondition_v2,2022.2.5,29.997510180712144,
15,0,15,0,4,0,4,0,,,,,,,,,,,,,,,,,,,,,,,,,,,,,,,,,,,,,,,,,,,,,,,,,,,1163.7600672999397,1163.7600672999397,0.00670409994199872,0.09794509969651699,3.0,1.892291100230068,,,,,,,,,,,,,,,3081,Moral,2024-08-26_10h29.58.124,MoralCondition_v2,2022.2.5,29.997510180712144,
15,0,15,0,5,0,5,0,,,,,,,,,,,,,,,,,,,,,,,,,,,,,,,,,,,,,,,,,,,,,,,,,,,1165.6932939998806,1165.6932939998806,0.006798299960792065,0.0990327000617981,3.0,7.026760699693114,,,,,,,,,,,,,,,3081,Moral,2024-08-26_10h29.58.124,MoralCondition_v2,2022.2.5,29.997510180712144,
15,0,15,0,6,0,6,0,,,,,,,,,,,,,,,,,,,,,,,,,,,,,,,,,,,,,,,,,,,,,,,,,,,1172.7767668999732,1172.7767668999732,0.007730300072580576,0.11448249965906143,3.0,2.0743815996684134,,,,,,,,,,,,,,,3081,Moral,2024-08-26_10h29.58.124,MoralCondition_v2,2022.2.5,29.997510180712144,
15,0,15,0,,,,,,,,,,,,,,,,,,,,,,,,,,,,,,,,,,,,,,,,,,,,,,,,,,,,,,,,,,,,,1174.8763762996532,1174.8763762996532,0.0006905999034643173,0.09934519976377487,4.0,2.3662820998579264,,,,,,,,,3081,Moral,2024-08-26_10h29.58.124,MoralCondition_v2,2022.2.5,29.997510180712144,
16,0,16,0,0,0,0,0,,,,,,,,,,,,,,,,,,,,,1177.276501099579,0.00037509994581341743,0.09752159984782338,1183.25961739989,6.013995999936014,1183.4431876000017,1183.4431876000017,0.05064259981736541,0.16436089994385839,6.030806600116193,1189.576410099864,1189.576410099864,1189.576410099864,0.08237250009551644,0.1974804000928998,1195.2763860998675,1195.4764430997893,6.030771399848163,6.130851899739355,1201.476419399958,12.030834800098091,1201.6097747995518,1201.6097747995518,0.031020499765872955,0.13072939962148666,up,1.4250224996358156,1203.076572299935,6.600003689527512e-05,0.09783460013568401,1209.1099632997066,1209.1099632997066,0.025700599886476994,0.13119750004261732,4.0,13.373073200229555,,,,,,,6.097356799989939,1201.576390599832,1201.576390599832,1189.443099399563,1189.443099399563,,,,3081,Moral,2024-08-26_10h29.58.124,MoralCondition_v2,2022.2.5,29.997510180712144,
16,0,16,0,1,0,1,0,,,,,,,,,,,,,,,,,,,,,,,,,,,,,,,,,,,,,,,,,,,,,,,,,,,1222.5095141995698,1222.5095141995698,0.0067425998859107494,0.09898840030655265,2.0,5.426985300146043,,,,,,,,,,,,,,,3081,Moral,2024-08-26_10h29.58.124,MoralCondition_v2,2022.2.5,29.997510180712144,
16,0,16,0,2,0,2,0,,,,,,,,,,,,,,,,,,,,,,,,,,,,,,,,,,,,,,,,,,,,,,,,,,,1227.9929563999176,1227.9929563999176,0.01005320018157363,0.11439230013638735,2.0,3.105223999824375,,,,,,,,,,,,,,,3081,Moral,2024-08-26_10h29.58.124,MoralCondition_v2,2022.2.5,29.997510180712144,
16,0,16,0,3,0,3,0,,,,,,,,,,,,,,,,,,,,,,,,,,,,,,,,,,,,,,,,,,,,,,,,,,,1231.1261448999867,1231.1261448999867,0.006902399938553572,0.09928950015455484,2.0,1.7933258996345103,,,,,,,,,,,,,,,3081,Moral,2024-08-26_10h29.58.124,MoralCondition_v2,2022.2.5,29.997510180712144,
16,0,16,0,4,0,4,0,,,,,,,,,,,,,,,,,,,,,,,,,,,,,,,,,,,,,,,,,,,,,,,,,,,1232.9596111997962,1232.9596111997962,0.007129599805921316,0.09926899988204241,1.0,2.02675070008263,,,,,,,,,,,,,,,3081,Moral,2024-08-26_10h29.58.124,MoralCondition_v2,2022.2.5,29.997510180712144,
16,0,16,0,5,0,5,0,,,,,,,,,,,,,,,,,,,,,,,,,,,,,,,,,,,,,,,,,,,,,,,,,,,1235.026316699572,1235.026316699572,0.006644499953836203,0.09943420020863414,1.0,1.3938174000941217,,,,,,,,,,,,,,,3081,Moral,2024-08-26_10h29.58.124,MoralCondition_v2,2022.2.5,29.997510180712144,
16,0,16,0,6,0,6,0,,,,,,,,,,,,,,,,,,,,,,,,,,,,,,,,,,,,,,,,,,,,,,,,,,,1236.459616899956,1236.459616899956,0.007964800111949444,0.09752009995281696,2.0,1.9906099000945687,,,,,,,,,,,,,,,3081,Moral,2024-08-26_10h29.58.124,MoralCondition_v2,2022.2.5,29.997510180712144,
16,0,16,0,,,,,,,,,,,,,,,,,,,,,,,,,,,,,,,,,,,,,,,,,,,,,,,,,,,,,,,,,,,,,1238.4929777998477,1238.4929777998477,0.0012874999083578587,0.09793070005252957,4.0,7.331210100091994,,,,,,,,,3081,Moral,2024-08-26_10h29.58.124,MoralCondition_v2,2022.2.5,29.997510180712144,
17,0,17,0,0,0,0,0,,,,,,,,,,,,,,,,,,,,,1245.8597261998802,0.0001596999354660511,0.09912020014598966,1251.8595322999172,5.999092400074005,1252.0262824995443,1252.0262824995443,0.06278980011120439,0.16607729997485876,5.999226899817586,1258.1261946996674,1258.1261946996674,1258.1261946996674,0.05963880009949207,0.16578459972515702,1263.826190199703,1264.0261689997278,5.999134500045329,6.0990724000148475,1270.0261378996074,11.999095399864018,1270.1595493997447,1270.1595493997447,2.1999701857566833e-05,0.09940119972452521,up,1.4748362000100315,1271.6761388997547,4.409998655319214e-05,0.09770449995994568,1277.6763593996875,1277.6763593996875,0.009185700211673975,0.09767610020935535,2.0,6.1061040996573865,,,,,,,6.0991508001461625,1270.126141099725,1270.126141099725,1258.0262093995698,1258.0262093995698,1277.6763593996875,6.099186200182885,12.099110799841583,3081,Moral,2024-08-26_10h29.58.124,MoralCondition_v2,2022.2.5,29.997510180712144,
17,0,17,0,1,0,1,0,,,,,,,,,,,,,,,,,,,,,,,,,,,,,,,,,,,,,,,,,,,,,,,,,,,1283.8259307998233,1283.8259307998233,0.0071181003004312515,0.0973546002060175,2.0,1.1582088000141084,,,,,,,,,,,,,,,3081,Moral,2024-08-26_10h29.58.124,MoralCondition_v2,2022.2.5,29.997510180712144,
17,0,17,0,2,0,2,0,,,,,,,,,,,,,,,,,,,,,,,,,,,,,,,,,,,,,,,,,,,,,,,,,,,1285.0260889995843,1285.0260889995843,0.007480599917471409,0.09779840009287,2.0,2.0914841000922024,,,,,,,,,,,,,,,3081,Moral,2024-08-26_10h29.58.124,MoralCondition_v2,2022.2.5,29.997510180712144,
17,0,17,0,3,0,3,0,,,,,,,,,,,,,,,,,,,,,,,,,,,,,,,,,,,,,,,,,,,,,,,,,,,1287.1595460996032,1287.1595460996032,0.0065864999778568745,0.0991434003226459,2.0,4.960705700330436,,,,,,,,,,,,,,,3081,Moral,2024-08-26_10h29.58.124,MoralCondition_v2,2022.2.5,29.997510180712144,
17,0,17,0,4,0,4,0,,,,,,,,,,,,,,,,,,,,,,,,,,,,,,,,,,,,,,,,,,,,,,,,,,,1292.1762941996567,1292.1762941996567,0.008300699759274721,0.11426860000938177,3.0,1.9071424999274313,,,,,,,,,,,,,,,3081,Moral,2024-08-26_10h29.58.124,MoralCondition_v2,2022.2.5,29.997510180712144,
17,0,17,0,5,0,5,0,,,,,,,,,,,,,,,,,,,,,,,,,,,,,,,,,,,,,,,,,,,,,,,,,,,1294.1093784999102,1294.1093784999102,0.007512299809604883,0.09776279982179403,2.0,1.258036999963224,,,,,,,,,,,,,,,3081,Moral,2024-08-26_10h29.58.124,MoralCondition_v2,2022.2.5,29.997510180712144,
17,0,17,0,6,0,6,0,,,,,,,,,,,,,,,,,,,,,,,,,,,,,,,,,,,,,,,,,,,,,,,,,,,1295.4261010996997,1295.4261010996997,0.008438600227236748,0.11434200033545494,1.0,1.273566999938339,,,,,,,,,,,,,,,3081,Moral,2024-08-26_10h29.58.124,MoralCondition_v2,2022.2.5,29.997510180712144,
17,0,17,0,,,,,,,,,,,,,,,,,,,,,,,,,,,,,,,,,,,,,,,,,,,,,,,,,,,,,,,,,,,,,1296.7260751998983,1296.7260751998983,0.001172100193798542,0.09794330038130283,5.0,6.1986287999898195,,,,,,,,,3081,Moral,2024-08-26_10h29.58.124,MoralCondition_v2,2022.2.5,29.997510180712144,
18,0,18,0,0,0,0,0,,,,,,,,,,,,,,,,,,,,,1302.9595737997442,0.00026979995891451836,0.09796499973163009,1308.9592001996934,6.03097919980064,1309.14271119982,1309.14271119982,0.07905909977853298,0.18131170002743602,6.014470199588686,1315.242814600002,1315.242814600002,1315.242814600002,0.07499559968709946,0.1810883996076882,1320.9425720996223,1321.1426377999596,6.014484899584204,6.114446199499071,1327.1425667000003,12.014439499936998,1327.2759338999167,1327.2759338999167,0.014577299822121859,0.11448529968038201,up,2.142228300217539,1329.4594044997357,4.020007327198982e-05,0.09790270030498505,1335.47585789999,1335.47585789999,0.02522160019725561,0.11475090030580759,2.0,3.191095999907702,,,,,,,,1327.242585199885,1327.242585199885,1315.1427346998826,1315.1427346998826,,,,3081,Moral,2024-08-26_10h29.58.124,MoralCondition_v2,2022.2.5,29.997510180712144,
18,0,18,0,1,0,1,0,,,,,,,,,,,,,,,,,,,,,,,,,,,,,,,,,,,,,,,,,,,,,,,,,,,1338.7261397996917,1338.7261397996917,0.008295099716633558,0.11455139983445406,3.0,1.4742750995792449,,,,,,,,,,,,,,,3081,Moral,2024-08-26_10h29.58.124,MoralCondition_v2,2022.2.5,29.997510180712144,
18,0,18,0,2,0,2,0,,,,,,,,,,,,,,,,,,,,,,,,,,,,,,,,,,,,,,,,,,,,,,,,,,,1340.2257791999727,1340.2257791999727,0.007419000379741192,0.09753260016441345,2.0,2.4577433997765183,,,,,,,,,,,,,,,3081,Moral,2024-08-26_10h29.58.124,MoralCondition_v2,2022.2.5,29.997510180712144,
18,0,18,0,3,0,3,0,,,,,,,,,,,,,,,,,,,,,,,,,,,,,,,,,,,,,,,,,,,,,,,,,,,1342.7258389997296,1342.7258389997296,0.006642899941653013,0.09915120014920831,2.0,2.9935905998572707,,,,,,,,,,,,,,,3081,Moral,2024-08-26_10h29.58.124,MoralCondition_v2,2022.2.5,29.997510180712144,
18,0,18,0,4,0,4,0,,,,,,,,,,,,,,,,,,,,,,,,,,,,,,,,,,,,,,,,,,,,,,,,,,,1345.7591621996835,1345.7591621996835,0.006901399698108435,0.09954519988968968,1.0,1.9934263001196086,,,,,,,,,,,,,,,3081,Moral,2024-08-26_10h29.58.124,MoralCondition_v2,2022.2.5,29.997510180712144,
18,0,18,0,5,0,5,0,,,,,,,,,,,,,,,,,,,,,,,,,,,,,,,,,,,,,,,,,,,,,,,,,,,1347.7925388999283,1347.7925388999283,0.007720899768173695,0.09764039982110262,1.0,1.0255442997440696,,,,,,,,,,,,,,,3081,Moral,2024-08-26_10h29.58.124,MoralCondition_v2,2022.2.5,29.997510180712144,
18,0,18,0,6,0,6,0,,,,,,,,,,,,,,,,,,,,,,,,,,,,,,,,,,,,,,,,,,,,,,,,,,,1348.8592704995535,1348.8592704995535,0.0068258000537753105,0.09818730037659407,1.0,1.15906299976632,,,,,,,,,,,,,,,3081,Moral,2024-08-26_10h29.58.124,MoralCondition_v2,2022.2.5,29.997510180712144,
18,0,18,0,,,,,,,,,,,,,,,,,,,,,,,,,,,,,,,,,,,,,,,,,,,,,,,,,,,,,,,,,,,,,1350.0591610996053,1350.0591610996053,0.0015158997848629951,0.09748609969392419,5.0,5.43061999976635,,,,,,,,,3081,Moral,2024-08-26_10h29.58.124,MoralCondition_v2,2022.2.5,29.997510180712144,
19,0,19,0,0,0,0,0,,,,,,,,,,,,,,,,,,,,,1355.5257772998884,0.0002125999890267849,0.09864469990134239,1361.5257386998273,6.031872499734163,1361.7256916998886,1361.7256916998886,0.08599439961835742,0.19876509997993708,6.031807799823582,1367.8256484996527,1367.8256484996527,1367.8256484996527,0.08738839952275157,0.1986152995377779,1373.5256824996322,1373.7257103999145,6.0318335997872055,6.131761799566448,1379.7257086997852,12.031832499895245,1379.8590498999692,1379.8590498999692,0.031978399492800236,0.13181249983608723,up,1.631849099881947,1381.5256758998148,4.150019958615303e-05,0.09760309988632798,1387.5593951996416,1387.5593951996416,0.02488690009340644,0.13088000006973743,5.0,6.740432499907911,,,,,,,,1379.8256803997792,1379.8256803997792,1367.725745299831,1367.725745299831,,,,3081,Moral,2024-08-26_10h29.58.124,MoralCondition_v2,2022.2.5,29.997510180712144,
19,0,19,0,1,0,1,0,,,,,,,,,,,,,,,,,,,,,,,,,,,,,,,,,,,,,,,,,,,,,,,,,,,1394.3256067996845,1394.3256067996845,0.006500400137156248,0.09905900014564395,3.0,2.3601603000424802,,,,,,,,,,,,,,,3081,Moral,2024-08-26_10h29.58.124,MoralCondition_v2,2022.2.5,29.997510180712144,
19,0,19,0,2,0,2,0,,,,,,,,,,,,,,,,,,,,,,,,,,,,,,,,,,,,,,,,,,,,,,,,,,,1396.7256694999523,1396.7256694999523,0.006567899603396654,0.09899999992921948,3.0,6.626932600047439,,,,,,,,,,,,,,,3081,Moral,2024-08-26_10h29.58.124,MoralCondition_v2,2022.2.5,29.997510180712144,
19,0,19,0,3,0,3,0,,,,,,,,,,,,,,,,,,,,,,,,,,,,,,,,,,,,,,,,,,,,,,,,,,,1403.3924773996696,1403.3924773996696,0.006294799968600273,0.0992900999262929,1.0,2.093869300093502,,,,,,,,,,,,,,,3081,Moral,2024-08-26_10h29.58.124,MoralCondition_v2,2022.2.5,29.997510180712144,
19,0,19,0,4,0,4,0,,,,,,,,,,,,,,,,,,,,,,,,,,,,,,,,,,,,,,,,,,,,,,,,,,,1405.5255738999695,1405.5255738999695,0.007302400190383196,0.09798619989305735,1.0,6.858496999833733,,,,,,,,,,,,,,,3081,Moral,2024-08-26_10h29.58.124,MoralCondition_v2,2022.2.5,29.997510180712144,
19,0,19,0,5,0,5,0,,,,,,,,,,,,,,,,,,,,,,,,,,,,,,,,,,,,,,,,,,,,,,,,,,,1412.425544699654,1412.425544699654,0.0075761000625789165,0.09843479981645942,2.0,1.557966100051999,,,,,,,,,,,,,,,3081,Moral,2024-08-26_10h29.58.124,MoralCondition_v2,2022.2.5,29.997510180712144,
19,0,19,0,6,0,6,0,,,,,,,,,,,,,,,,,,,,,,,,,,,,,,,,,,,,,,,,,,,,,,,,,,,1414.042463499587,1414.042463499587,0.007717200089246035,0.1140040997415781,2.0,3.607262700330466,,,,,,,,,,,,,,,3081,Moral,2024-08-26_10h29.58.124,MoralCondition_v2,2022.2.5,29.997510180712144,
19,0,19,0,,,,,,,,,,,,,,,,,,,,,,,,,,,,,,,,,,,,,,,,,,,,,,,,,,,,,,,,,,,,,1417.6757415998727,1417.6757415998727,0.0011032000184059143,0.09801460010930896,3.0,4.498410699889064,,,,,,,,,3081,Moral,2024-08-26_10h29.58.124,MoralCondition_v2,2022.2.5,29.997510180712144,
