loop.thisRepN,loop.thisTrialN,loop.thisN,loop.thisIndex,evaluate_all_emotions.thisRepN,evaluate_all_emotions.thisTrialN,evaluate_all_emotions.thisN,evaluate_all_emotions.thisIndex,sync_beep_1.started,p_port.started,p_port.stopped,sync_beep_2.started,sync_beep_2.stopped,sync_beep_3.started,sync_beep_3.stopped,sync_beep_4.started,sync_beep_4.stopped,baseline.started,p_port_2.started,p_port_2.stopped,baseline.stopped,p_port_3.started,Game_Start_Text.started,p_port_4.started,p_port_4.stopped,key_resp.started,key_resp.keys,key_resp.rt,fixation_cross.started,p_port_5.started,p_port_5.stopped,fixation_cross.stopped,p_port_6.started,player_image_intro.started,player_name_intro.started,p_port_7.started,p_port_7.stopped,p_port_8.started,player_image_offer.started,player_name_offer.started,proposed_split.started,p_port_9.started,p_port_9.stopped,proposed_split.stopped,accept_reject.started,p_port_15.started,p_port_15.stopped,accept_reject.stopped,p_port_10.started,player_image_offer.stopped,player_name_offer.stopped,arrow_instructions.started,offer_choice.started,p_port_11.started,p_port_11.stopped,offer_choice.keys,offer_choice.rt,Instructions_Affinity_Score.started,p_port_12.started,p_port_12.stopped,Instructions_Affinity_Score.stopped,Emotion_Image.started,AffinityScore.started,p_port_13.started,p_port_13.stopped,AffinityScore.response,AffinityScore.rt,Instruction.started,Moral_Disgust_Score.started,p_port_14.started,p_port_14.stopped,Moral_Disgust_Score.response,Moral_Disgust_Score.rt,p_port_10.stopped,p_port_6.stopped,player_image_intro.stopped,player_name_intro.stopped,participant,session,date,expName,psychopyVersion,frameRate,
,,,,,,,,12.247142200125381,0.0007952000014483929,0.10677679989021271,12.845880920044147,13.145734900026582,13.428982719988563,13.729029700043611,14.029284819937311,14.345747799961828,14.345747799961828,0.023660099948756397,0.1236225999891758,29.362336199963465,15.00690909998957,29.462373499991372,0.006928500020876527,0.10685820004437119,29.945728500024416,space,1.2510357999708503,,,,,,,,,,,,,,,,,,,,,,,,,,,,,,,,,,,,,,,,,,,,,,,,,,3191,Moral,2025-03-03_13h40.10.665,MoralCondition_v2,2022.2.5,30.005403975980617,
0,0,0,0,0,0,0,0,,,,,,,,,,,,,,,,,,,,,31.24569120001979,0.001473400043323636,0.09856529999524355,37.245745999971405,6.03188600006979,37.47883949999232,37.47883949999232,0.10307900002226233,0.23168010008521378,6.015068600070663,43.54560950002633,43.54560950002633,43.54560950002633,0.07161250011995435,0.19854310003574938,49.24574959999882,49.44578469998669,6.031899700057693,6.1315204000566155,55.44568240002263,12.031748700072058,55.54562230000738,55.54562230000738,55.57900239992887,55.57900239992887,0.03185790008865297,0.13167170016095042,up,2.193381099961698,57.81239830004051,4.780001472681761e-05,0.09774590004235506,63.82924200000707,63.82924200000707,63.82924200000707,0.010599000030197203,0.11443079996388406,1.0,3.3049785000039265,,,,,,,,,,,3191,Moral,2025-03-03_13h40.10.665,MoralCondition_v2,2022.2.5,30.005403975980617,
0,0,0,0,1,0,1,0,,,,,,,,,,,,,,,,,,,,,,,,,,,,,,,,,,,,,,,,,,,,,,,,,,,,,,67.16224700002931,67.16224700002931,0.009426599950529635,0.09917129995301366,4.0,4.290389999980107,,,,,,,,,,,3191,Moral,2025-03-03_13h40.10.665,MoralCondition_v2,2022.2.5,30.005403975980617,
0,0,0,0,2,0,2,0,,,,,,,,,,,,,,,,,,,,,,,,,,,,,,,,,,,,,,,,,,,,,,,,,,,,,,71.4954309000168,71.4954309000168,0.009882200043648481,0.09771290002390742,1.0,3.988887299899943,,,,,,,,,,,3191,Moral,2025-03-03_13h40.10.665,MoralCondition_v2,2022.2.5,30.005403975980617,
0,0,0,0,3,0,3,0,,,,,,,,,,,,,,,,,,,,,,,,,,,,,,,,,,,,,,,,,,,,,,,,,,,,,,75.5289890000131,75.5289890000131,0.0098911999957636,0.09767419996205717,1.0,0.9889137999853119,,,,,,,,,,,3191,Moral,2025-03-03_13h40.10.665,MoralCondition_v2,2022.2.5,30.005403975980617,
0,0,0,0,4,0,4,0,,,,,,,,,,,,,,,,,,,,,,,,,,,,,,,,,,,,,,,,,,,,,,,,,,,,,,76.57902689999901,76.57902689999901,0.009670499945059419,0.11605479998979717,1.0,0.9072950000409037,,,,,,,,,,,3191,Moral,2025-03-03_13h40.10.665,MoralCondition_v2,2022.2.5,30.005403975980617,
0,0,0,0,5,0,5,0,,,,,,,,,,,,,,,,,,,,,,,,,,,,,,,,,,,,,,,,,,,,,,,,,,,,,,77.5122123999754,77.5122123999754,0.009569499990902841,0.09829549991991371,1.0,1.5232208999805152,,,,,,,,,,,3191,Moral,2025-03-03_13h40.10.665,MoralCondition_v2,2022.2.5,30.005403975980617,
0,0,0,0,6,0,6,0,,,,,,,,,,,,,,,,,,,,,,,,,,,,,,,,,,,,,,,,,,,,,,,,,,,,,,79.07880799996201,79.07880799996201,0.00922889995854348,0.09943549998570234,1.0,2.4577001999132335,,,,,,,,,,,3191,Moral,2025-03-03_13h40.10.665,MoralCondition_v2,2022.2.5,30.005403975980617,
0,0,0,0,,,,,,,,,,,,,,,,,,,,,,,,,,,,,,,,,,,,,,,,,,,,,,,,,,,,,,,,,,,,,,,,81.57897160004359,81.57897160004359,0.0013977999333292246,0.09775029995944351,4.0,3.664268600055948,,,,,3191,Moral,2025-03-03_13h40.10.665,MoralCondition_v2,2022.2.5,30.005403975980617,
1,0,1,0,0,0,0,0,,,,,,,,,,,,,,,,,,,,,85.27931709995028,0.0001404000213369727,0.0990178999491036,91.27891799993813,6.032391199958511,91.512023499934,91.512023499934,0.12627100001554936,0.23229269997682422,6.032345299958251,97.57883619994391,97.57883619994391,97.57883619994391,0.0914180000545457,0.19906020001508296,103.27884809998795,103.44554390001576,6.03227990004234,6.13244630000554,109.44556799996644,11.999027400044724,109.57888599997386,109.57888599997386,109.57888599997386,109.57888599997386,-3.569992259144783e-05,0.098918900010176,up,0.5781156999291852,110.17510410002433,3.620004281401634e-05,0.10036060004495084,116.19551310001407,116.19551310001407,116.19551310001407,0.03370819997508079,0.13371389999520034,1.0,1.7737797999288887,,,,,,,12.09896299999673,,,,3191,Moral,2025-03-03_13h40.10.665,MoralCondition_v2,2022.2.5,30.005403975980617,
1,0,1,0,1,0,1,0,,,,,,,,,,,,,,,,,,,,,,,,,,,,,,,,,,,,,,,,,,,,,,,,,,,,,,118.01214599993546,118.01214599993546,0.007047099992632866,0.11369189992547035,4.0,6.974228800041601,,,,,,,,,,,3191,Moral,2025-03-03_13h40.10.665,MoralCondition_v2,2022.2.5,30.005403975980617,
1,0,1,0,2,0,2,0,,,,,,,,,,,,,,,,,,,,,,,,,,,,,,,,,,,,,,,,,,,,,,,,,,,,,,125.01206580002327,125.01206580002327,0.007006499916315079,0.09910420002415776,1.0,1.4265731000341475,,,,,,,,,,,3191,Moral,2025-03-03_13h40.10.665,MoralCondition_v2,2022.2.5,30.005403975980617,
1,0,1,0,3,0,3,0,,,,,,,,,,,,,,,,,,,,,,,,,,,,,,,,,,,,,,,,,,,,,,,,,,,,,,126.478937100037,126.478937100037,0.007611399982124567,0.09737169998697937,1.0,1.224282699986361,,,,,,,,,,,3191,Moral,2025-03-03_13h40.10.665,MoralCondition_v2,2022.2.5,30.005403975980617,
1,0,1,0,4,0,4,0,,,,,,,,,,,,,,,,,,,,,,,,,,,,,,,,,,,,,,,,,,,,,,,,,,,,,,127.74557949998416,127.74557949998416,0.007595799979753792,0.09851599996909499,1.0,1.4919763000216335,,,,,,,,,,,3191,Moral,2025-03-03_13h40.10.665,MoralCondition_v2,2022.2.5,30.005403975980617,
1,0,1,0,5,0,5,0,,,,,,,,,,,,,,,,,,,,,,,,,,,,,,,,,,,,,,,,,,,,,,,,,,,,,,129.29593869997188,129.29593869997188,0.007907999912276864,0.11391569999977946,1.0,1.4071105000330135,,,,,,,,,,,3191,Moral,2025-03-03_13h40.10.665,MoralCondition_v2,2022.2.5,30.005403975980617,
1,0,1,0,6,0,6,0,,,,,,,,,,,,,,,,,,,,,,,,,,,,,,,,,,,,,,,,,,,,,,,,,,,,,,130.72886239993386,130.72886239993386,0.006797599955461919,0.09940429998096079,1.0,1.126961400033906,,,,,,,,,,,3191,Moral,2025-03-03_13h40.10.665,MoralCondition_v2,2022.2.5,30.005403975980617,
1,0,1,0,,,,,,,,,,,,,,,,,,,,,,,,,,,,,,,,,,,,,,,,,,,,,,,,,,,,,,,,,,,,,,,,131.89557169994805,131.89557169994805,0.0015282999956980348,0.09737329999916255,4.0,2.73053559998516,,,,,3191,Moral,2025-03-03_13h40.10.665,MoralCondition_v2,2022.2.5,30.005403975980617,
2,0,2,0,0,0,0,0,,,,,,,,,,,,,,,,,,,,,134.66211010003462,0.00014249992091208696,0.11584559991024435,140.66225019993726,5.999073199927807,140.8286787000252,140.8286787000252,0.05239379999693483,0.16568969993386418,6.032278299913742,146.96209689998068,146.96209689998068,146.96209689998068,0.08762210002169013,0.19894599996041507,152.6621496999869,152.86215259996243,6.0323236000258476,6.132380899973214,158.86235429998487,11.999031699961051,158.96215090004262,158.96215090004262,158.96215090004262,158.96215090004262,0.00018560001626610756,0.0989312999881804,up,0.4582902999827638,159.46214870002586,3.93999507650733e-05,0.09802479995414615,,165.47893620003015,165.47893620003015,0.02643739990890026,0.11478299996815622,1.0,1.5893485998967662,,,,,,,12.09925770002883,6.098801699932665,146.82882219995372,146.82882219995372,3191,Moral,2025-03-03_13h40.10.665,MoralCondition_v2,2022.2.5,30.005403975980617,
2,0,2,0,1,0,1,0,,,,,,,,,,,,,,,,,,,,,,,,,,,,,,,,,,,,,,,,,,,,,,,,,,,,,,167.11202839994803,167.11202839994803,0.007641199976205826,0.09770529996603727,4.0,3.7912671000231057,,,,,,,,,,,3191,Moral,2025-03-03_13h40.10.665,MoralCondition_v2,2022.2.5,30.005403975980617,
2,0,2,0,2,0,2,0,,,,,,,,,,,,,,,,,,,,,,,,,,,,,,,,,,,,,,,,,,,,,,,,,,,,,,170.9453401999781,170.9453401999781,0.0060162999434396625,0.0988369999686256,1.0,3.7272712000412866,,,,,,,,,,,3191,Moral,2025-03-03_13h40.10.665,MoralCondition_v2,2022.2.5,30.005403975980617,
2,0,2,0,3,0,3,0,,,,,,,,,,,,,,,,,,,,,,,,,,,,,,,,,,,,,,,,,,,,,,,,,,,,,,174.71211510000285,174.71211510000285,0.006640799925662577,0.09908099996391684,1.0,0.6935888999141753,,,,,,,,,,,3191,Moral,2025-03-03_13h40.10.665,MoralCondition_v2,2022.2.5,30.005403975980617,
2,0,2,0,4,0,4,0,,,,,,,,,,,,,,,,,,,,,,,,,,,,,,,,,,,,,,,,,,,,,,,,,,,,,,175.4454803999979,175.4454803999979,0.007221600040793419,0.09923250006977469,1.0,0.792970999958925,,,,,,,,,,,3191,Moral,2025-03-03_13h40.10.665,MoralCondition_v2,2022.2.5,30.005403975980617,
2,0,2,0,5,0,5,0,,,,,,,,,,,,,,,,,,,,,,,,,,,,,,,,,,,,,,,,,,,,,,,,,,,,,,176.29547240003012,176.29547240003012,0.007480300031602383,0.11381830007303506,1.0,1.141126099973917,,,,,,,,,,,3191,Moral,2025-03-03_13h40.10.665,MoralCondition_v2,2022.2.5,30.005403975980617,
2,0,2,0,6,0,6,0,,,,,,,,,,,,,,,,,,,,,,,,,,,,,,,,,,,,,,,,,,,,,,,,,,,,,,177.46190989995375,177.46190989995375,0.007316900067962706,0.09865270007867366,1.0,0.9258118999423459,,,,,,,,,,,3191,Moral,2025-03-03_13h40.10.665,MoralCondition_v2,2022.2.5,30.005403975980617,
2,0,2,0,,,,,,,,,,,,,,,,,,,,,,,,,,,,,,,,,,,,,,,,,,,,,,,,,,,,,,,,,,,,,,,,178.42876010003965,178.42876010003965,0.0012576999142765999,0.09788539994042367,4.0,2.297840500017628,,,,,3191,Moral,2025-03-03_13h40.10.665,MoralCondition_v2,2022.2.5,30.005403975980617,
3,0,3,0,0,0,0,0,,,,,,,,,,,,,,,,,,,,,180.76212530001067,0.00030259997583925724,0.09809950005728751,186.74534799996763,6.01469940005336,186.94529659999534,186.94529659999534,0.07047340006101876,0.18134180002380162,6.014851600048132,193.04528219997883,193.04528219997883,193.04528219997883,0.06812860001809895,0.18157940008677542,198.74537070002407,198.9453680999577,6.0147783000720665,6.114921600092202,204.9453593000071,12.014781700097956,205.02857179997955,205.02857179997955,205.07873069995549,205.07873069995549,0.014660200104117393,0.11455750011373311,up,0.7575748999370262,205.87872969999444,0.00011470005847513676,0.09814630006439984,,211.91206729994155,211.91206729994155,0.025253000087104738,0.13134309998713434,1.0,1.8404044000199065,,,,,,,,,192.9455662999535,192.9455662999535,3191,Moral,2025-03-03_13h40.10.665,MoralCondition_v2,2022.2.5,30.005403975980617,
3,0,3,0,1,0,1,0,,,,,,,,,,,,,,,,,,,,,,,,,,,,,,,,,,,,,,,,,,,,,,,,,,,,,,213.7785977999447,213.7785977999447,0.007624399964697659,0.09791010001208633,4.0,2.5577618000097573,,,,,,,,,,,3191,Moral,2025-03-03_13h40.10.665,MoralCondition_v2,2022.2.5,30.005403975980617,
3,0,3,0,2,0,2,0,,,,,,,,,,,,,,,,,,,,,,,,,,,,,,,,,,,,,,,,,,,,,,,,,,,,,,216.37857289996464,216.37857289996464,0.007362999953329563,0.0977710000006482,1.0,1.6917201000032946,,,,,,,,,,,3191,Moral,2025-03-03_13h40.10.665,MoralCondition_v2,2022.2.5,30.005403975980617,
3,0,3,0,3,0,3,0,,,,,,,,,,,,,,,,,,,,,,,,,,,,,,,,,,,,,,,,,,,,,,,,,,,,,,218.11222350003663,218.11222350003663,0.006984600098803639,0.09778100007679313,1.0,0.9585900000529364,,,,,,,,,,,3191,Moral,2025-03-03_13h40.10.665,MoralCondition_v2,2022.2.5,30.005403975980617,
3,0,3,0,4,0,4,0,,,,,,,,,,,,,,,,,,,,,,,,,,,,,,,,,,,,,,,,,,,,,,,,,,,,,,219.11193310003728,219.11193310003728,0.0078553999774158,0.09829330001957715,1.0,0.6579233000520617,,,,,,,,,,,3191,Moral,2025-03-03_13h40.10.665,MoralCondition_v2,2022.2.5,30.005403975980617,
3,0,3,0,5,0,5,0,,,,,,,,,,,,,,,,,,,,,,,,,,,,,,,,,,,,,,,,,,,,,,,,,,,,,,219.81219700002111,219.81219700002111,0.006595699931494892,0.0991839999333024,1.0,0.6601561000570655,,,,,,,,,,,3191,Moral,2025-03-03_13h40.10.665,MoralCondition_v2,2022.2.5,30.005403975980617,
3,0,3,0,6,0,6,0,,,,,,,,,,,,,,,,,,,,,,,,,,,,,,,,,,,,,,,,,,,,,,,,,,,,,,220.51196939998772,220.51196939998772,0.006327399984002113,0.09916620003059506,1.0,0.7938483000034466,,,,,,,,,,,3191,Moral,2025-03-03_13h40.10.665,MoralCondition_v2,2022.2.5,30.005403975980617,
3,0,3,0,,,,,,,,,,,,,,,,,,,,,,,,,,,,,,,,,,,,,,,,,,,,,,,,,,,,,,,,,,,,,,,,221.34539050003514,221.34539050003514,0.0013526000548154116,0.09918560006190091,4.0,2.265550300013274,,,,,3191,Moral,2025-03-03_13h40.10.665,MoralCondition_v2,2022.2.5,30.005403975980617,
4,0,4,0,0,0,0,0,,,,,,,,,,,,,,,,,,,,,223.6456367999781,0.0002829000586643815,0.09846120001748204,229.66200629994273,6.015112500055693,229.82868080004118,229.82868080004118,0.06987040000967681,0.18199559999629855,6.0150698000798,235.92855900002178,235.92855900002178,235.92855900002178,0.06749600009061396,0.18173150008078665,241.62862510001287,241.82891129993368,6.015331000089645,6.11503960005939,247.82860859995708,12.015039600082673,247.92862689995673,247.92862689995673,247.96192209993023,247.96192209993023,0.015212300117127597,0.11516890011262149,up,0.6427343999966979,248.64533089997713,4.409998655319214e-05,0.09803640004247427,,254.6788556999527,254.6788556999527,0.02592829999048263,0.1313379000639543,4.0,3.2729718999471515,,,,,,,,,235.8285879000323,235.8285879000323,3191,Moral,2025-03-03_13h40.10.665,MoralCondition_v2,2022.2.5,30.005403975980617,
4,0,4,0,1,0,1,0,,,,,,,,,,,,,,,,,,,,,,,,,,,,,,,,,,,,,,,,,,,,,,,,,,,,,,257.97855070000514,257.97855070000514,0.007402500021271408,0.09733310004230589,1.0,1.491461900062859,,,,,,,,,,,3191,Moral,2025-03-03_13h40.10.665,MoralCondition_v2,2022.2.5,30.005403975980617,
4,0,4,0,2,0,2,0,,,,,,,,,,,,,,,,,,,,,,,,,,,,,,,,,,,,,,,,,,,,,,,,,,,,,,259.51248819998,259.51248819998,0.006674200063571334,0.09722410002723336,1.0,0.5247524000005797,,,,,,,,,,,3191,Moral,2025-03-03_13h40.10.665,MoralCondition_v2,2022.2.5,30.005403975980617,
4,0,4,0,3,0,3,0,,,,,,,,,,,,,,,,,,,,,,,,,,,,,,,,,,,,,,,,,,,,,,,,,,,,,,260.07867700001225,260.07867700001225,0.006487499922513962,0.09860239992849529,1.0,0.5597005999879912,,,,,,,,,,,3191,Moral,2025-03-03_13h40.10.665,MoralCondition_v2,2022.2.5,30.005403975980617,
4,0,4,0,4,0,4,0,,,,,,,,,,,,,,,,,,,,,,,,,,,,,,,,,,,,,,,,,,,,,,,,,,,,,,260.6785350999562,260.6785350999562,0.00759469997137785,0.09743520000483841,1.0,0.5907464000629261,,,,,,,,,,,3191,Moral,2025-03-03_13h40.10.665,MoralCondition_v2,2022.2.5,30.005403975980617,
4,0,4,0,5,0,5,0,,,,,,,,,,,,,,,,,,,,,,,,,,,,,,,,,,,,,,,,,,,,,,,,,,,,,,261.3288876999868,261.3288876999868,0.008065600064583123,0.11413090000860393,1.0,0.740410799975507,,,,,,,,,,,3191,Moral,2025-03-03_13h40.10.665,MoralCondition_v2,2022.2.5,30.005403975980617,
4,0,4,0,6,0,6,0,,,,,,,,,,,,,,,,,,,,,,,,,,,,,,,,,,,,,,,,,,,,,,,,,,,,,,262.1121727999998,262.1121727999998,0.008129699970595539,0.11414760001935065,1.0,0.8070700999815017,,,,,,,,,,,3191,Moral,2025-03-03_13h40.10.665,MoralCondition_v2,2022.2.5,30.005403975980617,
4,0,4,0,,,,,,,,,,,,,,,,,,,,,,,,,,,,,,,,,,,,,,,,,,,,,,,,,,,,,,,,,,,,,,,,262.9453556999797,262.9453556999797,0.0014968999894335866,0.09732890001032501,4.0,2.2637679000617936,,,,,3191,Moral,2025-03-03_13h40.10.665,MoralCondition_v2,2022.2.5,30.005403975980617,
5,0,5,0,0,0,0,0,,,,,,,,,,,,,,,,,,,,,265.2453907999443,0.00028469995595514774,0.09768879995681345,271.24527139996644,6.031003199983388,271.4618373999838,271.4618373999838,0.11190909997094423,0.21423040004447103,6.014219000004232,277.52873939997517,277.52873939997517,277.52873939997517,0.07558800000697374,0.1812224000459537,283.2285595999565,283.4285550999921,6.014269100036472,6.114390500006266,289.4287824999774,12.014487100066617,289.5285158000188,289.5285158000188,289.5618799999356,289.5618799999356,0.01443390001077205,0.11418420006521046,up,0.41821819997858256,290.02853679994587,5.7999975979328156e-05,0.09794909995980561,296.02847140002996,296.02847140002996,296.02847140002996,0.009642599965445697,0.09776729997247458,1.0,1.4558974000392482,,,,,,,,,,,3191,Moral,2025-03-03_13h40.10.665,MoralCondition_v2,2022.2.5,30.005403975980617,
5,0,5,0,1,0,1,0,,,,,,,,,,,,,,,,,,,,,,,,,,,,,,,,,,,,,,,,,,,,,,,,,,,,,,297.5288334999932,297.5288334999932,0.006468600011430681,0.0984716999810189,1.0,0.7929541000630707,,,,,,,,,,,3191,Moral,2025-03-03_13h40.10.665,MoralCondition_v2,2022.2.5,30.005403975980617,
5,0,5,0,2,0,2,0,,,,,,,,,,,,,,,,,,,,,,,,,,,,,,,,,,,,,,,,,,,,,,,,,,,,,,298.3616531000007,298.3616531000007,0.007238700054585934,0.09838870004750788,1.0,0.8920333000132814,,,,,,,,,,,3191,Moral,2025-03-03_13h40.10.665,MoralCondition_v2,2022.2.5,30.005403975980617,
5,0,5,0,3,0,3,0,,,,,,,,,,,,,,,,,,,,,,,,,,,,,,,,,,,,,,,,,,,,,,,,,,,,,,299.295152900042,299.295152900042,0.007276399992406368,0.09778509999159724,1.0,0.8582738999975845,,,,,,,,,,,3191,Moral,2025-03-03_13h40.10.665,MoralCondition_v2,2022.2.5,30.005403975980617,
5,0,5,0,4,0,4,0,,,,,,,,,,,,,,,,,,,,,,,,,,,,,,,,,,,,,,,,,,,,,,,,,,,,,,300.21194559999276,300.21194559999276,0.008429100038483739,0.1135389000410214,1.0,1.2728824999649078,,,,,,,,,,,3191,Moral,2025-03-03_13h40.10.665,MoralCondition_v2,2022.2.5,30.005403975980617,
5,0,5,0,5,0,5,0,,,,,,,,,,,,,,,,,,,,,,,,,,,,,,,,,,,,,,,,,,,,,,,,,,,,,,301.51171500002965,301.51171500002965,0.007366999983787537,0.09917989990208298,1.0,1.0928778999950737,,,,,,,,,,,3191,Moral,2025-03-03_13h40.10.665,MoralCondition_v2,2022.2.5,30.005403975980617,
5,0,5,0,6,0,6,0,,,,,,,,,,,,,,,,,,,,,,,,,,,,,,,,,,,,,,,,,,,,,,,,,,,,,,302.64516650000587,302.64516650000587,0.006991099915467203,0.09905879991129041,4.0,2.393140700063668,,,,,,,,,,,3191,Moral,2025-03-03_13h40.10.665,MoralCondition_v2,2022.2.5,30.005403975980617,
5,0,5,0,,,,,,,,,,,,,,,,,,,,,,,,,,,,,,,,,,,,,,,,,,,,,,,,,,,,,,,,,,,,,,,,305.07862889999524,305.07862889999524,0.0018100000452250242,0.09781940001994371,4.0,2.5303729999577627,,,,,3191,Moral,2025-03-03_13h40.10.665,MoralCondition_v2,2022.2.5,30.005403975980617,
6,0,6,0,0,0,0,0,,,,,,,,,,,,,,,,,,,,,307.6454173999373,0.0002703999634832144,0.09734059998299927,313.6452275000047,6.030774599988945,313.8617231999524,313.8617231999524,0.09913610003422946,0.21374300005845726,6.013981000054628,319.928720899974,319.928720899974,319.928720899974,0.06800750002730638,0.1806327000958845,325.62841919995844,325.8291008999804,6.0146408000728115,6.11388430010993,331.82837999996264,12.013934800052084,331.92839799996,331.92839799996,331.96174689999316,331.96174689999316,0.014085500035434961,0.11389750009402633,up,0.531290200073272,332.5284282999346,4.39999857917428e-05,0.09788999997545034,338.54504130000714,338.54504130000714,338.54504130000714,0.009696300025098026,0.11462529993150383,1.0,2.105841299984604,,,,,,,,,,,3191,Moral,2025-03-03_13h40.10.665,MoralCondition_v2,2022.2.5,30.005403975980617,
6,0,6,0,1,0,1,0,,,,,,,,,,,,,,,,,,,,,,,,,,,,,,,,,,,,,,,,,,,,,,,,,,,,,,340.6785319999326,340.6785319999326,0.006860599969513714,0.0991914999904111,1.0,0.7936188000021502,,,,,,,,,,,3191,Moral,2025-03-03_13h40.10.665,MoralCondition_v2,2022.2.5,30.005403975980617,
6,0,6,0,2,0,2,0,,,,,,,,,,,,,,,,,,,,,,,,,,,,,,,,,,,,,,,,,,,,,,,,,,,,,,341.51165190001484,341.51165190001484,0.006561800022609532,0.09923709998838603,1.0,0.8270485000684857,,,,,,,,,,,3191,Moral,2025-03-03_13h40.10.665,MoralCondition_v2,2022.2.5,30.005403975980617,
6,0,6,0,3,0,3,0,,,,,,,,,,,,,,,,,,,,,,,,,,,,,,,,,,,,,,,,,,,,,,,,,,,,,,342.3785413999576,342.3785413999576,0.0062605999410152435,0.09913220000453293,1.0,1.427164199994877,,,,,,,,,,,3191,Moral,2025-03-03_13h40.10.665,MoralCondition_v2,2022.2.5,30.005403975980617,
6,0,6,0,4,0,4,0,,,,,,,,,,,,,,,,,,,,,,,,,,,,,,,,,,,,,,,,,,,,,,,,,,,,,,343.844801499974,343.844801499974,0.007393100066110492,0.09779470006469637,1.0,0.9247988999122754,,,,,,,,,,,3191,Moral,2025-03-03_13h40.10.665,MoralCondition_v2,2022.2.5,30.005403975980617,
6,0,6,0,5,0,5,0,,,,,,,,,,,,,,,,,,,,,,,,,,,,,,,,,,,,,,,,,,,,,,,,,,,,,,344.8285429000389,344.8285429000389,0.009272700059227645,0.11460059997625649,1.0,1.272882999968715,,,,,,,,,,,3191,Moral,2025-03-03_13h40.10.665,MoralCondition_v2,2022.2.5,30.005403975980617,
6,0,6,0,6,0,6,0,,,,,,,,,,,,,,,,,,,,,,,,,,,,,,,,,,,,,,,,,,,,,,,,,,,,,,346.12824039999396,346.12824039999396,0.007681500050239265,0.09814610006287694,4.0,1.824734800029546,,,,,,,,,,,3191,Moral,2025-03-03_13h40.10.665,MoralCondition_v2,2022.2.5,30.005403975980617,
6,0,6,0,,,,,,,,,,,,,,,,,,,,,,,,,,,,,,,,,,,,,,,,,,,,,,,,,,,,,,,,,,,,,,,,347.9949256000109,347.9949256000109,0.001371599966660142,0.09777399990707636,4.0,2.3643322000280023,,,,,3191,Moral,2025-03-03_13h40.10.665,MoralCondition_v2,2022.2.5,30.005403975980617,
7,0,7,0,0,0,0,0,,,,,,,,,,,,,,,,,,,,,350.39523409993853,0.00013109995052218437,0.09930619993247092,356.41164399997797,6.015732800005935,356.578455699957,356.578455699957,0.08042779995594174,0.18244670005515218,6.015746699995361,362.67808889993466,362.67808889993466,362.67808889993466,0.07174220005981624,0.18242660001851618,368.3783181000035,368.57829610002227,6.015744799980894,6.115704600000754,374.57829490001313,12.015755200060084,374.67822170001455,374.67822170001455,374.7115940999938,374.7115940999938,0.01582630001939833,0.11569400003645569,up,0.9007677999325097,375.6782779999776,6.250001024454832e-05,0.09796199994161725,,381.7115024999948,381.7115024999948,0.02580349997151643,0.13128279999364167,1.0,3.3397727999836206,,,,,,,,,362.57835750002414,362.57835750002414,3191,Moral,2025-03-03_13h40.10.665,MoralCondition_v2,2022.2.5,30.005403975980617,
7,0,7,0,1,0,1,0,,,,,,,,,,,,,,,,,,,,,,,,,,,,,,,,,,,,,,,,,,,,,,,,,,,,,,385.07831629994325,385.07831629994325,0.006703900056891143,0.09923409996554255,1.0,0.893597999936901,,,,,,,,,,,3191,Moral,2025-03-03_13h40.10.665,MoralCondition_v2,2022.2.5,30.005403975980617,
7,0,7,0,2,0,2,0,,,,,,,,,,,,,,,,,,,,,,,,,,,,,,,,,,,,,,,,,,,,,,,,,,,,,,386.011465699994,386.011465699994,0.006406399887055159,0.0992473999504,1.0,0.9270921000279486,,,,,,,,,,,3191,Moral,2025-03-03_13h40.10.665,MoralCondition_v2,2022.2.5,30.005403975980617,
7,0,7,0,3,0,3,0,,,,,,,,,,,,,,,,,,,,,,,,,,,,,,,,,,,,,,,,,,,,,,,,,,,,,,386.9953091000207,386.9953091000207,0.007738100015558302,0.11401490005664527,1.0,0.9072879999876022,,,,,,,,,,,3191,Moral,2025-03-03_13h40.10.665,MoralCondition_v2,2022.2.5,30.005403975980617,
7,0,7,0,4,0,4,0,,,,,,,,,,,,,,,,,,,,,,,,,,,,,,,,,,,,,,,,,,,,,,,,,,,,,,387.9282629999798,387.9282629999798,0.006576600018888712,0.09906449995469302,4.0,2.9935857999371365,,,,,,,,,,,3191,Moral,2025-03-03_13h40.10.665,MoralCondition_v2,2022.2.5,30.005403975980617,
7,0,7,0,5,0,5,0,,,,,,,,,,,,,,,,,,,,,,,,,,,,,,,,,,,,,,,,,,,,,,,,,,,,,,390.9615324999904,390.9615324999904,0.006441199919208884,0.09925099997781217,1.0,1.9944553999230266,,,,,,,,,,,3191,Moral,2025-03-03_13h40.10.665,MoralCondition_v2,2022.2.5,30.005403975980617,
7,0,7,0,6,0,6,0,,,,,,,,,,,,,,,,,,,,,,,,,,,,,,,,,,,,,,,,,,,,,,,,,,,,,,392.9947158000432,392.9947158000432,0.006852299906313419,0.09819419996347278,1.0,5.525845400057733,,,,,,,,,,,3191,Moral,2025-03-03_13h40.10.665,MoralCondition_v2,2022.2.5,30.005403975980617,
7,0,7,0,,,,,,,,,,,,,,,,,,,,,,,,,,,,,,,,,,,,,,,,,,,,,,,,,,,,,,,,,,,,,,,,398.5613539000042,398.5613539000042,0.0004795000422745943,0.09932520007714629,4.0,2.39982809999492,,,,,3191,Moral,2025-03-03_13h40.10.665,MoralCondition_v2,2022.2.5,30.005403975980617,
8,0,8,0,0,0,0,0,,,,,,,,,,,,,,,,,,,,,400.99512500001583,0.00028650008607655764,0.09810040006414056,407.01153799996246,6.014599000103772,407.19489609997254,407.19489609997254,0.08270900009665638,0.19810180005151778,6.031385300098918,413.2948008000385,413.2948008000385,413.2948008000385,0.09231020009610802,0.19812570011708885,418.99480149999727,419.19481360004283,6.031282200128771,6.131232800078578,425.19479229999706,12.031240300042555,425.278027900029,425.278027900029,425.3114282999886,425.3114282999886,0.014603300136514008,0.1145156001439318,up,0.5888960999436677,425.94500289997086,5.770009011030197e-05,0.09744730009697378,431.96167320001405,431.96167320001405,431.96167320001405,0.00855790008790791,0.11423880001530051,1.0,3.7068790999474004,,,,,,,,,413.1949203000404,413.1949203000404,3191,Moral,2025-03-03_13h40.10.665,MoralCondition_v2,2022.2.5,30.005403975980617,
8,0,8,0,1,0,1,0,,,,,,,,,,,,,,,,,,,,,,,,,,,,,,,,,,,,,,,,,,,,,,,,,,,,,,435.6945676000323,435.6945676000323,0.009236500016413629,0.09925820003263652,1.0,0.7578018999192864,,,,,,,,,,,3191,Moral,2025-03-03_13h40.10.665,MoralCondition_v2,2022.2.5,30.005403975980617,
8,0,8,0,2,0,2,0,,,,,,,,,,,,,,,,,,,,,,,,,,,,,,,,,,,,,,,,,,,,,,,,,,,,,,436.51142420002725,436.51142420002725,0.008367000031284988,0.11413770006038249,1.0,0.707065699971281,,,,,,,,,,,3191,Moral,2025-03-03_13h40.10.665,MoralCondition_v2,2022.2.5,30.005403975980617,
8,0,8,0,3,0,3,0,,,,,,,,,,,,,,,,,,,,,,,,,,,,,,,,,,,,,,,,,,,,,,,,,,,,,,437.24471280002035,437.24471280002035,0.008909300086088479,0.09785340004600585,1.0,1.156443899963051,,,,,,,,,,,3191,Moral,2025-03-03_13h40.10.665,MoralCondition_v2,2022.2.5,30.005403975980617,
8,0,8,0,4,0,4,0,,,,,,,,,,,,,,,,,,,,,,,,,,,,,,,,,,,,,,,,,,,,,,,,,,,,,,438.4447696999414,438.4447696999414,0.007853399962186813,0.09768610005266964,1.0,0.7908752000657842,,,,,,,,,,,3191,Moral,2025-03-03_13h40.10.665,MoralCondition_v2,2022.2.5,30.005403975980617,
8,0,8,0,5,0,5,0,,,,,,,,,,,,,,,,,,,,,,,,,,,,,,,,,,,,,,,,,,,,,,,,,,,,,,439.29486559994984,439.29486559994984,0.008639800013042986,0.11437860003206879,4.0,3.939909999957308,,,,,,,,,,,3191,Moral,2025-03-03_13h40.10.665,MoralCondition_v2,2022.2.5,30.005403975980617,
8,0,8,0,6,0,6,0,,,,,,,,,,,,,,,,,,,,,,,,,,,,,,,,,,,,,,,,,,,,,,,,,,,,,,443.26128009997774,443.26128009997774,0.007373999920673668,0.09786749992053956,1.0,1.3251856000861153,,,,,,,,,,,3191,Moral,2025-03-03_13h40.10.665,MoralCondition_v2,2022.2.5,30.005403975980617,
8,0,8,0,,,,,,,,,,,,,,,,,,,,,,,,,,,,,,,,,,,,,,,,,,,,,,,,,,,,,,,,,,,,,,,,444.6278430999955,444.6278430999955,0.0004744000034406781,0.0994772999547422,4.0,3.0667587999487296,,,,,3191,Moral,2025-03-03_13h40.10.665,MoralCondition_v2,2022.2.5,30.005403975980617,
9,0,9,0,0,0,0,0,,,,,,,,,,,,,,,,,,,,,447.72805339994375,0.00023260002490133047,0.09822320006787777,453.72798720002174,6.031523399986327,453.9280603999505,453.9280603999505,0.08834080002270639,0.1982917001005262,6.031498200027272,460.02812959998846,460.02812959998846,460.02812959998846,0.08937200007494539,0.1983482000650838,465.72804620000534,465.9280699000228,6.031627700082026,6.131591200013645,471.92795159993693,12.031494300113991,472.02791639999487,472.02791639999487,472.0613005999476,472.0613005999476,0.031603700132109225,0.13141670008189976,up,0.5117114000022411,472.6113702999428,7.940002251416445e-05,0.09837710007559508,478.62804119999055,478.62804119999055,478.62804119999055,0.008695400087162852,0.1149490000680089,1.0,3.3070293000200763,,,,,,,,,459.9280113000423,459.9280113000423,3191,Moral,2025-03-03_13h40.10.665,MoralCondition_v2,2022.2.5,30.005403975980617,
9,0,9,0,1,0,1,0,,,,,,,,,,,,,,,,,,,,,,,,,,,,,,,,,,,,,,,,,,,,,,,,,,,,,,481.9781532000052,481.9781532000052,0.007943099946714938,0.1141170000191778,1.0,0.7739992999704555,,,,,,,,,,,3191,Moral,2025-03-03_13h40.10.665,MoralCondition_v2,2022.2.5,30.005403975980617,
9,0,9,0,2,0,2,0,,,,,,,,,,,,,,,,,,,,,,,,,,,,,,,,,,,,,,,,,,,,,,,,,,,,,,482.77771229995415,482.77771229995415,0.006755799986422062,0.0996474000858143,1.0,0.9937598999822512,,,,,,,,,,,3191,Moral,2025-03-03_13h40.10.665,MoralCondition_v2,2022.2.5,30.005403975980617,
9,0,9,0,3,0,3,0,,,,,,,,,,,,,,,,,,,,,,,,,,,,,,,,,,,,,,,,,,,,,,,,,,,,,,483.81118970003445,483.81118970003445,0.00801260001026094,0.09920400008559227,1.0,2.292186699924059,,,,,,,,,,,3191,Moral,2025-03-03_13h40.10.665,MoralCondition_v2,2022.2.5,30.005403975980617,
9,0,9,0,4,0,4,0,,,,,,,,,,,,,,,,,,,,,,,,,,,,,,,,,,,,,,,,,,,,,,,,,,,,,,486.14447379997,486.14447379997,0.006763500045053661,0.09916990005876869,1.0,0.8601056999759749,,,,,,,,,,,3191,Moral,2025-03-03_13h40.10.665,MoralCondition_v2,2022.2.5,30.005403975980617,
9,0,9,0,5,0,5,0,,,,,,,,,,,,,,,,,,,,,,,,,,,,,,,,,,,,,,,,,,,,,,,,,,,,,,487.0447283999529,487.0447283999529,0.00680199998896569,0.09902660001534969,4.0,1.8601464999374002,,,,,,,,,,,3191,Moral,2025-03-03_13h40.10.665,MoralCondition_v2,2022.2.5,30.005403975980617,
9,0,9,0,6,0,6,0,,,,,,,,,,,,,,,,,,,,,,,,,,,,,,,,,,,,,,,,,,,,,,,,,,,,,,488.94441689993255,488.94441689993255,0.009282899904064834,0.09939569991547614,1.0,1.257427899981849,,,,,,,,,,,3191,Moral,2025-03-03_13h40.10.665,MoralCondition_v2,2022.2.5,30.005403975980617,
9,0,9,0,,,,,,,,,,,,,,,,,,,,,,,,,,,,,,,,,,,,,,,,,,,,,,,,,,,,,,,,,,,,,,,,490.24465150001924,490.24465150001924,0.0014049999881535769,0.09769759990740567,4.0,2.297348599997349,,,,,3191,Moral,2025-03-03_13h40.10.665,MoralCondition_v2,2022.2.5,30.005403975980617,
10,0,10,0,0,0,0,0,,,,,,,,,,,,,,,,,,,,,492.5780902999686,0.00029399991035461426,0.09794409992173314,498.5778234000318,6.031289099948481,498.76126559998374,498.76126559998374,0.07584169995971024,0.1815720999147743,6.014354399987496,504.86123899999075,504.86123899999075,504.86123899999075,0.07189799996558577,0.18134589993860573,510.5611191999633,510.76116859994363,6.014618000015616,6.114553899969906,516.7613724999828,12.01481069996953,516.8442724000197,516.8442724000197,516.8944333000109,516.8944333000109,0.014582299976609647,0.11454059998504817,up,0.4464589999988675,517.3778883999912,3.1100003980100155e-05,0.0979777000611648,523.377577999956,523.377577999956,523.377577999956,0.009780900087207556,0.09836130007170141,1.0,2.0228763999184594,,,,,,,,,504.76121000002604,504.76121000002604,3191,Moral,2025-03-03_13h40.10.665,MoralCondition_v2,2022.2.5,30.005403975980617,
10,0,10,0,1,0,1,0,,,,,,,,,,,,,,,,,,,,,,,,,,,,,,,,,,,,,,,,,,,,,,,,,,,,,,525.4444649999496,525.4444649999496,0.007620600052177906,0.09766950004268438,1.0,0.757814500015229,,,,,,,,,,,3191,Moral,2025-03-03_13h40.10.665,MoralCondition_v2,2022.2.5,30.005403975980617,
10,0,10,0,2,0,2,0,,,,,,,,,,,,,,,,,,,,,,,,,,,,,,,,,,,,,,,,,,,,,,,,,,,,,,526.2612584999297,526.2612584999297,0.007932199980132282,0.11403229995630682,1.0,0.7406554999761283,,,,,,,,,,,3191,Moral,2025-03-03_13h40.10.665,MoralCondition_v2,2022.2.5,30.005403975980617,
10,0,10,0,3,0,3,0,,,,,,,,,,,,,,,,,,,,,,,,,,,,,,,,,,,,,,,,,,,,,,,,,,,,,,527.0278388999868,527.0278388999868,0.007652499945834279,0.09756390005350113,1.0,0.8244747000280768,,,,,,,,,,,3191,Moral,2025-03-03_13h40.10.665,MoralCondition_v2,2022.2.5,30.005403975980617,
10,0,10,0,4,0,4,0,,,,,,,,,,,,,,,,,,,,,,,,,,,,,,,,,,,,,,,,,,,,,,,,,,,,,,527.8943650999572,527.8943650999572,0.007299600052647293,0.09780099999625236,1.0,0.891510899993591,,,,,,,,,,,3191,Moral,2025-03-03_13h40.10.665,MoralCondition_v2,2022.2.5,30.005403975980617,
10,0,10,0,5,0,5,0,,,,,,,,,,,,,,,,,,,,,,,,,,,,,,,,,,,,,,,,,,,,,,,,,,,,,,528.8278755999636,528.8278755999636,0.008014300023205578,0.0976150999777019,1.0,0.8906776000512764,,,,,,,,,,,3191,Moral,2025-03-03_13h40.10.665,MoralCondition_v2,2022.2.5,30.005403975980617,
10,0,10,0,6,0,6,0,,,,,,,,,,,,,,,,,,,,,,,,,,,,,,,,,,,,,,,,,,,,,,,,,,,,,,529.7610043999739,529.7610043999739,0.006889999960549176,0.0993601999944076,4.0,2.0268863999517635,,,,,,,,,,,3191,Moral,2025-03-03_13h40.10.665,MoralCondition_v2,2022.2.5,30.005403975980617,
10,0,10,0,,,,,,,,,,,,,,,,,,,,,,,,,,,,,,,,,,,,,,,,,,,,,,,,,,,,,,,,,,,,,,,,531.8276440999471,531.8276440999471,0.0015249999705702066,0.09772979991976172,4.0,1.6641381999943405,,,,,3191,Moral,2025-03-03_13h40.10.665,MoralCondition_v2,2022.2.5,30.005403975980617,
11,0,11,0,0,0,0,0,,,,,,,,,,,,,,,,,,,,,533.5277085000416,0.0003008999628946185,0.09774250001646578,539.5277038000058,6.031262999982573,539.7108368999325,539.7108368999325,0.06976930005475879,0.18124720000196248,6.0147573000285774,545.8108645000029,545.8108645000029,545.8108645000029,0.07082050002645701,0.18096480006352067,551.511028100038,551.7111656999914,6.014716700068675,6.114492300082929,557.710787500022,12.014243500074372,557.7940762999933,557.7940762999933,557.8442980999826,557.8442980999826,0.014492600108496845,0.11441610008478165,up,0.5998323999810964,558.477605800028,4.640000406652689e-05,0.09760440001264215,564.4774402999319,564.4774402999319,564.4774402999319,0.008195500005967915,0.09735050005838275,4.0,2.9235970000736415,,,,,,,,,545.7110013000201,545.7110013000201,3191,Moral,2025-03-03_13h40.10.665,MoralCondition_v2,2022.2.5,30.005403975980617,
11,0,11,0,1,0,1,0,,,,,,,,,,,,,,,,,,,,,,,,,,,,,,,,,,,,,,,,,,,,,,,,,,,,,,567.4441421999363,567.4441421999363,0.0068533000303432345,0.09905960003379732,1.0,1.6267365000676364,,,,,,,,,,,3191,Moral,2025-03-03_13h40.10.665,MoralCondition_v2,2022.2.5,30.005403975980617,
11,0,11,0,2,0,2,0,,,,,,,,,,,,,,,,,,,,,,,,,,,,,,,,,,,,,,,,,,,,,,,,,,,,,,569.1108420999954,569.1108420999954,0.008400099934078753,0.09811110002920032,1.0,0.6906145999673754,,,,,,,,,,,3191,Moral,2025-03-03_13h40.10.665,MoralCondition_v2,2022.2.5,30.005403975980617,
11,0,11,0,3,0,3,0,,,,,,,,,,,,,,,,,,,,,,,,,,,,,,,,,,,,,,,,,,,,,,,,,,,,,,569.8443887999747,569.8443887999747,0.005607499973848462,0.09864059998653829,1.0,0.8942142000887543,,,,,,,,,,,3191,Moral,2025-03-03_13h40.10.665,MoralCondition_v2,2022.2.5,30.005403975980617,
11,0,11,0,4,0,4,0,,,,,,,,,,,,,,,,,,,,,,,,,,,,,,,,,,,,,,,,,,,,,,,,,,,,,,570.7774916000199,570.7774916000199,0.008667099988088012,0.0977016999386251,1.0,0.75666099996306,,,,,,,,,,,3191,Moral,2025-03-03_13h40.10.665,MoralCondition_v2,2022.2.5,30.005403975980617,
11,0,11,0,5,0,5,0,,,,,,,,,,,,,,,,,,,,,,,,,,,,,,,,,,,,,,,,,,,,,,,,,,,,,,571.5775168000255,571.5775168000255,0.007013399968855083,0.09932359994854778,1.0,0.7933436000021175,,,,,,,,,,,3191,Moral,2025-03-03_13h40.10.665,MoralCondition_v2,2022.2.5,30.005403975980617,
11,0,11,0,6,0,6,0,,,,,,,,,,,,,,,,,,,,,,,,,,,,,,,,,,,,,,,,,,,,,,,,,,,,,,572.4108877000399,572.4108877000399,0.00840240006800741,0.09759590006433427,1.0,0.6234274000162259,,,,,,,,,,,3191,Moral,2025-03-03_13h40.10.665,MoralCondition_v2,2022.2.5,30.005403975980617,
11,0,11,0,,,,,,,,,,,,,,,,,,,,,,,,,,,,,,,,,,,,,,,,,,,,,,,,,,,,,,,,,,,,,,,,573.0775491000386,573.0775491000386,0.0013006000081077218,0.09792729991022497,4.0,3.531212000059895,,,,,3191,Moral,2025-03-03_13h40.10.665,MoralCondition_v2,2022.2.5,30.005403975980617,
12,0,12,0,0,0,0,0,,,,,,,,,,,,,,,,,,,,,576.6442311999854,0.0003127000527456403,0.0980401000706479,582.6608648999827,6.014662600005977,582.827531900024,582.827531900024,0.07268830004613847,0.1813865000149235,6.014718900085427,588.9276323999511,588.9276323999511,588.9276323999511,0.07248470012564212,0.18156260007526726,594.6274779000087,594.8274566000327,6.014695400139317,6.114456600043923,600.8275535999564,12.014789400040172,600.927585199941,600.927585199941,600.960749699967,600.960749699967,0.01495420013088733,0.1147260001162067,up,0.9558128999779001,601.9774203000125,4.6600005589425564e-05,0.09766029997263104,,607.9939352000365,607.9939352000365,0.023852900019846857,0.11456040001939982,1.0,3.1916692999657243,,,,,,,,,588.8274753999431,588.8274753999431,3191,Moral,2025-03-03_13h40.10.665,MoralCondition_v2,2022.2.5,30.005403975980617,
12,0,12,0,1,0,1,0,,,,,,,,,,,,,,,,,,,,,,,,,,,,,,,,,,,,,,,,,,,,,,,,,,,,,,611.2275441000238,611.2275441000238,0.008802100084722042,0.09733620006591082,1.0,0.8561621999833733,,,,,,,,,,,3191,Moral,2025-03-03_13h40.10.665,MoralCondition_v2,2022.2.5,30.005403975980617,
12,0,12,0,2,0,2,0,,,,,,,,,,,,,,,,,,,,,,,,,,,,,,,,,,,,,,,,,,,,,,,,,,,,,,612.1274398999522,612.1274398999522,0.008228500024415553,0.09757079998962581,1.0,0.756817499990575,,,,,,,,,,,3191,Moral,2025-03-03_13h40.10.665,MoralCondition_v2,2022.2.5,30.005403975980617,
12,0,12,0,3,0,3,0,,,,,,,,,,,,,,,,,,,,,,,,,,,,,,,,,,,,,,,,,,,,,,,,,,,,,,612.9274487999501,612.9274487999501,0.00666269997600466,0.09908569999970496,4.0,1.8270002999342978,,,,,,,,,,,3191,Moral,2025-03-03_13h40.10.665,MoralCondition_v2,2022.2.5,30.005403975980617,
12,0,12,0,4,0,4,0,,,,,,,,,,,,,,,,,,,,,,,,,,,,,,,,,,,,,,,,,,,,,,,,,,,,,,614.8106179999886,614.8106179999886,0.009744099923409522,0.11557619995437562,1.0,1.1737131999107078,,,,,,,,,,,3191,Moral,2025-03-03_13h40.10.665,MoralCondition_v2,2022.2.5,30.005403975980617,
12,0,12,0,5,0,5,0,,,,,,,,,,,,,,,,,,,,,,,,,,,,,,,,,,,,,,,,,,,,,,,,,,,,,,616.0108412000118,616.0108412000118,0.007330999942496419,0.0977913000388071,1.0,0.7249710999894887,,,,,,,,,,,3191,Moral,2025-03-03_13h40.10.665,MoralCondition_v2,2022.2.5,30.005403975980617,
12,0,12,0,6,0,6,0,,,,,,,,,,,,,,,,,,,,,,,,,,,,,,,,,,,,,,,,,,,,,,,,,,,,,,616.7942121999804,616.7942121999804,0.007697600056417286,0.11397930001839995,1.0,0.7407773999730125,,,,,,,,,,,3191,Moral,2025-03-03_13h40.10.665,MoralCondition_v2,2022.2.5,30.005403975980617,
12,0,12,0,,,,,,,,,,,,,,,,,,,,,,,,,,,,,,,,,,,,,,,,,,,,,,,,,,,,,,,,,,,,,,,,617.560629799962,617.560629799962,0.0018610999686643481,0.09716150001622736,4.0,3.829859400051646,,,,,3191,Moral,2025-03-03_13h40.10.665,MoralCondition_v2,2022.2.5,30.005403975980617,
13,0,13,0,0,0,0,0,,,,,,,,,,,,,,,,,,,,,621.4273602999747,0.0003909999504685402,0.09774969995487481,627.4439812999917,6.014353399979882,627.6106953000417,627.6106953000417,0.06792389997281134,0.18123859993647784,6.014372000005096,633.7106479000067,633.7106479000067,633.7106479000067,0.06696720002219081,0.18118820001836866,639.4107394999592,639.6107646999881,6.014517699950375,6.114313500002027,645.6105771999573,12.014329900033772,645.7106038000202,645.7106038000202,645.744119699928,645.744119699928,0.01448720006737858,0.11424879997503012,up,2.700514000025578,648.5106731000124,4.840001929551363e-05,0.09799540007952601,,654.5439792999532,654.5439792999532,0.026001400081440806,0.13137750001624227,1.0,2.806316199945286,,,,,,,,,633.6105793999741,633.6105793999741,3191,Moral,2025-03-03_13h40.10.665,MoralCondition_v2,2022.2.5,30.005403975980617,
13,0,13,0,1,0,1,0,,,,,,,,,,,,,,,,,,,,,,,,,,,,,,,,,,,,,,,,,,,,,,,,,,,,,,657.3772705999436,657.3772705999436,0.007382299983873963,0.09776260005310178,1.0,0.7914863000623882,,,,,,,,,,,3191,Moral,2025-03-03_13h40.10.665,MoralCondition_v2,2022.2.5,30.005403975980617,
13,0,13,0,2,0,2,0,,,,,,,,,,,,,,,,,,,,,,,,,,,,,,,,,,,,,,,,,,,,,,,,,,,,,,658.2275085999863,658.2275085999863,0.011299100005999207,0.11466880002990365,4.0,1.9377344000386074,,,,,,,,,,,3191,Moral,2025-03-03_13h40.10.665,MoralCondition_v2,2022.2.5,30.005403975980617,
13,0,13,0,3,0,3,0,,,,,,,,,,,,,,,,,,,,,,,,,,,,,,,,,,,,,,,,,,,,,,,,,,,,,,660.1936332000187,660.1936332000187,0.008149200002662838,0.09822629997506738,1.0,1.4911443999735638,,,,,,,,,,,3191,Moral,2025-03-03_13h40.10.665,MoralCondition_v2,2022.2.5,30.005403975980617,
13,0,13,0,4,0,4,0,,,,,,,,,,,,,,,,,,,,,,,,,,,,,,,,,,,,,,,,,,,,,,,,,,,,,,661.7439677999355,661.7439677999355,0.00896680005826056,0.11428600002545863,1.0,0.773020299966447,,,,,,,,,,,3191,Moral,2025-03-03_13h40.10.665,MoralCondition_v2,2022.2.5,30.005403975980617,
13,0,13,0,5,0,5,0,,,,,,,,,,,,,,,,,,,,,,,,,,,,,,,,,,,,,,,,,,,,,,,,,,,,,,662.5436467999825,662.5436467999825,0.00771759997587651,0.09775669989176095,1.0,0.9246057999553159,,,,,,,,,,,3191,Moral,2025-03-03_13h40.10.665,MoralCondition_v2,2022.2.5,30.005403975980617,
13,0,13,0,6,0,6,0,,,,,,,,,,,,,,,,,,,,,,,,,,,,,,,,,,,,,,,,,,,,,,,,,,,,,,663.5106541999849,663.5106541999849,0.00883319997228682,0.09719630004838109,1.0,1.02282010007184,,,,,,,,,,,3191,Moral,2025-03-03_13h40.10.665,MoralCondition_v2,2022.2.5,30.005403975980617,
13,0,13,0,,,,,,,,,,,,,,,,,,,,,,,,,,,,,,,,,,,,,,,,,,,,,,,,,,,,,,,,,,,,,,,,664.5773562999675,664.5773562999675,0.0018476999830454588,0.09735789999831468,4.0,2.8300377000123262,,,,,3191,Moral,2025-03-03_13h40.10.665,MoralCondition_v2,2022.2.5,30.005403975980617,
14,0,14,0,0,0,0,0,,,,,,,,,,,,,,,,,,,,,667.4440426999936,0.00013780000153928995,0.099258599919267,673.4604497000109,6.015731899999082,673.6270098999375,673.6270098999375,0.07040139997843653,0.18236760003492236,6.015703700017184,679.727222400019,679.727222400019,679.727222400019,0.06944009999278933,0.18238729995209724,685.4272913000314,685.627084900043,6.015789299970493,6.115763399982825,691.6270502000116,12.015680199954659,691.7270497999853,691.7270497999853,691.7603912999621,691.7603912999621,0.016012700041756034,0.11569780006539077,up,0.42827809997834265,692.2270557000302,4.4599990360438824e-05,0.09761479997541755,,698.2439421999734,698.2439421999734,0.02474719996098429,0.11435609997715801,1.0,3.3239856000291184,,,,,,,,,679.6271110000089,679.6271110000089,3191,Moral,2025-03-03_13h40.10.665,MoralCondition_v2,2022.2.5,30.005403975980617,
14,0,14,0,1,0,1,0,,,,,,,,,,,,,,,,,,,,,,,,,,,,,,,,,,,,,,,,,,,,,,,,,,,,,,701.610453399946,701.610453399946,0.008546700002625585,0.09752940002363175,1.0,0.9231694999616593,,,,,,,,,,,3191,Moral,2025-03-03_13h40.10.665,MoralCondition_v2,2022.2.5,30.005403975980617,
14,0,14,0,2,0,2,0,,,,,,,,,,,,,,,,,,,,,,,,,,,,,,,,,,,,,,,,,,,,,,,,,,,,,,702.5938862999901,702.5938862999901,0.008016700041480362,0.11430820007808506,1.0,0.7740219000261277,,,,,,,,,,,3191,Moral,2025-03-03_13h40.10.665,MoralCondition_v2,2022.2.5,30.005403975980617,
14,0,14,0,3,0,3,0,,,,,,,,,,,,,,,,,,,,,,,,,,,,,,,,,,,,,,,,,,,,,,,,,,,,,,703.393744800007,703.393744800007,0.00744209997355938,0.09780390001833439,4.0,1.6914756000041962,,,,,,,,,,,3191,Moral,2025-03-03_13h40.10.665,MoralCondition_v2,2022.2.5,30.005403975980617,
14,0,14,0,4,0,4,0,,,,,,,,,,,,,,,,,,,,,,,,,,,,,,,,,,,,,,,,,,,,,,,,,,,,,,705.1268630999839,705.1268630999839,0.008176299976184964,0.09826819994486868,1.0,1.191255300072953,,,,,,,,,,,3191,Moral,2025-03-03_13h40.10.665,MoralCondition_v2,2022.2.5,30.005403975980617,
14,0,14,0,5,0,5,0,,,,,,,,,,,,,,,,,,,,,,,,,,,,,,,,,,,,,,,,,,,,,,,,,,,,,,706.3601483999519,706.3601483999519,0.007651000050827861,0.09780860005412251,1.0,0.6913602999411523,,,,,,,,,,,3191,Moral,2025-03-03_13h40.10.665,MoralCondition_v2,2022.2.5,30.005403975980617,
14,0,14,0,6,0,6,0,,,,,,,,,,,,,,,,,,,,,,,,,,,,,,,,,,,,,,,,,,,,,,,,,,,,,,707.094068299979,707.094068299979,0.007761699962429702,0.09794499992858618,1.0,0.7577833000104874,,,,,,,,,,,3191,Moral,2025-03-03_13h40.10.665,MoralCondition_v2,2022.2.5,30.005403975980617,
14,0,14,0,,,,,,,,,,,,,,,,,,,,,,,,,,,,,,,,,,,,,,,,,,,,,,,,,,,,,,,,,,,,,,,,707.8938337999862,707.8938337999862,0.0020553000504150987,0.09821790002752095,4.0,2.6968833999708295,,,,,3191,Moral,2025-03-03_13h40.10.665,MoralCondition_v2,2022.2.5,30.005403975980617,
15,0,15,0,0,0,0,0,,,,,,,,,,,,,,,,,,,,,710.6272922999924,0.0002924000145867467,0.0985729000531137,716.6270435999613,6.031903099967167,716.8100549000083,716.8100549000083,0.07012730010319501,0.18164290010463446,6.015082200057805,722.910281599965,722.910281599965,722.910281599965,0.07394190004561096,0.18161440012045205,728.6102344000246,728.8102412000299,6.014988300041296,6.114958800026216,734.810248499969,12.014998200116679,734.9101935999934,734.9101935999934,734.9266879999777,734.9266879999777,0.014974300051108003,0.09824190009385347,up,1.0697376999305561,736.0602195999818,4.800001624971628e-05,0.09807379997801036,,742.0934953000396,742.0934953000396,0.02601539995521307,0.13135049992706627,1.0,2.4728511000284925,,,,,,,,,722.8102564000292,722.8102564000292,3191,Moral,2025-03-03_13h40.10.665,MoralCondition_v2,2022.2.5,30.005403975980617,
15,0,15,0,1,0,1,0,,,,,,,,,,,,,,,,,,,,,,,,,,,,,,,,,,,,,,,,,,,,,,,,,,,,,,744.5935034999857,744.5935034999857,0.006646699970588088,0.09912489994894713,1.0,0.8267525000264868,,,,,,,,,,,3191,Moral,2025-03-03_13h40.10.665,MoralCondition_v2,2022.2.5,30.005403975980617,
15,0,15,0,2,0,2,0,,,,,,,,,,,,,,,,,,,,,,,,,,,,,,,,,,,,,,,,,,,,,,,,,,,,,,745.4601823999546,745.4601823999546,0.006650800001807511,0.099386400077492,1.0,0.8269887000788003,,,,,,,,,,,3191,Moral,2025-03-03_13h40.10.665,MoralCondition_v2,2022.2.5,30.005403975980617,
15,0,15,0,3,0,3,0,,,,,,,,,,,,,,,,,,,,,,,,,,,,,,,,,,,,,,,,,,,,,,,,,,,,,,746.326958599966,746.326958599966,0.007518899976275861,0.09780949994456023,1.0,0.8580713999690488,,,,,,,,,,,3191,Moral,2025-03-03_13h40.10.665,MoralCondition_v2,2022.2.5,30.005403975980617,
15,0,15,0,4,0,4,0,,,,,,,,,,,,,,,,,,,,,,,,,,,,,,,,,,,,,,,,,,,,,,,,,,,,,,747.2268493999727,747.2268493999727,0.0066503999987617135,0.09933150000870228,4.0,1.92713470000308,,,,,,,,,,,3191,Moral,2025-03-03_13h40.10.665,MoralCondition_v2,2022.2.5,30.005403975980617,
15,0,15,0,5,0,5,0,,,,,,,,,,,,,,,,,,,,,,,,,,,,,,,,,,,,,,,,,,,,,,,,,,,,,,749.1934009999968,749.1934009999968,0.0068391000386327505,0.09926670009735972,1.0,1.1602945000631735,,,,,,,,,,,3191,Moral,2025-03-03_13h40.10.665,MoralCondition_v2,2022.2.5,30.005403975980617,
15,0,15,0,6,0,6,0,,,,,,,,,,,,,,,,,,,,,,,,,,,,,,,,,,,,,,,,,,,,,,,,,,,,,,750.3934556000168,750.3934556000168,0.006784799974411726,0.09928269998636097,1.0,0.7933094999752939,,,,,,,,,,,3191,Moral,2025-03-03_13h40.10.665,MoralCondition_v2,2022.2.5,30.005403975980617,
15,0,15,0,,,,,,,,,,,,,,,,,,,,,,,,,,,,,,,,,,,,,,,,,,,,,,,,,,,,,,,,,,,,,,,,751.2271215999499,751.2271215999499,0.0007029999978840351,0.09923659998457879,4.0,2.3661440000869334,,,,,3191,Moral,2025-03-03_13h40.10.665,MoralCondition_v2,2022.2.5,30.005403975980617,
16,0,16,0,0,0,0,0,,,,,,,,,,,,,,,,,,,,,753.6269893000135,0.0001365999924018979,0.09915400005411357,759.6434404000174,6.015828400035389,759.8101906999946,759.8101906999946,0.06839610007591546,0.18270970007870346,6.015785100054927,765.9101806000108,765.9101806000108,765.9101806000108,0.06773220002651215,0.1826376001117751,771.6101221999852,771.8100297999335,6.015772100072354,6.115785100031644,777.8100098000141,12.015753700048663,777.9100536999758,777.9100536999758,777.9433436000254,777.9433436000254,0.01603850012179464,0.11567680013831705,up,0.7727711000479758,778.7600016000215,4.279997665435076e-05,0.0978770999936387,,784.7936028999975,784.7936028999975,0.025910899974405766,0.131327599985525,1.0,3.2061908999457955,,,,,,,,,765.793250799994,765.793250799994,3191,Moral,2025-03-03_13h40.10.665,MoralCondition_v2,2022.2.5,30.005403975980617,
16,0,16,0,1,0,1,0,,,,,,,,,,,,,,,,,,,,,,,,,,,,,,,,,,,,,,,,,,,,,,,,,,,,,,788.0266393999336,788.0266393999336,0.0067257999908179045,0.09913799993228167,1.0,0.7265216999221593,,,,,,,,,,,3191,Moral,2025-03-03_13h40.10.665,MoralCondition_v2,2022.2.5,30.005403975980617,
16,0,16,0,2,0,2,0,,,,,,,,,,,,,,,,,,,,,,,,,,,,,,,,,,,,,,,,,,,,,,,,,,,,,,788.7934557000408,788.7934557000408,0.007119799964129925,0.09937909990549088,4.0,1.46025689993985,,,,,,,,,,,3191,Moral,2025-03-03_13h40.10.665,MoralCondition_v2,2022.2.5,30.005403975980617,
16,0,16,0,3,0,3,0,,,,,,,,,,,,,,,,,,,,,,,,,,,,,,,,,,,,,,,,,,,,,,,,,,,,,,790.2932029999793,790.2932029999793,0.00854750000871718,0.09929240006022155,1.0,1.2250056999037042,,,,,,,,,,,3191,Moral,2025-03-03_13h40.10.665,MoralCondition_v2,2022.2.5,30.005403975980617,
16,0,16,0,4,0,4,0,,,,,,,,,,,,,,,,,,,,,,,,,,,,,,,,,,,,,,,,,,,,,,,,,,,,,,791.5768914000364,791.5768914000364,0.007679799920879304,0.11413589993026108,1.0,0.6077278000302613,,,,,,,,,,,3191,Moral,2025-03-03_13h40.10.665,MoralCondition_v2,2022.2.5,30.005403975980617,
16,0,16,0,5,0,5,0,,,,,,,,,,,,,,,,,,,,,,,,,,,,,,,,,,,,,,,,,,,,,,,,,,,,,,792.2099149000132,792.2099149000132,0.0065466000232845545,0.09922209999058396,1.0,0.593747099977918,,,,,,,,,,,3191,Moral,2025-03-03_13h40.10.665,MoralCondition_v2,2022.2.5,30.005403975980617,
16,0,16,0,6,0,6,0,,,,,,,,,,,,,,,,,,,,,,,,,,,,,,,,,,,,,,,,,,,,,,,,,,,,,,792.8433098000241,792.8433098000241,0.0068026999942958355,0.09922129998449236,1.0,0.7603967000031844,,,,,,,,,,,3191,Moral,2025-03-03_13h40.10.665,MoralCondition_v2,2022.2.5,30.005403975980617,
16,0,16,0,,,,,,,,,,,,,,,,,,,,,,,,,,,,,,,,,,,,,,,,,,,,,,,,,,,,,,,,,,,,,,,,793.6433361000381,793.6433361000381,0.000492400024086237,0.0989312999881804,4.0,2.433278899989091,,,,,3191,Moral,2025-03-03_13h40.10.665,MoralCondition_v2,2022.2.5,30.005403975980617,
17,0,17,0,0,0,0,0,,,,,,,,,,,,,,,,,,,,,796.1099980999716,0.00023199990391731262,0.09841969993431121,802.1265861999709,6.015092199901119,802.2931147000054,802.2931147000054,0.07045529992319643,0.181802999926731,6.015105900005437,808.3932476999471,808.3932476999471,808.3932476999471,0.06780209997668862,0.1824860000051558,814.0932173000183,814.2931875999784,6.015080100041814,6.11521580000408,820.293310899986,12.015274100005627,820.3931514000287,820.3931514000287,820.4265237000072,820.4265237000072,0.015285499976016581,0.11500860005617142,up,0.5456146000651643,821.0264816000126,5.359994247555733e-05,0.09787209995556623,827.0435095999856,827.0435095999856,827.0435095999856,0.008963899919763207,0.11453030002303421,1.0,2.839854499907233,,,,,,,,,808.2933465000242,808.2933465000242,3191,Moral,2025-03-03_13h40.10.665,MoralCondition_v2,2022.2.5,30.005403975980617,
17,0,17,0,1,0,1,0,,,,,,,,,,,,,,,,,,,,,,,,,,,,,,,,,,,,,,,,,,,,,,,,,,,,,,829.9097287999466,829.9097287999466,0.007243799977004528,0.0980009000049904,1.0,0.8248401000164449,,,,,,,,,,,3191,Moral,2025-03-03_13h40.10.665,MoralCondition_v2,2022.2.5,30.005403975980617,
17,0,17,0,2,0,2,0,,,,,,,,,,,,,,,,,,,,,,,,,,,,,,,,,,,,,,,,,,,,,,,,,,,,,,830.7764974000165,830.7764974000165,0.0064455000683665276,0.097628099960275,1.0,1.4253531000576913,,,,,,,,,,,3191,Moral,2025-03-03_13h40.10.665,MoralCondition_v2,2022.2.5,30.005403975980617,
17,0,17,0,3,0,3,0,,,,,,,,,,,,,,,,,,,,,,,,,,,,,,,,,,,,,,,,,,,,,,,,,,,,,,832.2432902000146,832.2432902000146,0.0077402000315487385,0.09776799997780472,4.0,1.857702299952507,,,,,,,,,,,3191,Moral,2025-03-03_13h40.10.665,MoralCondition_v2,2022.2.5,30.005403975980617,
17,0,17,0,4,0,4,0,,,,,,,,,,,,,,,,,,,,,,,,,,,,,,,,,,,,,,,,,,,,,,,,,,,,,,834.1429813000141,834.1429813000141,0.006669200025498867,0.0991183000151068,1.0,1.6935885000275448,,,,,,,,,,,3191,Moral,2025-03-03_13h40.10.665,MoralCondition_v2,2022.2.5,30.005403975980617,
17,0,17,0,5,0,5,0,,,,,,,,,,,,,,,,,,,,,,,,,,,,,,,,,,,,,,,,,,,,,,,,,,,,,,835.8764295999426,835.8764295999426,0.007104600081220269,0.09815820003859699,1.0,1.625321100000292,,,,,,,,,,,3191,Moral,2025-03-03_13h40.10.665,MoralCondition_v2,2022.2.5,30.005403975980617,
17,0,17,0,6,0,6,0,,,,,,,,,,,,,,,,,,,,,,,,,,,,,,,,,,,,,,,,,,,,,,,,,,,,,,837.5432265000418,837.5432265000418,0.006878599990159273,0.09927589993458241,1.0,0.8937344000441954,,,,,,,,,,,3191,Moral,2025-03-03_13h40.10.665,MoralCondition_v2,2022.2.5,30.005403975980617,
17,0,17,0,,,,,,,,,,,,,,,,,,,,,,,,,,,,,,,,,,,,,,,,,,,,,,,,,,,,,,,,,,,,,,,,838.4764250000007,838.4764250000007,0.00048530008643865585,0.09954760002437979,4.0,1.6333139000926167,,,,,3191,Moral,2025-03-03_13h40.10.665,MoralCondition_v2,2022.2.5,30.005403975980617,
18,0,18,0,0,0,0,0,,,,,,,,,,,,,,,,,,,,,840.1430740000214,0.0002546999603509903,0.09800260001793504,846.1263724999735,6.014632500009611,846.3264564999845,846.3264564999845,0.06869029998779297,0.181369400001131,6.0148572999751195,852.4263122000266,852.4263122000266,852.4263122000266,0.06700120004825294,0.18147430010139942,858.126344999997,858.3263526000082,6.014616500004195,6.114611300057732,864.3263333999785,12.014599000103772,864.4262926999945,864.4262926999945,864.459652199992,864.459652199992,0.014763900078833103,0.11449920013546944,up,0.544687099987641,865.0429656000342,2.359994687139988e-05,0.09919959993567318,,871.0594794999342,871.0594794999342,0.02568790002260357,0.11557319993153214,1.0,3.1245133999036625,,,,,,,,,852.3263516000006,852.3263516000006,3191,Moral,2025-03-03_13h40.10.665,MoralCondition_v2,2022.2.5,30.005403975980617,
18,0,18,0,1,0,1,0,,,,,,,,,,,,,,,,,,,,,,,,,,,,,,,,,,,,,,,,,,,,,,,,,,,,,,874.2262907000259,874.2262907000259,0.006607400020584464,0.09917130006942898,1.0,1.9268466000212356,,,,,,,,,,,3191,Moral,2025-03-03_13h40.10.665,MoralCondition_v2,2022.2.5,30.005403975980617,
18,0,18,0,2,0,2,0,,,,,,,,,,,,,,,,,,,,,,,,,,,,,,,,,,,,,,,,,,,,,,,,,,,,,,876.1929246999789,876.1929246999789,0.006847199983894825,0.09914489998482168,1.0,0.8265270999399945,,,,,,,,,,,3191,Moral,2025-03-03_13h40.10.665,MoralCondition_v2,2022.2.5,30.005403975980617,
18,0,18,0,3,0,3,0,,,,,,,,,,,,,,,,,,,,,,,,,,,,,,,,,,,,,,,,,,,,,,,,,,,,,,877.0597604999784,877.0597604999784,0.0076027000322937965,0.09771889995317906,1.0,0.7912500998936594,,,,,,,,,,,3191,Moral,2025-03-03_13h40.10.665,MoralCondition_v2,2022.2.5,30.005403975980617,
18,0,18,0,4,0,4,0,,,,,,,,,,,,,,,,,,,,,,,,,,,,,,,,,,,,,,,,,,,,,,,,,,,,,,877.8929642000003,877.8929642000003,0.006611200049519539,0.09894449997227639,1.0,0.6934022000059485,,,,,,,,,,,3191,Moral,2025-03-03_13h40.10.665,MoralCondition_v2,2022.2.5,30.005403975980617,
18,0,18,0,5,0,5,0,,,,,,,,,,,,,,,,,,,,,,,,,,,,,,,,,,,,,,,,,,,,,,,,,,,,,,878.6261736999732,878.6261736999732,0.006736999959684908,0.09921619994565845,4.0,1.660122000030242,,,,,,,,,,,3191,Moral,2025-03-03_13h40.10.665,MoralCondition_v2,2022.2.5,30.005403975980617,
18,0,18,0,6,0,6,0,,,,,,,,,,,,,,,,,,,,,,,,,,,,,,,,,,,,,,,,,,,,,,,,,,,,,,880.3261258000275,880.3261258000275,0.00734440004453063,0.09813249995931983,1.0,0.9585709000239149,,,,,,,,,,,3191,Moral,2025-03-03_13h40.10.665,MoralCondition_v2,2022.2.5,30.005403975980617,
18,0,18,0,,,,,,,,,,,,,,,,,,,,,,,,,,,,,,,,,,,,,,,,,,,,,,,,,,,,,,,,,,,,,,,,881.3262870999752,881.3262870999752,0.0009738999651744962,0.09839800000190735,4.0,1.765750000020489,,,,,3191,Moral,2025-03-03_13h40.10.665,MoralCondition_v2,2022.2.5,30.005403975980617,
19,0,19,0,0,0,0,0,,,,,,,,,,,,,,,,,,,,,883.126297699986,0.0003157000755891204,0.09789930004626513,889.1262152999407,6.031240900047123,889.3262884999858,889.3262884999858,0.0858938000164926,0.19810270005837083,6.031150000053458,895.4263640999561,895.4263640999561,895.4263640999561,0.088836400071159,0.1980038001202047,901.1261751999846,901.3262219999451,6.031249200110324,6.131122900056653,907.3262024000287,12.031278200098313,907.4261605000356,907.4261605000356,907.4595230999403,907.4595230999403,0.03131260012742132,0.13106460007838905,up,0.6651144999777898,908.1596311000176,5.110003985464573e-05,0.09722730005159974,914.1760427999543,914.1760427999543,914.1760427999543,0.008905500057153404,0.1139174000127241,1.0,2.1397707000141963,,,,,,,,,895.3261404000223,895.3261404000223,3191,Moral,2025-03-03_13h40.10.665,MoralCondition_v2,2022.2.5,30.005403975980617,
19,0,19,0,1,0,1,0,,,,,,,,,,,,,,,,,,,,,,,,,,,,,,,,,,,,,,,,,,,,,,,,,,,,,,916.342667000019,916.342667000019,0.00637680001091212,0.09907220001332462,1.0,0.8271880000829697,,,,,,,,,,,3191,Moral,2025-03-03_13h40.10.665,MoralCondition_v2,2022.2.5,30.005403975980617,
19,0,19,0,2,0,2,0,,,,,,,,,,,,,,,,,,,,,,,,,,,,,,,,,,,,,,,,,,,,,,,,,,,,,,917.2094492999604,917.2094492999604,0.009188000112771988,0.09721140004694462,1.0,0.9224531999789178,,,,,,,,,,,3191,Moral,2025-03-03_13h40.10.665,MoralCondition_v2,2022.2.5,30.005403975980617,
19,0,19,0,3,0,3,0,,,,,,,,,,,,,,,,,,,,,,,,,,,,,,,,,,,,,,,,,,,,,,,,,,,,,,918.1761611000402,918.1761611000402,0.007346100057475269,0.09764560009352863,1.0,0.8912924999604002,,,,,,,,,,,3191,Moral,2025-03-03_13h40.10.665,MoralCondition_v2,2022.2.5,30.005403975980617,
19,0,19,0,4,0,4,0,,,,,,,,,,,,,,,,,,,,,,,,,,,,,,,,,,,,,,,,,,,,,,,,,,,,,,919.1094032999827,919.1094032999827,0.006717300042510033,0.0993157000048086,1.0,0.7935122000053525,,,,,,,,,,,3191,Moral,2025-03-03_13h40.10.665,MoralCondition_v2,2022.2.5,30.005403975980617,
19,0,19,0,5,0,5,0,,,,,,,,,,,,,,,,,,,,,,,,,,,,,,,,,,,,,,,,,,,,,,,,,,,,,,919.9593821000308,919.9593821000308,0.007953900028951466,0.11415049992501736,1.0,0.8406333999009803,,,,,,,,,,,3191,Moral,2025-03-03_13h40.10.665,MoralCondition_v2,2022.2.5,30.005403975980617,
19,0,19,0,6,0,6,0,,,,,,,,,,,,,,,,,,,,,,,,,,,,,,,,,,,,,,,,,,,,,,,,,,,,,,920.8430060000392,920.8430060000392,0.008291799924336374,0.11409299995284528,4.0,1.8399992000777274,,,,,,,,,,,3191,Moral,2025-03-03_13h40.10.665,MoralCondition_v2,2022.2.5,30.005403975980617,
19,0,19,0,,,,,,,,,,,,,,,,,,,,,,,,,,,,,,,,,,,,,,,,,,,,,,,,,,,,,,,,,,,,,,,,922.70930029999,922.70930029999,0.0015829999465495348,0.0975291000213474,4.0,1.830368300084956,,,,,3191,Moral,2025-03-03_13h40.10.665,MoralCondition_v2,2022.2.5,30.005403975980617,
