loop.thisRepN,loop.thisTrialN,loop.thisN,loop.thisIndex,evaluate_all_emotions.thisRepN,evaluate_all_emotions.thisTrialN,evaluate_all_emotions.thisN,evaluate_all_emotions.thisIndex,sync_beep_1.started,p_port.started,p_port.stopped,sync_beep_1.stopped,sync_beep_2.started,sync_beep_2.stopped,sync_beep_3.started,sync_beep_4.started,sync_beep_4.stopped,baseline.started,p_port_2.started,p_port_2.stopped,baseline.stopped,p_port_3.started,Game_Start_Text.started,p_port_4.started,p_port_4.stopped,key_resp.started,key_resp.keys,key_resp.rt,fixation_cross.started,p_port_5.started,p_port_5.stopped,fixation_cross.stopped,p_port_6.started,player_image_intro.started,player_name_intro.started,p_port_7.started,p_port_7.stopped,p_port_8.started,player_image_offer.started,player_name_offer.started,proposed_split.started,p_port_9.started,p_port_9.stopped,proposed_split.stopped,accept_reject.started,p_port_15.started,p_port_15.stopped,accept_reject.stopped,p_port_10.started,player_image_offer.stopped,player_name_offer.stopped,arrow_instructions.started,offer_choice.started,p_port_11.started,p_port_11.stopped,offer_choice.keys,offer_choice.rt,Instructions_Affinity_Score.started,p_port_12.started,p_port_12.stopped,Instructions_Affinity_Score.stopped,Emotion_Image.started,AffinityScore.started,p_port_13.started,p_port_13.stopped,AffinityScore.response,AffinityScore.rt,Instruction.started,Moral_Disgust_Score.started,p_port_14.started,p_port_14.stopped,Moral_Disgust_Score.response,Moral_Disgust_Score.rt,p_port_6.stopped,player_image_intro.stopped,player_name_intro.stopped,p_port_8.stopped,p_port_10.stopped,participant,session,date,expName,psychopyVersion,frameRate,
,,,,,,,,13.396695368969812,0.001042699906975031,0.11533339973539114,13.711262899916619,13.977913970174267,14.294573400169611,14.561432269914075,15.177972069988027,15.494602600112557,15.494602600112557,0.0006732996553182602,0.09895379981026053,30.494677300099283,15.032447099685669,30.611253600101918,0.015708299819380045,0.11567149963229895,31.077885299921036,space,1.3992141000926495,,,,,,,,,,,,,,,,,,,,,,,,,,,,,,,,,,,,,,,,,,,,,,,,,,,3266,Moral,2025-02-24_10h27.55.533,MoralCondition_v2,2022.2.5,30.001965126215786,
0,0,0,0,0,0,0,0,,,,,,,,,,,,,,,,,,,,,32.527858700137585,0.0015481002628803253,0.0984710999764502,38.544672099873424,6.015391600318253,38.7778846998699,38.7778846998699,0.10818509990349412,0.24868840025737882,6.015308900270611,44.827879399992526,44.827879399992526,44.827879399992526,0.07615579990670085,0.198524400126189,50.52787430025637,50.727874599862844,6.031858100090176,6.131903999950737,56.72786610014737,12.031834300141782,56.81106320023537,56.81106320023537,56.84449930023402,56.84449930023402,0.015159700065851212,0.11508779972791672,up,0.8480269000865519,57.7446779999882,5.279993638396263e-05,0.09737240010872483,63.7778178001754,63.7778178001754,63.7778178001754,0.020046500023454428,0.13053360022604465,2.0,3.161841200198978,,,,,,,,,,,,3266,Moral,2025-02-24_10h27.55.533,MoralCondition_v2,2022.2.5,30.001965126215786,
0,0,0,0,1,0,1,0,,,,,,,,,,,,,,,,,,,,,,,,,,,,,,,,,,,,,,,,,,,,,,,,,,,,,,66.977817799896,66.977817799896,0.010844800155609846,0.11453270027413964,3.0,3.071407000068575,,,,,,,,,,,,3266,Moral,2025-02-24_10h27.55.533,MoralCondition_v2,2022.2.5,30.001965126215786,
0,0,0,0,2,0,2,0,,,,,,,,,,,,,,,,,,,,,,,,,,,,,,,,,,,,,,,,,,,,,,,,,,,,,,70.09467250015587,70.09467250015587,0.011333399917930365,0.11418339982628822,4.0,1.8706545997411013,,,,,,,,,,,,3266,Moral,2025-02-24_10h27.55.533,MoralCondition_v2,2022.2.5,30.001965126215786,
0,0,0,0,3,0,3,0,,,,,,,,,,,,,,,,,,,,,,,,,,,,,,,,,,,,,,,,,,,,,,,,,,,,,,72.01141759986058,72.01141759986058,0.011030900292098522,0.11474360013380647,3.0,2.7380915000103414,,,,,,,,,,,,3266,Moral,2025-02-24_10h27.55.533,MoralCondition_v2,2022.2.5,30.001965126215786,
0,0,0,0,4,0,4,0,,,,,,,,,,,,,,,,,,,,,,,,,,,,,,,,,,,,,,,,,,,,,,,,,,,,,,74.77778419991955,74.77778419991955,0.008655800018459558,0.09933350002393126,2.0,2.3250041003338993,,,,,,,,,,,,3266,Moral,2025-02-24_10h27.55.533,MoralCondition_v2,2022.2.5,30.001965126215786,
0,0,0,0,5,0,5,0,,,,,,,,,,,,,,,,,,,,,,,,,,,,,,,,,,,,,,,,,,,,,,,,,,,,,,77.14435030007735,77.14435030007735,0.009145200252532959,0.0992666999809444,2.0,2.357522999867797,,,,,,,,,,,,3266,Moral,2025-02-24_10h27.55.533,MoralCondition_v2,2022.2.5,30.001965126215786,
0,0,0,0,6,0,6,0,,,,,,,,,,,,,,,,,,,,,,,,,,,,,,,,,,,,,,,,,,,,,,,,,,,,,,79.56114630028605,79.56114630028605,0.009985100012272596,0.11384830018505454,4.0,3.0383465997874737,,,,,,,,,,,,3266,Moral,2025-02-24_10h27.55.533,MoralCondition_v2,2022.2.5,30.001965126215786,
0,0,0,0,,,,,,,,,,,,,,,,,,,,,,,,,,,,,,,,,,,,,,,,,,,,,,,,,,,,,,,,,,,,,,,,82.62800699984655,82.62800699984655,0.0007711001671850681,0.09916220000013709,4.0,4.566115000285208,,,,,,3266,Moral,2025-02-24_10h27.55.533,MoralCondition_v2,2022.2.5,30.001965126215786,
1,0,1,0,0,0,0,0,,,,,,,,,,,,,,,,,,,,,87.22784820012748,0.00013540033251047134,0.09935380006209016,93.22780770016834,5.9991378001868725,93.44464450003579,93.44464450003579,0.10956380004063249,0.215837299823761,6.0158477001823485,99.51127090025693,99.51127090025693,99.51127090025693,0.07660129992291331,0.18265909980982542,105.21112590003759,105.4111323999241,6.015859399922192,6.116047800052911,111.41111920028925,12.015843799803406,111.5113075999543,111.5113075999543,111.54476220021024,111.54476220021024,0.016173099633306265,0.11575730005279183,up,0.7075228998437524,112.31107930000871,7.750000804662704e-05,0.0977211999706924,,118.34446430020034,118.34446430020034,0.024377800058573484,0.13115959987044334,5.0,5.074907199945301,,,,,,,6.0993159003555775,,,,,3266,Moral,2025-02-24_10h27.55.533,MoralCondition_v2,2022.2.5,30.001965126215786,
1,0,1,0,1,0,1,0,,,,,,,,,,,,,,,,,,,,,,,,,,,,,,,,,,,,,,,,,,,,,,,,,,,,,,123.46109879994765,123.46109879994765,0.006891599856317043,0.11360969999805093,4.0,2.4411510000936687,,,,,,,,,,,,3266,Moral,2025-02-24_10h27.55.533,MoralCondition_v2,2022.2.5,30.001965126215786,
1,0,1,0,2,0,2,0,,,,,,,,,,,,,,,,,,,,,,,,,,,,,,,,,,,,,,,,,,,,,,,,,,,,,,125.92759749991819,125.92759749991819,0.006526099983602762,0.09905799990519881,4.0,1.4934654999524355,,,,,,,,,,,,3266,Moral,2025-02-24_10h27.55.533,MoralCondition_v2,2022.2.5,30.001965126215786,
1,0,1,0,3,0,3,0,,,,,,,,,,,,,,,,,,,,,,,,,,,,,,,,,,,,,,,,,,,,,,,,,,,,,,127.47788899997249,127.47788899997249,0.007745200302451849,0.11402440024539828,5.0,2.140666500199586,,,,,,,,,,,,3266,Moral,2025-02-24_10h27.55.533,MoralCondition_v2,2022.2.5,30.001965126215786,
1,0,1,0,4,0,4,0,,,,,,,,,,,,,,,,,,,,,,,,,,,,,,,,,,,,,,,,,,,,,,,,,,,,,,129.64424040028825,129.64424040028825,0.006576699670404196,0.09935329994186759,4.0,1.4607132002711296,,,,,,,,,,,,3266,Moral,2025-02-24_10h27.55.533,MoralCondition_v2,2022.2.5,30.001965126215786,
1,0,1,0,5,0,5,0,,,,,,,,,,,,,,,,,,,,,,,,,,,,,,,,,,,,,,,,,,,,,,,,,,,,,,131.1441994998604,131.1441994998604,0.006389199756085873,0.0993025996722281,3.0,3.3270683996379375,,,,,,,,,,,,3266,Moral,2025-02-24_10h27.55.533,MoralCondition_v2,2022.2.5,30.001965126215786,
1,0,1,0,6,0,6,0,,,,,,,,,,,,,,,,,,,,,,,,,,,,,,,,,,,,,,,,,,,,,,,,,,,,,,134.51092679984868,134.51092679984868,0.007924499921500683,0.09780590003356338,4.0,2.157620499841869,,,,,,,,,,,,3266,Moral,2025-02-24_10h27.55.533,MoralCondition_v2,2022.2.5,30.001965126215786,
1,0,1,0,,,,,,,,,,,,,,,,,,,,,,,,,,,,,,,,,,,,,,,,,,,,,,,,,,,,,,,,,,,,,,,,136.7110812999308,136.7110812999308,0.0012945998460054398,0.09830729989334941,4.0,6.931191100273281,,,,,,3266,Moral,2025-02-24_10h27.55.533,MoralCondition_v2,2022.2.5,30.001965126215786,
2,0,2,0,0,0,0,0,,,,,,,,,,,,,,,,,,,,,143.67801589984447,0.00014040013775229454,0.09929150016978383,149.67769929999486,5.9992288001812994,149.87788140028715,149.87788140028715,0.08865289995446801,0.19947380013763905,5.999275400303304,155.94429380027577,155.94429380027577,155.94429380027577,0.055381199810653925,0.16614519990980625,161.64446099987254,161.84427230013534,5.999114700127393,6.099148899782449,167.84433950018138,11.999236499890685,167.94435920007527,167.94435920007527,167.97778460010886,167.97778460010886,0.00015199976041913033,0.09918379969894886,up,0.6593096000142395,168.67772210016847,4.229974001646042e-05,0.09788239980116487,174.67815000005066,174.67815000005066,174.67815000005066,0.008541400078684092,0.09777959994971752,4.0,2.8569753002375364,,,,,,,6.099259700160474,155.94429380027577,155.94429380027577,6.099219600204378,12.099259700160474,3266,Moral,2025-02-24_10h27.55.533,MoralCondition_v2,2022.2.5,30.001965126215786,
2,0,2,0,1,0,1,0,,,,,,,,,,,,,,,,,,,,,,,,,,,,,,,,,,,,,,,,,,,,,,,,,,,,,,177.57773749995977,177.57773749995977,0.006830899976193905,0.09922369988635182,4.0,1.3599144998006523,,,,,,,,,,,,3266,Moral,2025-02-24_10h27.55.533,MoralCondition_v2,2022.2.5,30.001965126215786,
2,0,2,0,2,0,2,0,,,,,,,,,,,,,,,,,,,,,,,,,,,,,,,,,,,,,,,,,,,,,,,,,,,,,,178.977673899848,178.977673899848,0.006704600062221289,0.09910380002111197,4.0,2.2934714001603425,,,,,,,,,,,,3266,Moral,2025-02-24_10h27.55.533,MoralCondition_v2,2022.2.5,30.001965126215786,
2,0,2,0,3,0,3,0,,,,,,,,,,,,,,,,,,,,,,,,,,,,,,,,,,,,,,,,,,,,,,,,,,,,,,181.31119479984045,181.31119479984045,0.008012200240045786,0.09807000029832125,2.0,5.257613299880177,,,,,,,,,,,,3266,Moral,2025-02-24_10h27.55.533,MoralCondition_v2,2022.2.5,30.001965126215786,
2,0,2,0,4,0,4,0,,,,,,,,,,,,,,,,,,,,,,,,,,,,,,,,,,,,,,,,,,,,,,,,,,,,,,186.62771779997274,186.62771779997274,0.008713600225746632,0.11377499997615814,5.0,3.3392955996096134,,,,,,,,,,,,3266,Moral,2025-02-24_10h27.55.533,MoralCondition_v2,2022.2.5,30.001965126215786,
2,0,2,0,5,0,5,0,,,,,,,,,,,,,,,,,,,,,,,,,,,,,,,,,,,,,,,,,,,,,,,,,,,,,,190.0111704999581,190.0111704999581,0.007607900071889162,0.1141780000180006,2.0,1.307566899806261,,,,,,,,,,,,3266,Moral,2025-02-24_10h27.55.533,MoralCondition_v2,2022.2.5,30.001965126215786,
2,0,2,0,6,0,6,0,,,,,,,,,,,,,,,,,,,,,,,,,,,,,,,,,,,,,,,,,,,,,,,,,,,,,,191.36125570023432,191.36125570023432,0.008726699743419886,0.11417469987645745,4.0,1.7736754002980888,,,,,,,,,,,,3266,Moral,2025-02-24_10h27.55.533,MoralCondition_v2,2022.2.5,30.001965126215786,
2,0,2,0,,,,,,,,,,,,,,,,,,,,,,,,,,,,,,,,,,,,,,,,,,,,,,,,,,,,,,,,,,,,,,,,193.16109499987215,193.16109499987215,0.0012459000572562218,0.09800729993730783,4.0,3.5645620999857783,,,,,,3266,Moral,2025-02-24_10h27.55.533,MoralCondition_v2,2022.2.5,30.001965126215786,
3,0,3,0,0,0,0,0,,,,,,,,,,,,,,,,,,,,,196.76099630026147,0.0003863000310957432,0.0977250998839736,202.76106770010665,6.031179400160909,202.9775455999188,202.9775455999188,0.10479789972305298,0.2144051999785006,6.014354899991304,209.04419369995594,209.04419369995594,209.04419369995594,0.07981160003691912,0.18122119968757033,214.74428800027817,214.9444991000928,6.014604699797928,6.114643299952149,220.94430570024997,12.014406200032681,221.04432850005105,221.04432850005105,221.07785560004413,221.07785560004413,0.014554599765688181,0.11430719960480928,up,1.8146705999970436,222.92765709990636,5.25997020304203e-05,0.09777570003643632,,228.94413160020486,228.94413160020486,0.026312499772757292,0.11423979979008436,4.0,4.022503000218421,,,,,,,,,,,,3266,Moral,2025-02-24_10h27.55.533,MoralCondition_v2,2022.2.5,30.001965126215786,
3,0,3,0,1,0,1,0,,,,,,,,,,,,,,,,,,,,,,,,,,,,,,,,,,,,,,,,,,,,,,,,,,,,,,233.02778870007023,233.02778870007023,0.009319799952208996,0.11395480018109083,2.0,3.3391820997931063,,,,,,,,,,,,3266,Moral,2025-02-24_10h27.55.533,MoralCondition_v2,2022.2.5,30.001965126215786,
3,0,3,0,2,0,2,0,,,,,,,,,,,,,,,,,,,,,,,,,,,,,,,,,,,,,,,,,,,,,,,,,,,,,,236.394156599883,236.394156599883,0.006865799892693758,0.09832630027085543,2.0,1.6591837997548282,,,,,,,,,,,,3266,Moral,2025-02-24_10h27.55.533,MoralCondition_v2,2022.2.5,30.001965126215786,
3,0,3,0,3,0,3,0,,,,,,,,,,,,,,,,,,,,,,,,,,,,,,,,,,,,,,,,,,,,,,,,,,,,,,238.0940717998892,238.0940717998892,0.009521900210529566,0.09709750022739172,3.0,1.1552319996990263,,,,,,,,,,,,3266,Moral,2025-02-24_10h27.55.533,MoralCondition_v2,2022.2.5,30.001965126215786,
3,0,3,0,4,0,4,0,,,,,,,,,,,,,,,,,,,,,,,,,,,,,,,,,,,,,,,,,,,,,,,,,,,,,,239.29426839994267,239.29426839994267,0.0069806999526917934,0.09911199985072017,5.0,1.7605200000107288,,,,,,,,,,,,3266,Moral,2025-02-24_10h27.55.533,MoralCondition_v2,2022.2.5,30.001965126215786,
3,0,3,0,5,0,5,0,,,,,,,,,,,,,,,,,,,,,,,,,,,,,,,,,,,,,,,,,,,,,,,,,,,,,,241.09410410001874,241.09410410001874,0.006867799907922745,0.09917999990284443,4.0,2.1267601000145078,,,,,,,,,,,,3266,Moral,2025-02-24_10h27.55.533,MoralCondition_v2,2022.2.5,30.001965126215786,
3,0,3,0,6,0,6,0,,,,,,,,,,,,,,,,,,,,,,,,,,,,,,,,,,,,,,,,,,,,,,,,,,,,,,243.27787479991093,243.27787479991093,0.008801399730145931,0.11456790007650852,3.0,2.1067842999473214,,,,,,,,,,,,3266,Moral,2025-02-24_10h27.55.533,MoralCondition_v2,2022.2.5,30.001965126215786,
3,0,3,0,,,,,,,,,,,,,,,,,,,,,,,,,,,,,,,,,,,,,,,,,,,,,,,,,,,,,,,,,,,,,,,,245.4110670001246,245.4110670001246,0.000722699798643589,0.09921659994870424,4.0,3.0997448000125587,,,,,,3266,Moral,2025-02-24_10h27.55.533,MoralCondition_v2,2022.2.5,30.001965126215786,
4,0,4,0,0,0,0,0,,,,,,,,,,,,,,,,,,,,,248.54438780015334,0.0002598999999463558,0.09770030016079545,254.52737550018355,6.014194299932569,254.7107617999427,254.7107617999427,0.052512799855321646,0.16444140020757914,6.031018000096083,260.84421369992197,260.84421369992197,260.84421369992197,0.08896399987861514,0.1977284997701645,266.54447680013254,266.74420240009204,6.031080699991435,6.131020999979228,272.74420080007985,12.031115899793804,272.8442357000895,272.8442357000895,272.87755249999464,272.87755249999464,0.03126569977030158,0.13104149978607893,up,0.7032094998285174,273.6441735001281,7.150042802095413e-05,0.0975207001902163,,279.6611390002072,279.6611390002072,0.024955100379884243,0.1140142004005611,4.0,4.456797800026834,,,,,,,6.09745809994638,260.71085199993104,260.71085199993104,,,3266,Moral,2025-02-24_10h27.55.533,MoralCondition_v2,2022.2.5,30.001965126215786,
4,0,4,0,1,0,1,0,,,,,,,,,,,,,,,,,,,,,,,,,,,,,,,,,,,,,,,,,,,,,,,,,,,,,,284.1608008998446,284.1608008998446,0.007332599721848965,0.09799139993265271,4.0,1.8583510001190007,,,,,,,,,,,,3266,Moral,2025-02-24_10h27.55.533,MoralCondition_v2,2022.2.5,30.001965126215786,
4,0,4,0,2,0,2,0,,,,,,,,,,,,,,,,,,,,,,,,,,,,,,,,,,,,,,,,,,,,,,,,,,,,,,286.0780434999615,286.0780434999615,0.00785099994391203,0.11429629987105727,2.0,3.040749099571258,,,,,,,,,,,,3266,Moral,2025-02-24_10h27.55.533,MoralCondition_v2,2022.2.5,30.001965126215786,
4,0,4,0,3,0,3,0,,,,,,,,,,,,,,,,,,,,,,,,,,,,,,,,,,,,,,,,,,,,,,,,,,,,,,289.14426420023665,289.14426420023665,0.007622700184583664,0.09859650023281574,2.0,1.1922635002993047,,,,,,,,,,,,3266,Moral,2025-02-24_10h27.55.533,MoralCondition_v2,2022.2.5,30.001965126215786,
4,0,4,0,4,0,4,0,,,,,,,,,,,,,,,,,,,,,,,,,,,,,,,,,,,,,,,,,,,,,,,,,,,,,,290.3775689001195,290.3775689001195,0.006519100163131952,0.09892909973859787,2.0,1.493614099919796,,,,,,,,,,,,3266,Moral,2025-02-24_10h27.55.533,MoralCondition_v2,2022.2.5,30.001965126215786,
4,0,4,0,5,0,5,0,,,,,,,,,,,,,,,,,,,,,,,,,,,,,,,,,,,,,,,,,,,,,,,,,,,,,,291.9109455002472,291.9109455002472,0.007164299953728914,0.0976997995749116,2.0,2.425113799981773,,,,,,,,,,,,3266,Moral,2025-02-24_10h27.55.533,MoralCondition_v2,2022.2.5,30.001965126215786,
4,0,4,0,6,0,6,0,,,,,,,,,,,,,,,,,,,,,,,,,,,,,,,,,,,,,,,,,,,,,,,,,,,,,,294.3941529998556,294.3941529998556,0.008794199675321579,0.11419299989938736,5.0,1.2728623999282718,,,,,,,,,,,,3266,Moral,2025-02-24_10h27.55.533,MoralCondition_v2,2022.2.5,30.001965126215786,
4,0,4,0,,,,,,,,,,,,,,,,,,,,,,,,,,,,,,,,,,,,,,,,,,,,,,,,,,,,,,,,,,,,,,,,295.6941039999947,295.6941039999947,0.0006777998059988022,0.09915819996967912,4.0,2.099379800260067,,,,,,3266,Moral,2025-02-24_10h27.55.533,MoralCondition_v2,2022.2.5,30.001965126215786,
5,0,5,0,0,0,0,0,,,,,,,,,,,,,,,,,,,,,297.8275732002221,0.00018989993259310722,0.09921659994870424,303.8440841999836,6.015887800138444,304.0109844999388,304.0109844999388,0.07171209994703531,0.18277959991246462,6.015949000138789,310.1108571998775,310.1108571998775,310.1108571998775,0.06894390005618334,0.18257749965414405,315.81082320027053,316.0108206998557,6.0159478997811675,6.1158290999010205,322.01074289996177,12.015869699884206,322.1107445000671,322.1107445000671,322.14411889994517,322.14411889994517,0.01601689960807562,0.1325449999421835,up,0.6686837999150157,322.86084470013157,4.4899992644786835e-05,0.09764249995350838,,328.89473940012977,328.89473940012977,0.025436399970203638,0.13081989996135235,3.0,1.3398071001283824,,,,,,,,310.0107618998736,310.0107618998736,,,3266,Moral,2025-02-24_10h27.55.533,MoralCondition_v2,2022.2.5,30.001965126215786,
5,0,5,0,1,0,1,0,,,,,,,,,,,,,,,,,,,,,,,,,,,,,,,,,,,,,,,,,,,,,,,,,,,,,,330.26062159985304,330.26062159985304,0.007902500219643116,0.09863990033045411,2.0,1.958656500093639,,,,,,,,,,,,3266,Moral,2025-02-24_10h27.55.533,MoralCondition_v2,2022.2.5,30.001965126215786,
5,0,5,0,2,0,2,0,,,,,,,,,,,,,,,,,,,,,,,,,,,,,,,,,,,,,,,,,,,,,,,,,,,,,,332.26056279987097,332.26056279987097,0.0065484000369906425,0.09913069987669587,2.0,2.460554300341755,,,,,,,,,,,,3266,Moral,2025-02-24_10h27.55.533,MoralCondition_v2,2022.2.5,30.001965126215786,
5,0,5,0,3,0,3,0,,,,,,,,,,,,,,,,,,,,,,,,,,,,,,,,,,,,,,,,,,,,,,,,,,,,,,334.760664800182,334.760664800182,0.007239900063723326,0.097913000266999,5.0,1.3584532998502254,,,,,,,,,,,,3266,Moral,2025-02-24_10h27.55.533,MoralCondition_v2,2022.2.5,30.001965126215786,
5,0,5,0,4,0,4,0,,,,,,,,,,,,,,,,,,,,,,,,,,,,,,,,,,,,,,,,,,,,,,,,,,,,,,336.1607007998973,336.1607007998973,0.006391699891537428,0.09909070003777742,3.0,1.5602287999354303,,,,,,,,,,,,3266,Moral,2025-02-24_10h27.55.533,MoralCondition_v2,2022.2.5,30.001965126215786,
5,0,5,0,5,0,5,0,,,,,,,,,,,,,,,,,,,,,,,,,,,,,,,,,,,,,,,,,,,,,,,,,,,,,,337.7773470999673,337.7773470999673,0.008622599765658379,0.11424289969727397,3.0,1.3733286000788212,,,,,,,,,,,,3266,Moral,2025-02-24_10h27.55.533,MoralCondition_v2,2022.2.5,30.001965126215786,
5,0,5,0,6,0,6,0,,,,,,,,,,,,,,,,,,,,,,,,,,,,,,,,,,,,,,,,,,,,,,,,,,,,,,339.1940311002545,339.1940311002545,0.008158300071954727,0.11436269991099834,3.0,1.1074665002524853,,,,,,,,,,,,3266,Moral,2025-02-24_10h27.55.533,MoralCondition_v2,2022.2.5,30.001965126215786,
5,0,5,0,,,,,,,,,,,,,,,,,,,,,,,,,,,,,,,,,,,,,,,,,,,,,,,,,,,,,,,,,,,,,,,,340.32744569983333,340.32744569983333,0.0011891000904142857,0.09810979990288615,4.0,0.9314978001639247,,,,,,3266,Moral,2025-02-24_10h27.55.533,MoralCondition_v2,2022.2.5,30.001965126215786,
6,0,6,0,0,0,0,0,,,,,,,,,,,,,,,,,,,,,341.2940404000692,0.0001504998654127121,0.09925480000674725,347.29400220001116,5.9990639998577535,347.47726360009983,347.47726360009983,0.07300679991021752,0.1824360997416079,6.01576909981668,353.57750910008326,353.57750910008326,353.57750910008326,0.07719949958845973,0.1826111995615065,359.2773283999413,359.4773396998644,6.015788699500263,6.115942199714482,365.47732880013064,12.015780399553478,365.57727649994195,365.57727649994195,365.6106324000284,365.6106324000284,0.015892199706286192,0.11573419952765107,up,2.114092499949038,367.7606135001406,4.009995609521866e-05,0.09792590001598,,373.77723250025883,373.77723250025883,0.024819000158458948,0.11436120001599193,3.0,2.790665099862963,,,,,,,,353.477480399888,353.477480399888,,,3266,Moral,2025-02-24_10h27.55.533,MoralCondition_v2,2022.2.5,30.001965126215786,
6,0,6,0,1,0,1,0,,,,,,,,,,,,,,,,,,,,,,,,,,,,,,,,,,,,,,,,,,,,,,,,,,,,,,376.6273074001074,376.6273074001074,0.009437100030481815,0.11528859985992312,5.0,1.5401484002359211,,,,,,,,,,,,3266,Moral,2025-02-24_10h27.55.533,MoralCondition_v2,2022.2.5,30.001965126215786,
6,0,6,0,2,0,2,0,,,,,,,,,,,,,,,,,,,,,,,,,,,,,,,,,,,,,,,,,,,,,,,,,,,,,,378.1938896998763,378.1938896998763,0.007589499931782484,0.09778640000149608,2.0,4.157934899907559,,,,,,,,,,,,3266,Moral,2025-02-24_10h27.55.533,MoralCondition_v2,2022.2.5,30.001965126215786,
6,0,6,0,3,0,3,0,,,,,,,,,,,,,,,,,,,,,,,,,,,,,,,,,,,,,,,,,,,,,,,,,,,,,,382.39409240009263,382.39409240009263,0.008749499917030334,0.0979348998516798,2.0,0.9568270999006927,,,,,,,,,,,,3266,Moral,2025-02-24_10h27.55.533,MoralCondition_v2,2022.2.5,30.001965126215786,
6,0,6,0,4,0,4,0,,,,,,,,,,,,,,,,,,,,,,,,,,,,,,,,,,,,,,,,,,,,,,,,,,,,,,383.39387369994074,383.39387369994074,0.008329600095748901,0.09784410009160638,2.0,1.4238467998802662,,,,,,,,,,,,3266,Moral,2025-02-24_10h27.55.533,MoralCondition_v2,2022.2.5,30.001965126215786,
6,0,6,0,5,0,5,0,,,,,,,,,,,,,,,,,,,,,,,,,,,,,,,,,,,,,,,,,,,,,,,,,,,,,,384.860774199944,384.860774199944,0.006965999957174063,0.09841490024700761,2.0,0.9590684999711812,,,,,,,,,,,,3266,Moral,2025-02-24_10h27.55.533,MoralCondition_v2,2022.2.5,30.001965126215786,
6,0,6,0,6,0,6,0,,,,,,,,,,,,,,,,,,,,,,,,,,,,,,,,,,,,,,,,,,,,,,,,,,,,,,385.8774978001602,385.8774978001602,0.008049699943512678,0.11461979988962412,2.0,1.040798899717629,,,,,,,,,,,,3266,Moral,2025-02-24_10h27.55.533,MoralCondition_v2,2022.2.5,30.001965126215786,
6,0,6,0,,,,,,,,,,,,,,,,,,,,,,,,,,,,,,,,,,,,,,,,,,,,,,,,,,,,,,,,,,,,,,,,386.9440158000216,386.9440158000216,0.0007587000727653503,0.09926269995048642,4.0,1.5997617999091744,,,,,,3266,Moral,2025-02-24_10h27.55.533,MoralCondition_v2,2022.2.5,30.001965126215786,
7,0,7,0,0,0,0,0,,,,,,,,,,,,,,,,,,,,,388.5774503001012,0.00013579986989498138,0.09935329994186759,394.5938893998973,6.015756200067699,394.7604809999466,394.7604809999466,0.06891340017318726,0.18241820018738508,6.015752899926156,400.86061879992485,400.86061879992485,400.86061879992485,0.07189839985221624,0.18251049984246492,406.56044130027294,406.7604069998488,6.015542400069535,6.115671900101006,412.760615600273,12.015877699945122,412.86054380005226,412.86054380005226,412.89385350001976,412.89385350001976,0.015976199880242348,0.1158615997992456,up,0.911115899682045,413.86051859986037,3.800028935074806e-05,0.09822570020332932,,419.89415680011734,419.89415680011734,0.026206900365650654,0.13149570021778345,2.0,2.339622000232339,,,,,,,,400.76054070005193,400.76054070005193,,,3266,Moral,2025-02-24_10h27.55.533,MoralCondition_v2,2022.2.5,30.001965126215786,
7,0,7,0,1,0,1,0,,,,,,,,,,,,,,,,,,,,,,,,,,,,,,,,,,,,,,,,,,,,,,,,,,,,,,422.2604495002888,422.2604495002888,0.006619799882173538,0.09929989976808429,5.0,2.627250900026411,,,,,,,,,,,,3266,Moral,2025-02-24_10h27.55.533,MoralCondition_v2,2022.2.5,30.001965126215786,
7,0,7,0,2,0,2,0,,,,,,,,,,,,,,,,,,,,,,,,,,,,,,,,,,,,,,,,,,,,,,,,,,,,,,424.9270947999321,424.9270947999321,0.006509499624371529,0.09898189967498183,2.0,1.726857100147754,,,,,,,,,,,,3266,Moral,2025-02-24_10h27.55.533,MoralCondition_v2,2022.2.5,30.001965126215786,
7,0,7,0,3,0,3,0,,,,,,,,,,,,,,,,,,,,,,,,,,,,,,,,,,,,,,,,,,,,,,,,,,,,,,426.71048020012677,426.71048020012677,0.008562499657273293,0.1143698999658227,5.0,2.040312699973583,,,,,,,,,,,,3266,Moral,2025-02-24_10h27.55.533,MoralCondition_v2,2022.2.5,30.001965126215786,
7,0,7,0,4,0,4,0,,,,,,,,,,,,,,,,,,,,,,,,,,,,,,,,,,,,,,,,,,,,,,,,,,,,,,428.7772794002667,428.7772794002667,0.006269000004976988,0.09923870023339987,2.0,3.094159099739045,,,,,,,,,,,,3266,Moral,2025-02-24_10h27.55.533,MoralCondition_v2,2022.2.5,30.001965126215786,
7,0,7,0,5,0,5,0,,,,,,,,,,,,,,,,,,,,,,,,,,,,,,,,,,,,,,,,,,,,,,,,,,,,,,431.9103677002713,431.9103677002713,0.007174000144004822,0.09806900005787611,5.0,1.192007000092417,,,,,,,,,,,,3266,Moral,2025-02-24_10h27.55.533,MoralCondition_v2,2022.2.5,30.001965126215786,
7,0,7,0,6,0,6,0,,,,,,,,,,,,,,,,,,,,,,,,,,,,,,,,,,,,,,,,,,,,,,,,,,,,,,433.1435789000243,433.1435789000243,0.007760500069707632,0.0974981002509594,4.0,1.2577111003920436,,,,,,,,,,,,3266,Moral,2025-02-24_10h27.55.533,MoralCondition_v2,2022.2.5,30.001965126215786,
7,0,7,0,,,,,,,,,,,,,,,,,,,,,,,,,,,,,,,,,,,,,,,,,,,,,,,,,,,,,,,,,,,,,,,,434.4436273998581,434.4436273998581,0.0017087999731302261,0.09744760021567345,4.0,0.8635668996721506,,,,,,3266,Moral,2025-02-24_10h27.55.533,MoralCondition_v2,2022.2.5,30.001965126215786,
8,0,8,0,0,0,0,0,,,,,,,,,,,,,,,,,,,,,435.3437586002983,0.00027250032871961594,0.09909010026603937,441.34377010026947,5.999306400306523,441.51044639991596,441.51044639991596,0.06028870027512312,0.16590150026604533,5.999093800317496,447.610432300251,447.610432300251,447.610432300251,0.057619300205260515,0.16595289995893836,453.3105521998368,453.54376110015437,5.99906580010429,6.099025399889797,459.5437185000628,11.999142299871892,459.5935912001878,459.5935912001878,459.6268736999482,459.6268736999482,-0.0006154999136924744,0.09906250005587935,up,0.6574249998666346,460.3436448001303,4.220008850097656e-05,0.09761309996247292,466.3442194000818,466.3442194000818,466.3442194000818,0.005735000129789114,0.09766319999471307,5.0,4.692835700232536,,,,,,,6.0992232002317905,447.51044060010463,447.51044060010463,6.099170400295407,12.09897160017863,3266,Moral,2025-02-24_10h27.55.533,MoralCondition_v2,2022.2.5,30.001965126215786,
8,0,8,0,1,0,1,0,,,,,,,,,,,,,,,,,,,,,,,,,,,,,,,,,,,,,,,,,,,,,,,,,,,,,,471.07699680002406,471.07699680002406,0.006937699858099222,0.09933370025828481,3.0,2.1267403000965714,,,,,,,,,,,,3266,Moral,2025-02-24_10h27.55.533,MoralCondition_v2,2022.2.5,30.001965126215786,
8,0,8,0,2,0,2,0,,,,,,,,,,,,,,,,,,,,,,,,,,,,,,,,,,,,,,,,,,,,,,,,,,,,,,473.2605377002619,473.2605377002619,0.008241499774158001,0.11455309996381402,5.0,1.4740436002612114,,,,,,,,,,,,3266,Moral,2025-02-24_10h27.55.533,MoralCondition_v2,2022.2.5,30.001965126215786,
8,0,8,0,3,0,3,0,,,,,,,,,,,,,,,,,,,,,,,,,,,,,,,,,,,,,,,,,,,,,,,,,,,,,,474.7602842999622,474.7602842999622,0.006515100132673979,0.0992463999427855,3.0,1.6607348998077214,,,,,,,,,,,,3266,Moral,2025-02-24_10h27.55.533,MoralCondition_v2,2022.2.5,30.001965126215786,
8,0,8,0,4,0,4,0,,,,,,,,,,,,,,,,,,,,,,,,,,,,,,,,,,,,,,,,,,,,,,,,,,,,,,476.46022249991074,476.46022249991074,0.006592299789190292,0.09859649976715446,3.0,1.1262624999508262,,,,,,,,,,,,3266,Moral,2025-02-24_10h27.55.533,MoralCondition_v2,2022.2.5,30.001965126215786,
8,0,8,0,5,0,5,0,,,,,,,,,,,,,,,,,,,,,,,,,,,,,,,,,,,,,,,,,,,,,,,,,,,,,,477.62696720007807,477.62696720007807,0.0075870999135077,0.0979633997194469,3.0,1.0911527997814119,,,,,,,,,,,,3266,Moral,2025-02-24_10h27.55.533,MoralCondition_v2,2022.2.5,30.001965126215786,
8,0,8,0,6,0,6,0,,,,,,,,,,,,,,,,,,,,,,,,,,,,,,,,,,,,,,,,,,,,,,,,,,,,,,478.76064520003274,478.76064520003274,0.008352499920874834,0.09769030008465052,3.0,1.0566734001040459,,,,,,,,,,,,3266,Moral,2025-02-24_10h27.55.533,MoralCondition_v2,2022.2.5,30.001965126215786,
8,0,8,0,,,,,,,,,,,,,,,,,,,,,,,,,,,,,,,,,,,,,,,,,,,,,,,,,,,,,,,,,,,,,,,,479.8604232999496,479.8604232999496,0.0006999997422099113,0.09899439988657832,4.0,1.0327034001238644,,,,,,3266,Moral,2025-02-24_10h27.55.533,MoralCondition_v2,2022.2.5,30.001965126215786,
9,0,9,0,0,0,0,0,,,,,,,,,,,,,,,,,,,,,480.9272918999195,0.0002933996729552746,0.09789859969168901,486.9436013000086,6.014467399567366,487.1269951001741,487.1269951001741,0.09355839947238564,0.19811979960650206,6.031011999584734,493.2270088000223,493.2270088000223,493.2270088000223,0.09041429962962866,0.1977436994202435,498.9269560999237,499.1268989001401,6.0310275997035205,6.131013299804181,505.1268861000426,12.03114299941808,505.2268774998374,505.2268774998374,505.26026869984344,505.26026869984344,0.03114939946681261,0.130986999720335,up,0.6718228003010154,505.9935571998358,4.37004491686821e-05,0.09796370007097721,,512.0107173002325,512.0107173002325,0.024940000381320715,0.11462470004335046,3.0,3.457147799897939,,,,,,,,493.1270945002325,493.1270945002325,,,3266,Moral,2025-02-24_10h27.55.533,MoralCondition_v2,2022.2.5,30.001965126215786,
9,0,9,0,1,0,1,0,,,,,,,,,,,,,,,,,,,,,,,,,,,,,,,,,,,,,,,,,,,,,,,,,,,,,,515.5100810001604,515.5100810001604,0.007361200172454119,0.0993770002387464,4.0,1.892682199832052,,,,,,,,,,,,3266,Moral,2025-02-24_10h27.55.533,MoralCondition_v2,2022.2.5,30.001965126215786,
9,0,9,0,2,0,2,0,,,,,,,,,,,,,,,,,,,,,,,,,,,,,,,,,,,,,,,,,,,,,,,,,,,,,,517.4433821002021,517.4433821002021,0.006233599968254566,0.09876269986853004,3.0,1.7934687999077141,,,,,,,,,,,,3266,Moral,2025-02-24_10h27.55.533,MoralCondition_v2,2022.2.5,30.001965126215786,
9,0,9,0,3,0,3,0,,,,,,,,,,,,,,,,,,,,,,,,,,,,,,,,,,,,,,,,,,,,,,,,,,,,,,519.2769352002069,519.2769352002069,0.0063808998093008995,0.09912570007145405,3.0,2.9604304996319115,,,,,,,,,,,,3266,Moral,2025-02-24_10h27.55.533,MoralCondition_v2,2022.2.5,30.001965126215786,
9,0,9,0,4,0,4,0,,,,,,,,,,,,,,,,,,,,,,,,,,,,,,,,,,,,,,,,,,,,,,,,,,,,,,522.2767447000369,522.2767447000369,0.006681699771434069,0.09909659996628761,3.0,1.2268097000196576,,,,,,,,,,,,3266,Moral,2025-02-24_10h27.55.533,MoralCondition_v2,2022.2.5,30.001965126215786,
9,0,9,0,5,0,5,0,,,,,,,,,,,,,,,,,,,,,,,,,,,,,,,,,,,,,,,,,,,,,,,,,,,,,,523.5436193998903,523.5436193998903,0.006455699913203716,0.09935549972578883,3.0,1.1936749001033604,,,,,,,,,,,,3266,Moral,2025-02-24_10h27.55.533,MoralCondition_v2,2022.2.5,30.001965126215786,
9,0,9,0,6,0,6,0,,,,,,,,,,,,,,,,,,,,,,,,,,,,,,,,,,,,,,,,,,,,,,,,,,,,,,524.7766901999712,524.7766901999712,0.006658900063484907,0.09831249993294477,5.0,1.4592821998521686,,,,,,,,,,,,3266,Moral,2025-02-24_10h27.55.533,MoralCondition_v2,2022.2.5,30.001965126215786,
9,0,9,0,,,,,,,,,,,,,,,,,,,,,,,,,,,,,,,,,,,,,,,,,,,,,,,,,,,,,,,,,,,,,,,,526.2768186000176,526.2768186000176,0.0017983000725507736,0.09727239981293678,4.0,1.0632952000014484,,,,,,3266,Moral,2025-02-24_10h27.55.533,MoralCondition_v2,2022.2.5,30.001965126215786,
10,0,10,0,0,0,0,0,,,,,,,,,,,,,,,,,,,,,527.3769740001298,0.0001360001042485237,0.09889840008690953,533.3768144999631,6.032301799859852,533.6265894998796,533.6265894998796,0.1398192998021841,0.2487594997510314,6.0155659997835755,539.6599524002522,539.6599524002522,539.6599524002522,0.06830829987302423,0.18222849955782294,545.3600476998836,545.5601276000962,6.015625899657607,6.115506399888545,551.5600828998722,12.015597999561578,551.6600572001189,551.6600572001189,551.6934051001444,551.6934051001444,0.01571179972961545,0.11570479953661561,up,0.9271450997330248,552.6768443002366,4.5800115913152695e-05,0.09804859990254045,,558.7101862002164,558.7101862002164,0.02586330007761717,0.13135110028088093,3.0,1.7730747000314295,,,,,,,,,,,,3266,Moral,2025-02-24_10h27.55.533,MoralCondition_v2,2022.2.5,30.001965126215786,
10,0,10,0,1,0,1,0,,,,,,,,,,,,,,,,,,,,,,,,,,,,,,,,,,,,,,,,,,,,,,,,,,,,,,560.5100171999075,560.5100171999075,0.007540900260210037,0.09772980026900768,3.0,1.4580899002030492,,,,,,,,,,,,3266,Moral,2025-02-24_10h27.55.533,MoralCondition_v2,2022.2.5,30.001965126215786,
10,0,10,0,2,0,2,0,,,,,,,,,,,,,,,,,,,,,,,,,,,,,,,,,,,,,,,,,,,,,,,,,,,,,,562.0269436002709,562.0269436002709,0.009709099773317575,0.1144790998660028,3.0,1.1054898002184927,,,,,,,,,,,,3266,Moral,2025-02-24_10h27.55.533,MoralCondition_v2,2022.2.5,30.001965126215786,
10,0,10,0,3,0,3,0,,,,,,,,,,,,,,,,,,,,,,,,,,,,,,,,,,,,,,,,,,,,,,,,,,,,,,563.1600405001082,563.1600405001082,0.008401299826800823,0.09802119992673397,3.0,0.8906366997398436,,,,,,,,,,,,3266,Moral,2025-02-24_10h27.55.533,MoralCondition_v2,2022.2.5,30.001965126215786,
10,0,10,0,4,0,4,0,,,,,,,,,,,,,,,,,,,,,,,,,,,,,,,,,,,,,,,,,,,,,,,,,,,,,,564.0933361998759,564.0933361998759,0.007521900348365307,0.09756560018286109,5.0,1.4577060001902282,,,,,,,,,,,,3266,Moral,2025-02-24_10h27.55.533,MoralCondition_v2,2022.2.5,30.001965126215786,
10,0,10,0,5,0,5,0,,,,,,,,,,,,,,,,,,,,,,,,,,,,,,,,,,,,,,,,,,,,,,,,,,,,,,565.6101591000333,565.6101591000333,0.007893300149589777,0.11412980034947395,4.0,1.4406742001883686,,,,,,,,,,,,3266,Moral,2025-02-24_10h27.55.533,MoralCondition_v2,2022.2.5,30.001965126215786,
10,0,10,0,6,0,6,0,,,,,,,,,,,,,,,,,,,,,,,,,,,,,,,,,,,,,,,,,,,,,,,,,,,,,,567.0766559001058,567.0766559001058,0.008454399649053812,0.09896169975399971,3.0,0.9917234000749886,,,,,,,,,,,,3266,Moral,2025-02-24_10h27.55.533,MoralCondition_v2,2022.2.5,30.001965126215786,
10,0,10,0,,,,,,,,,,,,,,,,,,,,,,,,,,,,,,,,,,,,,,,,,,,,,,,,,,,,,,,,,,,,,,,,568.1101214000955,568.1101214000955,0.0013446998782455921,0.09798109997063875,4.0,1.564665799960494,,,,,,3266,Moral,2025-02-24_10h27.55.533,MoralCondition_v2,2022.2.5,30.001965126215786,
11,0,11,0,0,0,0,0,,,,,,,,,,,,,,,,,,,,,569.7099899998866,0.0004226001910865307,0.09733489993959665,575.726685100235,6.013938299845904,575.8934392998926,575.8934392998926,0.07853090018033981,0.1807170999236405,6.01401469996199,581.9932094002143,581.9932094002143,581.9932094002143,0.06883679982274771,0.18080059997737408,587.6933868001215,587.893334900029,6.014097899664193,6.1140009998343885,593.8933002999984,12.014039899688214,593.9934041001834,593.9934041001834,594.0266042998992,594.0266042998992,0.01429059961810708,0.11393509991466999,up,0.6415626998059452,594.6930468999781,1.3300217688083649e-05,0.08299320004880428,600.709959700238,600.709959700238,600.709959700238,0.010875599924474955,0.09970650030300021,3.0,1.823139499872923,,,,,,,,581.8765786001459,581.8765786001459,,,3266,Moral,2025-02-24_10h27.55.533,MoralCondition_v2,2022.2.5,30.001965126215786,
11,0,11,0,1,0,1,0,,,,,,,,,,,,,,,,,,,,,,,,,,,,,,,,,,,,,,,,,,,,,,,,,,,,,,602.5767403002828,602.5767403002828,0.00830989982932806,0.09725059987977147,3.0,1.023466699756682,,,,,,,,,,,,3266,Moral,2025-02-24_10h27.55.533,MoralCondition_v2,2022.2.5,30.001965126215786,
11,0,11,0,2,0,2,0,,,,,,,,,,,,,,,,,,,,,,,,,,,,,,,,,,,,,,,,,,,,,,,,,,,,,,603.6598809999414,603.6598809999414,0.009285099804401398,0.11470009991899133,3.0,1.106308899819851,,,,,,,,,,,,3266,Moral,2025-02-24_10h27.55.533,MoralCondition_v2,2022.2.5,30.001965126215786,
11,0,11,0,3,0,3,0,,,,,,,,,,,,,,,,,,,,,,,,,,,,,,,,,,,,,,,,,,,,,,,,,,,,,,604.7933176001534,604.7933176001534,0.007759499829262495,0.0971357999369502,3.0,0.8238101997412741,,,,,,,,,,,,3266,Moral,2025-02-24_10h27.55.533,MoralCondition_v2,2022.2.5,30.001965126215786,
11,0,11,0,4,0,4,0,,,,,,,,,,,,,,,,,,,,,,,,,,,,,,,,,,,,,,,,,,,,,,,,,,,,,,605.6599502000026,605.6599502000026,0.00899800006300211,0.09903640020638704,5.0,1.1244319998659194,,,,,,,,,,,,3266,Moral,2025-02-24_10h27.55.533,MoralCondition_v2,2022.2.5,30.001965126215786,
11,0,11,0,5,0,5,0,,,,,,,,,,,,,,,,,,,,,,,,,,,,,,,,,,,,,,,,,,,,,,,,,,,,,,606.8264891002327,606.8264891002327,0.007631000131368637,0.0990026998333633,4.0,1.1928061000071466,,,,,,,,,,,,3266,Moral,2025-02-24_10h27.55.533,MoralCondition_v2,2022.2.5,30.001965126215786,
11,0,11,0,6,0,6,0,,,,,,,,,,,,,,,,,,,,,,,,,,,,,,,,,,,,,,,,,,,,,,,,,,,,,,608.0602930001915,608.0602930001915,0.009246799629181623,0.09896489977836609,3.0,1.024281000252813,,,,,,,,,,,,3266,Moral,2025-02-24_10h27.55.533,MoralCondition_v2,2022.2.5,30.001965126215786,
11,0,11,0,,,,,,,,,,,,,,,,,,,,,,,,,,,,,,,,,,,,,,,,,,,,,,,,,,,,,,,,,,,,,,,,609.1267058001831,609.1267058001831,0.0011072000488638878,0.09835200011730194,4.0,1.3984392997808754,,,,,,3266,Moral,2025-02-24_10h27.55.533,MoralCondition_v2,2022.2.5,30.001965126215786,
12,0,12,0,0,0,0,0,,,,,,,,,,,,,,,,,,,,,610.5600649998523,0.00028560031205415726,0.09765660017728806,616.5598313999362,6.014248299878091,616.7265359000303,616.7265359000303,0.0627565998584032,0.16457240004092455,6.030992500018328,622.8596280999482,622.8596280999482,622.8596280999482,0.09287479985505342,0.1976215997710824,628.559820999857,628.7598847001791,6.0310672000050545,6.13098210003227,634.7598656001501,12.031068400014192,634.8600518000312,634.8600518000312,634.8932713000104,634.8932713000104,0.03146149963140488,0.1309128999710083,down,1.183328399900347,636.1265575001016,4.169996827840805e-05,0.09817739995196462,642.1263514002785,642.1263514002785,642.1263514002785,0.011064100079238415,0.09782039979472756,3.0,5.588083100039512,,,,,,,6.097663800232112,622.7265165001154,622.7265165001154,,,3266,Moral,2025-02-24_10h27.55.533,MoralCondition_v2,2022.2.5,30.001965126215786,
12,0,12,0,1,0,1,0,,,,,,,,,,,,,,,,,,,,,,,,,,,,,,,,,,,,,,,,,,,,,,,,,,,,,,647.7594864000566,647.7594864000566,0.006711899768561125,0.09775820001959801,4.0,1.3587622996419668,,,,,,,,,,,,3266,Moral,2025-02-24_10h27.55.533,MoralCondition_v2,2022.2.5,30.001965126215786,
12,0,12,0,2,0,2,0,,,,,,,,,,,,,,,,,,,,,,,,,,,,,,,,,,,,,,,,,,,,,,,,,,,,,,649.1764221000485,649.1764221000485,0.00865270011126995,0.11411460023373365,3.0,1.1396666998043656,,,,,,,,,,,,3266,Moral,2025-02-24_10h27.55.533,MoralCondition_v2,2022.2.5,30.001965126215786,
12,0,12,0,3,0,3,0,,,,,,,,,,,,,,,,,,,,,,,,,,,,,,,,,,,,,,,,,,,,,,,,,,,,,,650.3431131001562,650.3431131001562,0.0076719000935554504,0.09766010008752346,3.0,1.4910659999586642,,,,,,,,,,,,3266,Moral,2025-02-24_10h27.55.533,MoralCondition_v2,2022.2.5,30.001965126215786,
12,0,12,0,4,0,4,0,,,,,,,,,,,,,,,,,,,,,,,,,,,,,,,,,,,,,,,,,,,,,,,,,,,,,,651.8762969002128,651.8762969002128,0.007338800001889467,0.09777029976248741,3.0,1.624992599710822,,,,,,,,,,,,3266,Moral,2025-02-24_10h27.55.533,MoralCondition_v2,2022.2.5,30.001965126215786,
12,0,12,0,5,0,5,0,,,,,,,,,,,,,,,,,,,,,,,,,,,,,,,,,,,,,,,,,,,,,,,,,,,,,,653.5430025001988,653.5430025001988,0.007288599852472544,0.09807779965922236,3.0,1.2248925999738276,,,,,,,,,,,,3266,Moral,2025-02-24_10h27.55.533,MoralCondition_v2,2022.2.5,30.001965126215786,
12,0,12,0,6,0,6,0,,,,,,,,,,,,,,,,,,,,,,,,,,,,,,,,,,,,,,,,,,,,,,,,,,,,,,654.8264407999814,654.8264407999814,0.008814000058919191,0.11399800004437566,5.0,1.1728313998319209,,,,,,,,,,,,3266,Moral,2025-02-24_10h27.55.533,MoralCondition_v2,2022.2.5,30.001965126215786,
12,0,12,0,,,,,,,,,,,,,,,,,,,,,,,,,,,,,,,,,,,,,,,,,,,,,,,,,,,,,,,,,,,,,,,,656.0263148001395,656.0263148001395,0.0006856000982224941,0.0990377003327012,4.0,1.432842300273478,,,,,,3266,Moral,2025-02-24_10h27.55.533,MoralCondition_v2,2022.2.5,30.001965126215786,
13,0,13,0,0,0,0,0,,,,,,,,,,,,,,,,,,,,,657.4930477002636,0.0004539000801742077,0.09723989991471171,663.4930100999773,6.030503500252962,663.6930451001972,663.6930451001972,0.08458050014451146,0.19745829980820417,6.03052410017699,669.7931490000337,669.7931490000337,669.7931490000337,0.08519329968839884,0.19733279990032315,675.493072300218,675.6929756002501,6.030480300076306,6.130521799903363,681.6929712998681,12.030472999904305,681.7763124001212,681.7763124001212,681.7927958001383,681.7927958001383,0.01394839957356453,0.09678549971431494,up,0.619393200147897,682.4762920001522,4.91999089717865e-05,0.0979071999900043,688.4928453001194,688.4928453001194,688.4928453001194,0.012239699717611074,0.11463900003582239,3.0,1.7032373999245465,,,,,,,,669.6931818998419,669.6931818998419,,,3266,Moral,2025-02-24_10h27.55.533,MoralCondition_v2,2022.2.5,30.001965126215786,
13,0,13,0,1,0,1,0,,,,,,,,,,,,,,,,,,,,,,,,,,,,,,,,,,,,,,,,,,,,,,,,,,,,,,690.2428680001758,690.2428680001758,0.010284800082445145,0.11393840005621314,3.0,0.9048460000194609,,,,,,,,,,,,3266,Moral,2025-02-24_10h27.55.533,MoralCondition_v2,2022.2.5,30.001965126215786,
13,0,13,0,2,0,2,0,,,,,,,,,,,,,,,,,,,,,,,,,,,,,,,,,,,,,,,,,,,,,,,,,,,,,,691.192987699993,691.192987699993,0.007712800055742264,0.11461410019546747,3.0,0.8742031999863684,,,,,,,,,,,,3266,Moral,2025-02-24_10h27.55.533,MoralCondition_v2,2022.2.5,30.001965126215786,
13,0,13,0,3,0,3,0,,,,,,,,,,,,,,,,,,,,,,,,,,,,,,,,,,,,,,,,,,,,,,,,,,,,,,692.0927400002256,692.0927400002256,0.007909300271421671,0.09775790013372898,4.0,1.3909796001389623,,,,,,,,,,,,3266,Moral,2025-02-24_10h27.55.533,MoralCondition_v2,2022.2.5,30.001965126215786,
13,0,13,0,4,0,4,0,,,,,,,,,,,,,,,,,,,,,,,,,,,,,,,,,,,,,,,,,,,,,,,,,,,,,,693.5262067001313,693.5262067001313,0.008607700001448393,0.0974809997715056,3.0,0.856929300352931,,,,,,,,,,,,3266,Moral,2025-02-24_10h27.55.533,MoralCondition_v2,2022.2.5,30.001965126215786,
13,0,13,0,5,0,5,0,,,,,,,,,,,,,,,,,,,,,,,,,,,,,,,,,,,,,,,,,,,,,,,,,,,,,,694.4262471999973,694.4262471999973,0.006647899746894836,0.09920729976147413,3.0,0.8934581000357866,,,,,,,,,,,,3266,Moral,2025-02-24_10h27.55.533,MoralCondition_v2,2022.2.5,30.001965126215786,
13,0,13,0,6,0,6,0,,,,,,,,,,,,,,,,,,,,,,,,,,,,,,,,,,,,,,,,,,,,,,,,,,,,,,695.3596083000302,695.3596083000302,0.007606999948620796,0.09927969984710217,5.0,1.0261854999698699,,,,,,,,,,,,3266,Moral,2025-02-24_10h27.55.533,MoralCondition_v2,2022.2.5,30.001965126215786,
13,0,13,0,,,,,,,,,,,,,,,,,,,,,,,,,,,,,,,,,,,,,,,,,,,,,,,,,,,,,,,,,,,,,,,,696.4263948001899,696.4263948001899,0.0012572999112308025,0.09820879995822906,4.0,0.9648934002034366,,,,,,3266,Moral,2025-02-24_10h27.55.533,MoralCondition_v2,2022.2.5,30.001965126215786,
14,0,14,0,0,0,0,0,,,,,,,,,,,,,,,,,,,,,697.4264006000012,0.00013640010729432106,0.09917569998651743,703.4429234000854,6.015853800345212,703.6262087998912,703.6262087998912,0.09546079998835921,0.19918170012533665,5.999134799931198,709.6928734001704,709.6928734001704,709.6928734001704,0.057049599941819906,0.16590429982170463,715.3930576001294,715.5928739001974,5.999156599864364,6.099096899852157,721.5928199002519,11.99909309996292,721.6927840998396,721.6927840998396,721.7261034999974,721.7261034999974,-7.490022107958794e-05,0.09906050004065037,up,0.6860444000922143,722.4596637999639,3.429967910051346e-05,0.09794980008155107,,728.475926999934,728.475926999934,0.024763699620962143,0.11479139979928732,5.0,1.8908119997940958,,,,,,,,709.6928734001704,709.6928734001704,6.099119300022721,12.099119199905545,3266,Moral,2025-02-24_10h27.55.533,MoralCondition_v2,2022.2.5,30.001965126215786,
14,0,14,0,1,0,1,0,,,,,,,,,,,,,,,,,,,,,,,,,,,,,,,,,,,,,,,,,,,,,,,,,,,,,,730.4265498998575,730.4265498998575,0.00810740003362298,0.11444720020517707,3.0,1.4405797999352217,,,,,,,,,,,,3266,Moral,2025-02-24_10h27.55.533,MoralCondition_v2,2022.2.5,30.001965126215786,
14,0,14,0,2,0,2,0,,,,,,,,,,,,,,,,,,,,,,,,,,,,,,,,,,,,,,,,,,,,,,,,,,,,,,731.892690199893,731.892690199893,0.006586899980902672,0.0991945001296699,3.0,0.8270276002585888,,,,,,,,,,,,3266,Moral,2025-02-24_10h27.55.533,MoralCondition_v2,2022.2.5,30.001965126215786,
14,0,14,0,3,0,3,0,,,,,,,,,,,,,,,,,,,,,,,,,,,,,,,,,,,,,,,,,,,,,,,,,,,,,,732.7763824001886,732.7763824001886,0.008404099848121405,0.11463999981060624,3.0,0.9739477997645736,,,,,,,,,,,,3266,Moral,2025-02-24_10h27.55.533,MoralCondition_v2,2022.2.5,30.001965126215786,
14,0,14,0,4,0,4,0,,,,,,,,,,,,,,,,,,,,,,,,,,,,,,,,,,,,,,,,,,,,,,,,,,,,,,733.7760874000378,733.7760874000378,0.007823199965059757,0.09755340032279491,3.0,1.4914485001936555,,,,,,,,,,,,3266,Moral,2025-02-24_10h27.55.533,MoralCondition_v2,2022.2.5,30.001965126215786,
14,0,14,0,5,0,5,0,,,,,,,,,,,,,,,,,,,,,,,,,,,,,,,,,,,,,,,,,,,,,,,,,,,,,,735.3093555001542,735.3093555001542,0.00839129975065589,0.09799129981547594,4.0,1.0906229997053742,,,,,,,,,,,,3266,Moral,2025-02-24_10h27.55.533,MoralCondition_v2,2022.2.5,30.001965126215786,
14,0,14,0,6,0,6,0,,,,,,,,,,,,,,,,,,,,,,,,,,,,,,,,,,,,,,,,,,,,,,,,,,,,,,736.4596535000019,736.4596535000019,0.008008900098502636,0.11473420029506087,3.0,1.2409129999578,,,,,,,,,,,,3266,Moral,2025-02-24_10h27.55.533,MoralCondition_v2,2022.2.5,30.001965126215786,
14,0,14,0,,,,,,,,,,,,,,,,,,,,,,,,,,,,,,,,,,,,,,,,,,,,,,,,,,,,,,,,,,,,,,,,737.725954500027,737.725954500027,0.0019543003290891647,0.0979384002275765,4.0,1.0973388999700546,,,,,,3266,Moral,2025-02-24_10h27.55.533,MoralCondition_v2,2022.2.5,30.001965126215786,
15,0,15,0,0,0,0,0,,,,,,,,,,,,,,,,,,,,,738.8594479998574,0.0005252999253571033,0.0993232000619173,744.8594237999059,5.999213799834251,745.0260021002032,745.0260021002032,0.05667519988492131,0.16611320013180375,5.999244300182909,751.1258964999579,751.1258964999579,751.1258964999579,0.05937050003558397,0.16616360004991293,756.8260027999058,757.0262325000949,5.999476300086826,6.099306399933994,763.0259569999762,11.999183400068432,763.1260031000711,763.1260031000711,763.1593212001026,763.1593212001026,7.119961082935333e-05,0.09915709961205721,up,0.8049265998415649,764.02597409999,4.5800115913152695e-05,0.0980631997808814,770.0427711000666,770.0427711000666,770.0427711000666,0.00817849999293685,0.11466579977422953,3.0,1.6076496001332998,,,,,,,6.0991086000576615,751.026148899924,751.026148899924,6.09937179973349,12.099237299989909,3266,Moral,2025-02-24_10h27.55.533,MoralCondition_v2,2022.2.5,30.001965126215786,
15,0,15,0,1,0,1,0,,,,,,,,,,,,,,,,,,,,,,,,,,,,,,,,,,,,,,,,,,,,,,,,,,,,,,771.6760304998606,771.6760304998606,0.006744399666786194,0.09910839982330799,3.0,0.8932757000438869,,,,,,,,,,,,3266,Moral,2025-02-24_10h27.55.533,MoralCondition_v2,2022.2.5,30.001965126215786,
15,0,15,0,2,0,2,0,,,,,,,,,,,,,,,,,,,,,,,,,,,,,,,,,,,,,,,,,,,,,,,,,,,,,,772.6091761002317,772.6091761002317,0.006844500079751015,0.09922820003703237,5.0,1.4266800000332296,,,,,,,,,,,,3266,Moral,2025-02-24_10h27.55.533,MoralCondition_v2,2022.2.5,30.001965126215786,
15,0,15,0,3,0,3,0,,,,,,,,,,,,,,,,,,,,,,,,,,,,,,,,,,,,,,,,,,,,,,,,,,,,,,774.0759836002253,774.0759836002253,0.006676999852061272,0.09925010008737445,4.0,1.2273237998597324,,,,,,,,,,,,3266,Moral,2025-02-24_10h27.55.533,MoralCondition_v2,2022.2.5,30.001965126215786,
15,0,15,0,4,0,4,0,,,,,,,,,,,,,,,,,,,,,,,,,,,,,,,,,,,,,,,,,,,,,,,,,,,,,,775.3423357000574,775.3423357000574,0.008218199945986271,0.09744200017303228,3.0,0.790234100073576,,,,,,,,,,,,3266,Moral,2025-02-24_10h27.55.533,MoralCondition_v2,2022.2.5,30.001965126215786,
15,0,15,0,5,0,5,0,,,,,,,,,,,,,,,,,,,,,,,,,,,,,,,,,,,,,,,,,,,,,,,,,,,,,,776.176042099949,776.176042099949,0.00758610013872385,0.098029600456357,3.0,1.3912129998207092,,,,,,,,,,,,3266,Moral,2025-02-24_10h27.55.533,MoralCondition_v2,2022.2.5,30.001965126215786,
15,0,15,0,6,0,6,0,,,,,,,,,,,,,,,,,,,,,,,,,,,,,,,,,,,,,,,,,,,,,,,,,,,,,,777.6092623001896,777.6092623001896,0.006531900260597467,0.09911630023270845,3.0,0.7605069996789098,,,,,,,,,,,,3266,Moral,2025-02-24_10h27.55.533,MoralCondition_v2,2022.2.5,30.001965126215786,
15,0,15,0,,,,,,,,,,,,,,,,,,,,,,,,,,,,,,,,,,,,,,,,,,,,,,,,,,,,,,,,,,,,,,,,778.4094676999375,778.4094676999375,0.0006889002397656441,0.09901480004191399,4.0,0.9996517999097705,,,,,,3266,Moral,2025-02-24_10h27.55.533,MoralCondition_v2,2022.2.5,30.001965126215786,
16,0,16,0,0,0,0,0,,,,,,,,,,,,,,,,,,,,,779.4425282999873,0.00026430003345012665,0.09829569980502129,785.4592165001668,6.014880199916661,785.6260657999665,785.6260657999665,0.08044549962505698,0.18169839959591627,6.014930899720639,791.7259096000344,791.7259096000344,791.7259096000344,0.07745499955490232,0.18145149946212769,797.4258436001837,797.6258431002498,6.014880399685353,6.114641299471259,803.6258030002937,12.014860599767417,803.708902399987,803.708902399987,803.7591482000425,803.7591482000425,0.014752999413758516,0.11477649956941605,up,0.7330393004231155,804.5258097001351,6.489967927336693e-05,0.09741609962657094,810.5423900000751,810.5423900000751,810.5423900000751,0.00832279957830906,0.11403819965198636,4.0,1.3066984000615776,,,,,,,,791.6258327001706,791.6258327001706,,,3266,Moral,2025-02-24_10h27.55.533,MoralCondition_v2,2022.2.5,30.001965126215786,
16,0,16,0,1,0,1,0,,,,,,,,,,,,,,,,,,,,,,,,,,,,,,,,,,,,,,,,,,,,,,,,,,,,,,811.8923702999018,811.8923702999018,0.0075945002026855946,0.11398090003058314,5.0,1.2406188999302685,,,,,,,,,,,,3266,Moral,2025-02-24_10h27.55.533,MoralCondition_v2,2022.2.5,30.001965126215786,
16,0,16,0,2,0,2,0,,,,,,,,,,,,,,,,,,,,,,,,,,,,,,,,,,,,,,,,,,,,,,,,,,,,,,813.1757776001468,813.1757776001468,0.007783100008964539,0.11378209991380572,3.0,2.407172800041735,,,,,,,,,,,,3266,Moral,2025-02-24_10h27.55.533,MoralCondition_v2,2022.2.5,30.001965126215786,
16,0,16,0,3,0,3,0,,,,,,,,,,,,,,,,,,,,,,,,,,,,,,,,,,,,,,,,,,,,,,,,,,,,,,815.6091821002774,815.6091821002774,0.006653900258243084,0.09909339994192123,3.0,1.159999500028789,,,,,,,,,,,,3266,Moral,2025-02-24_10h27.55.533,MoralCondition_v2,2022.2.5,30.001965126215786,
16,0,16,0,4,0,4,0,,,,,,,,,,,,,,,,,,,,,,,,,,,,,,,,,,,,,,,,,,,,,,,,,,,,,,816.8091691001318,816.8091691001318,0.007230999879539013,0.09766920004040003,3.0,1.1255168998613954,,,,,,,,,,,,3266,Moral,2025-02-24_10h27.55.533,MoralCondition_v2,2022.2.5,30.001965126215786,
16,0,16,0,5,0,5,0,,,,,,,,,,,,,,,,,,,,,,,,,,,,,,,,,,,,,,,,,,,,,,,,,,,,,,817.9757554000244,817.9757554000244,0.0073645999655127525,0.09819249995052814,3.0,1.991795999929309,,,,,,,,,,,,3266,Moral,2025-02-24_10h27.55.533,MoralCondition_v2,2022.2.5,30.001965126215786,
16,0,16,0,6,0,6,0,,,,,,,,,,,,,,,,,,,,,,,,,,,,,,,,,,,,,,,,,,,,,,,,,,,,,,820.0089489002712,820.0089489002712,0.007045399863272905,0.09912500018253922,3.0,0.7929803999140859,,,,,,,,,,,,3266,Moral,2025-02-24_10h27.55.533,MoralCondition_v2,2022.2.5,30.001965126215786,
16,0,16,0,,,,,,,,,,,,,,,,,,,,,,,,,,,,,,,,,,,,,,,,,,,,,,,,,,,,,,,,,,,,,,,,820.8423542999662,820.8423542999662,0.0013667000457644463,0.09784770011901855,4.0,1.0308914999477565,,,,,,3266,Moral,2025-02-24_10h27.55.533,MoralCondition_v2,2022.2.5,30.001965126215786,
17,0,17,0,0,0,0,0,,,,,,,,,,,,,,,,,,,,,821.9092875998467,0.00023980019614100456,0.09791690018028021,827.9091679998673,6.031348700169474,828.12579810014,828.12579810014,0.10654389997944236,0.21467720018699765,6.014494999777526,834.1922324001789,834.1922324001789,834.1922324001789,0.07737670000642538,0.1814279998652637,839.8923308001831,840.0922989002429,6.014465000014752,6.114356799982488,846.0923097999766,12.01447629975155,846.1924540000036,846.1924540000036,846.2258271998726,846.2258271998726,0.014777899719774723,0.11455089971423149,up,0.714240999892354,846.9923093998805,4.319986328482628e-05,0.09773300029337406,,853.0091257002205,853.0091257002205,0.024146600160747766,0.1142365001142025,3.0,1.7248716996982694,,,,,,,,,,,,3266,Moral,2025-02-24_10h27.55.533,MoralCondition_v2,2022.2.5,30.001965126215786,
17,0,17,0,1,0,1,0,,,,,,,,,,,,,,,,,,,,,,,,,,,,,,,,,,,,,,,,,,,,,,,,,,,,,,854.7756305001676,854.7756305001676,0.006970900110900402,0.09922780003398657,3.0,0.7265611998736858,,,,,,,,,,,,3266,Moral,2025-02-24_10h27.55.533,MoralCondition_v2,2022.2.5,30.001965126215786,
17,0,17,0,2,0,2,0,,,,,,,,,,,,,,,,,,,,,,,,,,,,,,,,,,,,,,,,,,,,,,,,,,,,,,855.542155300267,855.542155300267,0.0065864999778568745,0.09926539985463023,5.0,1.193523499649018,,,,,,,,,,,,3266,Moral,2025-02-24_10h27.55.533,MoralCondition_v2,2022.2.5,30.001965126215786,
17,0,17,0,3,0,3,0,,,,,,,,,,,,,,,,,,,,,,,,,,,,,,,,,,,,,,,,,,,,,,,,,,,,,,856.7754253000021,856.7754253000021,0.006704799830913544,0.09913130011409521,3.0,0.893536000046879,,,,,,,,,,,,3266,Moral,2025-02-24_10h27.55.533,MoralCondition_v2,2022.2.5,30.001965126215786,
17,0,17,0,4,0,4,0,,,,,,,,,,,,,,,,,,,,,,,,,,,,,,,,,,,,,,,,,,,,,,,,,,,,,,857.7086529000662,857.7086529000662,0.007436600048094988,0.09780459990724921,4.0,0.9581285999156535,,,,,,,,,,,,3266,Moral,2025-02-24_10h27.55.533,MoralCondition_v2,2022.2.5,30.001965126215786,
17,0,17,0,5,0,5,0,,,,,,,,,,,,,,,,,,,,,,,,,,,,,,,,,,,,,,,,,,,,,,,,,,,,,,858.70870630024,858.70870630024,0.006921200081706047,0.09931250009685755,3.0,0.6601836998015642,,,,,,,,,,,,3266,Moral,2025-02-24_10h27.55.533,MoralCondition_v2,2022.2.5,30.001965126215786,
17,0,17,0,6,0,6,0,,,,,,,,,,,,,,,,,,,,,,,,,,,,,,,,,,,,,,,,,,,,,,,,,,,,,,859.4088583998382,859.4088583998382,0.007207899820059538,0.09808749984949827,3.0,1.025148999877274,,,,,,,,,,,,3266,Moral,2025-02-24_10h27.55.533,MoralCondition_v2,2022.2.5,30.001965126215786,
17,0,17,0,,,,,,,,,,,,,,,,,,,,,,,,,,,,,,,,,,,,,,,,,,,,,,,,,,,,,,,,,,,,,,,,860.4755261000246,860.4755261000246,0.0018655001185834408,0.09751810040324926,4.0,0.8301956001669168,,,,,,3266,Moral,2025-02-24_10h27.55.533,MoralCondition_v2,2022.2.5,30.001965126215786,
18,0,18,0,0,0,0,0,,,,,,,,,,,,,,,,,,,,,861.3422719999216,0.00032540038228034973,0.09730370016768575,867.3588680000976,6.013825600035489,867.5254684002139,867.5254684002139,0.07537040021270514,0.1808504001237452,6.013790700118989,873.6254282002337,873.6254282002337,873.6254282002337,0.06801739986985922,0.18046380020678043,879.3256473001093,879.5255165002309,6.013823700137436,6.113797000143677,885.5259774001315,12.014336199965328,885.6255860999227,885.6255860999227,885.6587944999337,885.6587944999337,0.014067799784243107,0.11374970013275743,up,0.9773214999586344,886.6754421000369,3.42000275850296e-05,0.09809709992259741,892.6753793000244,892.6753793000244,892.6753793000244,0.006424600258469582,0.09792330022901297,3.0,1.4258460998535156,,,,,,,,873.5255531002767,873.5255531002767,,,3266,Moral,2025-02-24_10h27.55.533,MoralCondition_v2,2022.2.5,30.001965126215786,
18,0,18,0,1,0,1,0,,,,,,,,,,,,,,,,,,,,,,,,,,,,,,,,,,,,,,,,,,,,,,,,,,,,,,894.1421195999719,894.1421195999719,0.008103299885988235,0.09713969985023141,4.0,1.4232985000126064,,,,,,,,,,,,3266,Moral,2025-02-24_10h27.55.533,MoralCondition_v2,2022.2.5,30.001965126215786,
18,0,18,0,2,0,2,0,,,,,,,,,,,,,,,,,,,,,,,,,,,,,,,,,,,,,,,,,,,,,,,,,,,,,,895.6088674999774,895.6088674999774,0.008072899654507637,0.09957579988986254,3.0,0.9257992003113031,,,,,,,,,,,,3266,Moral,2025-02-24_10h27.55.533,MoralCondition_v2,2022.2.5,30.001965126215786,
18,0,18,0,3,0,3,0,,,,,,,,,,,,,,,,,,,,,,,,,,,,,,,,,,,,,,,,,,,,,,,,,,,,,,896.5754824001342,896.5754824001342,0.006518200039863586,0.09911999991163611,5.0,1.1271786000579596,,,,,,,,,,,,3266,Moral,2025-02-24_10h27.55.533,MoralCondition_v2,2022.2.5,30.001965126215786,
18,0,18,0,4,0,4,0,,,,,,,,,,,,,,,,,,,,,,,,,,,,,,,,,,,,,,,,,,,,,,,,,,,,,,897.758670500014,897.758670500014,0.009349300060421228,0.11428530002012849,3.0,0.6395267001353204,,,,,,,,,,,,3266,Moral,2025-02-24_10h27.55.533,MoralCondition_v2,2022.2.5,30.001965126215786,
18,0,18,0,5,0,5,0,,,,,,,,,,,,,,,,,,,,,,,,,,,,,,,,,,,,,,,,,,,,,,,,,,,,,,898.4421471999958,898.4421471999958,0.00855429982766509,0.11601450014859438,3.0,0.8082592999562621,,,,,,,,,,,,3266,Moral,2025-02-24_10h27.55.533,MoralCondition_v2,2022.2.5,30.001965126215786,
18,0,18,0,6,0,6,0,,,,,,,,,,,,,,,,,,,,,,,,,,,,,,,,,,,,,,,,,,,,,,,,,,,,,,899.2753240000457,899.2753240000457,0.00669379997998476,0.09858009964227676,3.0,0.792531699873507,,,,,,,,,,,,3266,Moral,2025-02-24_10h27.55.533,MoralCondition_v2,2022.2.5,30.001965126215786,
18,0,18,0,,,,,,,,,,,,,,,,,,,,,,,,,,,,,,,,,,,,,,,,,,,,,,,,,,,,,,,,,,,,,,,,900.1088759000413,900.1088759000413,0.0006992998532950878,0.09941209992393851,4.0,0.799675100017339,,,,,,3266,Moral,2025-02-24_10h27.55.533,MoralCondition_v2,2022.2.5,30.001965126215786,
19,0,19,0,0,0,0,0,,,,,,,,,,,,,,,,,,,,,900.9422184000723,0.00013520009815692902,0.09919389989227057,906.9252339000814,5.999157600104809,907.1091137002222,907.1091137002222,0.06603979971259832,0.16606869967654347,5.99926899978891,913.2086253999732,913.2086253999732,913.2086253999732,0.06364299962297082,0.16598799964413047,918.9086910001934,919.1086921999231,5.99914739979431,6.099083999637514,925.1086642001756,11.999110499862581,925.2086529000662,925.2086529000662,925.2419737000018,925.2419737000018,-1.2200325727462769e-05,0.09909989964216948,up,0.8021042998880148,926.1086701001041,4.610000178217888e-05,0.09784019971266389,932.1251170001924,932.1251170001924,932.1251170001924,0.008659299928694963,0.11436769971624017,3.0,2.0734144002199173,,,,,,,6.099209699779749,913.1087195998989,913.1087195998989,6.099196699913591,12.099105099681765,3266,Moral,2025-02-24_10h27.55.533,MoralCondition_v2,2022.2.5,30.001965126215786,
19,0,19,0,1,0,1,0,,,,,,,,,,,,,,,,,,,,,,,,,,,,,,,,,,,,,,,,,,,,,,,,,,,,,,934.2251841002144,934.2251841002144,0.008130700327455997,0.09794710017740726,4.0,1.1241601998917758,,,,,,,,,,,,3266,Moral,2025-02-24_10h27.55.533,MoralCondition_v2,2022.2.5,30.001965126215786,
19,0,19,0,2,0,2,0,,,,,,,,,,,,,,,,,,,,,,,,,,,,,,,,,,,,,,,,,,,,,,,,,,,,,,935.3918971000239,935.3918971000239,0.007397699635475874,0.09753179969266057,3.0,0.8244802001863718,,,,,,,,,,,,3266,Moral,2025-02-24_10h27.55.533,MoralCondition_v2,2022.2.5,30.001965126215786,
19,0,19,0,3,0,3,0,,,,,,,,,,,,,,,,,,,,,,,,,,,,,,,,,,,,,,,,,,,,,,,,,,,,,,936.2585916998796,936.2585916998796,0.006994100287556648,0.09940729988738894,3.0,0.7934980997815728,,,,,,,,,,,,3266,Moral,2025-02-24_10h27.55.533,MoralCondition_v2,2022.2.5,30.001965126215786,
19,0,19,0,4,0,4,0,,,,,,,,,,,,,,,,,,,,,,,,,,,,,,,,,,,,,,,,,,,,,,,,,,,,,,937.0918880999088,937.0918880999088,0.007694799918681383,0.09801150020211935,5.0,1.3578834999352694,,,,,,,,,,,,3266,Moral,2025-02-24_10h27.55.533,MoralCondition_v2,2022.2.5,30.001965126215786,
19,0,19,0,5,0,5,0,,,,,,,,,,,,,,,,,,,,,,,,,,,,,,,,,,,,,,,,,,,,,,,,,,,,,,938.5088122999296,938.5088122999296,0.0075297001749277115,0.11411819979548454,3.0,0.8417171002365649,,,,,,,,,,,,3266,Moral,2025-02-24_10h27.55.533,MoralCondition_v2,2022.2.5,30.001965126215786,
19,0,19,0,6,0,6,0,,,,,,,,,,,,,,,,,,,,,,,,,,,,,,,,,,,,,,,,,,,,,,,,,,,,,,939.3753027999774,939.3753027999774,0.00793480034917593,0.09813600033521652,3.0,0.8912183004431427,,,,,,,,,,,,3266,Moral,2025-02-24_10h27.55.533,MoralCondition_v2,2022.2.5,30.001965126215786,
19,0,19,0,,,,,,,,,,,,,,,,,,,,,,,,,,,,,,,,,,,,,,,,,,,,,,,,,,,,,,,,,,,,,,,,940.3085684999824,940.3085684999824,0.0006981003098189831,0.09933260036632419,4.0,0.8335151001811028,,,,,,3266,Moral,2025-02-24_10h27.55.533,MoralCondition_v2,2022.2.5,30.001965126215786,
