loop.thisRepN,loop.thisTrialN,loop.thisN,loop.thisIndex,evaluate_all_emotions.thisRepN,evaluate_all_emotions.thisTrialN,evaluate_all_emotions.thisN,evaluate_all_emotions.thisIndex,sync_beep_1.started,p_port.started,p_port.stopped,sync_beep_1.stopped,sync_beep_2.started,sync_beep_2.stopped,sync_beep_3.started,sync_beep_3.stopped,sync_beep_4.started,sync_beep_4.stopped,baseline.started,p_port_2.started,p_port_2.stopped,baseline.stopped,p_port_3.started,Game_Start_Text.started,p_port_4.started,p_port_4.stopped,key_resp.started,key_resp.keys,key_resp.rt,fixation_cross.started,p_port_5.started,p_port_5.stopped,fixation_cross.stopped,p_port_6.started,player_image_intro.started,player_name_intro.started,p_port_7.started,p_port_7.stopped,p_port_8.started,player_image_offer.started,player_name_offer.started,proposed_split.started,p_port_9.started,p_port_9.stopped,proposed_split.stopped,accept_reject.started,p_port_15.started,p_port_15.stopped,accept_reject.stopped,p_port_10.started,arrow_instructions.started,offer_choice.started,p_port_11.started,p_port_11.stopped,offer_choice.keys,offer_choice.rt,Instructions_Affinity_Score.started,p_port_12.started,p_port_12.stopped,Emotion_Image.started,AffinityScore.started,p_port_13.started,p_port_13.stopped,AffinityScore.response,AffinityScore.rt,Instruction.started,Moral_Disgust_Score.started,p_port_14.started,p_port_14.stopped,Moral_Disgust_Score.response,Moral_Disgust_Score.rt,player_image_offer.stopped,player_name_offer.stopped,p_port_6.stopped,p_port_10.stopped,Instructions_Affinity_Score.stopped,p_port_8.stopped,player_image_intro.stopped,player_name_intro.stopped,participant,session,date,expName,psychopyVersion,frameRate,
,,,,,,,,16.04138236970175,0.000812700018286705,0.1085458998568356,16.358019000152126,16.641237069969065,16.95803890004754,17.25805007002782,17.558022000128403,17.84132937004324,18.157968800049275,18.157968800049275,0.025366599904373288,0.12552019977010787,33.15804020012729,15.025491799926385,33.27470179996453,0.008780399803072214,0.10872499970719218,33.75802020006813,space,2.5045226998627186,,,,,,,,,,,,,,,,,,,,,,,,,,,,,,,,,,,,,,,,,,,,,,,,,,,3419,Moral,2025-02-04_13h30.29.340,MoralCondition_v2,2022.2.5,29.985546974991944,
0,0,0,0,0,0,0,0,,,,,,,,,,,,,,,,,,,,,,36.324651499977335,0.0014309000689536333,0.0985143999569118,42.341341899940744,6.015056499978527,42.55825660005212,42.55825660005212,0.08954429975710809,0.23176939995028079,6.031813099747524,48.658067600103095,48.658067600103095,48.658067600103095,0.09727929974906147,0.23171919980086386,54.35799799999222,54.524677500128746,6.031750299734995,6.131738899741322,60.5247186999768,12.031844399869442,60.65812520007603,60.65812520007603,0.03190379962325096,0.1316762997303158,down,2.2121228999458253,62.941432300023735,5.779997445642948e-05,0.10010799998417497,68.97467140015215,68.97467140015215,0.01968200015835464,0.13350420002825558,6.0,12.71484629996121,,,,,,,,,,,,,,,3419,Moral,2025-02-04_13h30.29.340,MoralCondition_v2,2022.2.5,29.985546974991944,
0,0,0,0,1,0,1,0,,,,,,,,,,,,,,,,,,,,,,,,,,,,,,,,,,,,,,,,,,,,,,,,,,,,81.70799889997579,81.70799889997579,0.009600199991837144,0.09895359980873764,2.0,4.75714600016363,,,,,,,,,,,,,,,3419,Moral,2025-02-04_13h30.29.340,MoralCondition_v2,2022.2.5,29.985546974991944,
0,0,0,0,2,0,2,0,,,,,,,,,,,,,,,,,,,,,,,,,,,,,,,,,,,,,,,,,,,,,,,,,,,,86.52457939996384,86.52457939996384,0.012418000027537346,0.11605919990688562,5.0,4.205068199895322,,,,,,,,,,,,,,,3419,Moral,2025-02-04_13h30.29.340,MoralCondition_v2,2022.2.5,29.985546974991944,
0,0,0,0,3,0,3,0,,,,,,,,,,,,,,,,,,,,,,,,,,,,,,,,,,,,,,,,,,,,,,,,,,,,90.77453029993922,90.77453029993922,0.01104229991324246,0.1146140000782907,3.0,4.471020299941301,,,,,,,,,,,,,,,3419,Moral,2025-02-04_13h30.29.340,MoralCondition_v2,2022.2.5,29.985546974991944,
0,0,0,0,4,0,4,0,,,,,,,,,,,,,,,,,,,,,,,,,,,,,,,,,,,,,,,,,,,,,,,,,,,,95.27446079999208,95.27446079999208,0.009178499924018979,0.09894259995780885,3.0,3.02425629994832,,,,,,,,,,,,,,,3419,Moral,2025-02-04_13h30.29.340,MoralCondition_v2,2022.2.5,29.985546974991944,
0,0,0,0,5,0,5,0,,,,,,,,,,,,,,,,,,,,,,,,,,,,,,,,,,,,,,,,,,,,,,,,,,,,98.3583047001157,98.3583047001157,0.012558199930936098,0.11379370000213385,1.0,4.769099900033325,,,,,,,,,,,,,,,3419,Moral,2025-02-04_13h30.29.340,MoralCondition_v2,2022.2.5,29.985546974991944,
0,0,0,0,6,0,6,0,,,,,,,,,,,,,,,,,,,,,,,,,,,,,,,,,,,,,,,,,,,,,,,,,,,,103.1745778999757,103.1745778999757,0.011504200054332614,0.11494400002993643,2.0,2.6709733000025153,,,,,,,,,,,,,,,3419,Moral,2025-02-04_13h30.29.340,MoralCondition_v2,2022.2.5,29.985546974991944,
0,0,0,0,,,,,,,,,,,,,,,,,,,,,,,,,,,,,,,,,,,,,,,,,,,,,,,,,,,,,,,,,,,,,,105.87448749993928,105.87448749993928,0.000710400054231286,0.0991644999012351,3.0,8.666352299973369,,,,,,,,,3419,Moral,2025-02-04_13h30.29.340,MoralCondition_v2,2022.2.5,29.985546974991944,
1,0,1,0,0,0,0,0,,,,,,,,,,,,,,,,,,,,,,114.57481299992651,0.00015590013936161995,0.09957420011050999,120.59123000013642,6.015642200130969,120.79153509996831,120.79153509996831,0.10229120007716119,0.21589210000820458,6.0156380999833345,126.85784990014508,126.85784990014508,126.85784990014508,0.07548839994706213,0.18247879995033145,132.55786480009556,132.75790450000204,6.015660199802369,6.115770599804819,138.7581921000965,12.015911299968138,138.8744049000088,138.8744049000088,0.015483399853110313,0.09890019986778498,up,1.099904099944979,140.0081573999487,5.260016769170761e-05,0.09742709994316101,146.0244124000892,146.0244124000892,0.023499300004914403,0.11421500006690621,2.0,3.92461850005202,,,,,,,138.8411902000662,138.8411902000662,,,,,,,3419,Moral,2025-02-04_13h30.29.340,MoralCondition_v2,2022.2.5,29.985546974991944,
1,0,1,0,1,0,1,0,,,,,,,,,,,,,,,,,,,,,,,,,,,,,,,,,,,,,,,,,,,,,,,,,,,,150.00798649992794,150.00798649992794,0.009106999961659312,0.11482160002924502,2.0,3.5732600998599082,,,,,,,,,,,,,,,3419,Moral,2025-02-04_13h30.29.340,MoralCondition_v2,2022.2.5,29.985546974991944,
1,0,1,0,2,0,2,0,,,,,,,,,,,,,,,,,,,,,,,,,,,,,,,,,,,,,,,,,,,,,,,,,,,,153.60797090013511,153.60797090013511,0.006355100078508258,0.0996199999935925,2.0,3.8606227000709623,,,,,,,,,,,,,,,3419,Moral,2025-02-04_13h30.29.340,MoralCondition_v2,2022.2.5,29.985546974991944,
1,0,1,0,3,0,3,0,,,,,,,,,,,,,,,,,,,,,,,,,,,,,,,,,,,,,,,,,,,,,,,,,,,,157.50787610001862,157.50787610001862,0.006900500040501356,0.09940290008671582,2.0,2.0600610999390483,,,,,,,,,,,,,,,3419,Moral,2025-02-04_13h30.29.340,MoralCondition_v2,2022.2.5,29.985546974991944,
1,0,1,0,4,0,4,0,,,,,,,,,,,,,,,,,,,,,,,,,,,,,,,,,,,,,,,,,,,,,,,,,,,,159.607750199968,159.607750199968,0.007048900006338954,0.09937669988721609,3.0,3.526613499969244,,,,,,,,,,,,,,,3419,Moral,2025-02-04_13h30.29.340,MoralCondition_v2,2022.2.5,29.985546974991944,
1,0,1,0,5,0,5,0,,,,,,,,,,,,,,,,,,,,,,,,,,,,,,,,,,,,,,,,,,,,,,,,,,,,163.17454160004854,163.17454160004854,0.006663599982857704,0.09924539993517101,3.0,4.82715760008432,,,,,,,,,,,,,,,3419,Moral,2025-02-04_13h30.29.340,MoralCondition_v2,2022.2.5,29.985546974991944,
1,0,1,0,6,0,6,0,,,,,,,,,,,,,,,,,,,,,,,,,,,,,,,,,,,,,,,,,,,,,,,,,,,,168.04126160009764,168.04126160009764,0.006323799956589937,0.0991597999818623,3.0,2.56032790010795,,,,,,,,,,,,,,,3419,Moral,2025-02-04_13h30.29.340,MoralCondition_v2,2022.2.5,29.985546974991944,
1,0,1,0,,,,,,,,,,,,,,,,,,,,,,,,,,,,,,,,,,,,,,,,,,,,,,,,,,,,,,,,,,,,,,170.64119310001843,170.64119310001843,0.000682600075379014,0.09924530005082488,4.0,5.599971099989489,,,,,,,,,3419,Moral,2025-02-04_13h30.29.340,MoralCondition_v2,2022.2.5,29.985546974991944,
2,0,2,0,0,0,0,0,,,,,,,,,,,,,,,,,,,,,,176.27475069998764,0.00016779988072812557,0.09901420003734529,182.2577569000423,6.015647700056434,182.5081011999864,182.5081011999864,0.12045489996671677,0.2323088999837637,6.03231959999539,188.57447510003112,188.57447510003112,188.57447510003112,0.09256289969198406,0.19922509975731373,194.27447800012305,194.441193100065,5.999051299877465,6.099009099882096,200.44126550015062,11.999105999711901,200.57449389994144,200.57449389994144,-0.00013560033403337002,0.09900419972836971,down,7.0470987998414785,207.67451989999972,4.090019501745701e-05,0.09826690005138516,213.67487689992413,213.67487689992413,0.008914800127968192,0.09787490009330213,6.0,4.190412600059062,,,,,,,200.57449389994144,200.57449389994144,6.09885840001516,12.098933099769056,213.67487689992413,,,,3419,Moral,2025-02-04_13h30.29.340,MoralCondition_v2,2022.2.5,29.985546974991944,
2,0,2,0,1,0,1,0,,,,,,,,,,,,,,,,,,,,,,,,,,,,,,,,,,,,,,,,,,,,,,,,,,,,217.9077043000143,217.9077043000143,0.008435399970039725,0.09876960003748536,3.0,2.1244151000864804,,,,,,,,,,,,,,,3419,Moral,2025-02-04_13h30.29.340,MoralCondition_v2,2022.2.5,29.985546974991944,
2,0,2,0,2,0,2,0,,,,,,,,,,,,,,,,,,,,,,,,,,,,,,,,,,,,,,,,,,,,,,,,,,,,220.07437689998187,220.07437689998187,0.006931500043720007,0.09877949999645352,3.0,2.459481699857861,,,,,,,,,,,,,,,3419,Moral,2025-02-04_13h30.29.340,MoralCondition_v2,2022.2.5,29.985546974991944,
2,0,2,0,3,0,3,0,,,,,,,,,,,,,,,,,,,,,,,,,,,,,,,,,,,,,,,,,,,,,,,,,,,,222.57433500001207,222.57433500001207,0.007599599892273545,0.09839989989995956,2.0,2.3586633999366313,,,,,,,,,,,,,,,3419,Moral,2025-02-04_13h30.29.340,MoralCondition_v2,2022.2.5,29.985546974991944,
2,0,2,0,4,0,4,0,,,,,,,,,,,,,,,,,,,,,,,,,,,,,,,,,,,,,,,,,,,,,,,,,,,,224.974475099938,224.974475099938,0.0068107000552117825,0.0984633001498878,5.0,3.259592399932444,,,,,,,,,,,,,,,3419,Moral,2025-02-04_13h30.29.340,MoralCondition_v2,2022.2.5,29.985546974991944,
2,0,2,0,5,0,5,0,,,,,,,,,,,,,,,,,,,,,,,,,,,,,,,,,,,,,,,,,,,,,,,,,,,,228.27507130010054,228.27507130010054,0.006942400010302663,0.09708029986359179,2.0,1.991253999993205,,,,,,,,,,,,,,,3419,Moral,2025-02-04_13h30.29.340,MoralCondition_v2,2022.2.5,29.985546974991944,
2,0,2,0,6,0,6,0,,,,,,,,,,,,,,,,,,,,,,,,,,,,,,,,,,,,,,,,,,,,,,,,,,,,230.30800070008263,230.30800070008263,0.008016300154849887,0.09730420005507767,5.0,4.457062499830499,,,,,,,,,,,,,,,3419,Moral,2025-02-04_13h30.29.340,MoralCondition_v2,2022.2.5,29.985546974991944,
2,0,2,0,,,,,,,,,,,,,,,,,,,,,,,,,,,,,,,,,,,,,,,,,,,,,,,,,,,,,,,,,,,,,,234.80772310006432,234.80772310006432,0.0009907998610287905,0.0983661999925971,3.0,4.965568299870938,,,,,,,,,3419,Moral,2025-02-04_13h30.29.340,MoralCondition_v2,2022.2.5,29.985546974991944,
3,0,3,0,0,0,0,0,,,,,,,,,,,,,,,,,,,,,,239.80788829992525,0.00013679987750947475,0.09922069986350834,245.7909647000488,5.9991222999524325,246.0412930001039,246.0412930001039,0.11532099987380207,0.23259789985604584,5.999204899882898,252.10783810005523,252.10783810005523,252.10783810005523,0.08940819976851344,0.19905959977768362,257.8077480001375,257.9744327000808,5.999283199664205,6.099329999880865,263.9745968999341,11.999399799853563,264.1077994001098,264.1077994001098,0.0006000995635986328,0.09919499978423119,up,1.5138590999413282,265.6540258999448,2.8900103643536568e-05,0.08390829991549253,271.6747274999507,271.6747274999507,0.012185300001874566,0.10053710010834038,2.0,3.656136500183493,,,,,,,264.1077994001098,264.1077994001098,6.099236199865118,12.09942439966835,,6.099353299941868,,,3419,Moral,2025-02-04_13h30.29.340,MoralCondition_v2,2022.2.5,29.985546974991944,
3,0,3,0,1,0,1,0,,,,,,,,,,,,,,,,,,,,,,,,,,,,,,,,,,,,,,,,,,,,,,,,,,,,275.3743173999246,275.3743173999246,0.007189299911260605,0.09781800000928342,2.0,1.2920069999527186,,,,,,,,,,,,,,,3419,Moral,2025-02-04_13h30.29.340,MoralCondition_v2,2022.2.5,29.985546974991944,
3,0,3,0,2,0,2,0,,,,,,,,,,,,,,,,,,,,,,,,,,,,,,,,,,,,,,,,,,,,,,,,,,,,276.7076753999572,276.7076753999572,0.008016100153326988,0.09900570008903742,5.0,4.858476500026882,,,,,,,,,,,,,,,3419,Moral,2025-02-04_13h30.29.340,MoralCondition_v2,2022.2.5,29.985546974991944,
3,0,3,0,3,0,3,0,,,,,,,,,,,,,,,,,,,,,,,,,,,,,,,,,,,,,,,,,,,,,,,,,,,,281.60777750005946,281.60777750005946,0.007083799922838807,0.09780470002442598,3.0,3.5255479000043124,,,,,,,,,,,,,,,3419,Moral,2025-02-04_13h30.29.340,MoralCondition_v2,2022.2.5,29.985546974991944,
3,0,3,0,4,0,4,0,,,,,,,,,,,,,,,,,,,,,,,,,,,,,,,,,,,,,,,,,,,,,,,,,,,,285.174357800046,285.174357800046,0.007371699903160334,0.09827219997532666,5.0,3.191899900091812,,,,,,,,,,,,,,,3419,Moral,2025-02-04_13h30.29.340,MoralCondition_v2,2022.2.5,29.985546974991944,
3,0,3,0,5,0,5,0,,,,,,,,,,,,,,,,,,,,,,,,,,,,,,,,,,,,,,,,,,,,,,,,,,,,288.4078516000882,288.4078516000882,0.007178399944677949,0.09910909994505346,1.0,1.5928567999508232,,,,,,,,,,,,,,,3419,Moral,2025-02-04_13h30.29.340,MoralCondition_v2,2022.2.5,29.985546974991944,
3,0,3,0,6,0,6,0,,,,,,,,,,,,,,,,,,,,,,,,,,,,,,,,,,,,,,,,,,,,,,,,,,,,290.0578678001184,290.0578678001184,0.007852100068703294,0.11399190011434257,5.0,4.073924300028011,,,,,,,,,,,,,,,3419,Moral,2025-02-04_13h30.29.340,MoralCondition_v2,2022.2.5,29.985546974991944,
3,0,3,0,,,,,,,,,,,,,,,,,,,,,,,,,,,,,,,,,,,,,,,,,,,,,,,,,,,,,,,,,,,,,,294.1578098000027,294.1578098000027,0.0016423000488430262,0.09794830018654466,3.0,6.897391499951482,,,,,,,,,3419,Moral,2025-02-04_13h30.29.340,MoralCondition_v2,2022.2.5,29.985546974991944,
4,0,4,0,0,0,0,0,,,,,,,,,,,,,,,,,,,,,,301.0912434000056,0.00013619987294077873,0.09925139998085797,307.0908689999487,6.015631799818948,307.25776190008037,307.25776190008037,0.056320399744436145,0.16565289977006614,5.999067599885166,313.35750770010054,313.35750770010054,313.35750770010054,0.05630309972912073,0.16595459962263703,319.0576526001096,319.2910178999882,5.999081399757415,6.099082599626854,325.2908773000818,12.032211299752817,325.40769120003097,325.40769120003097,0.015855599660426378,0.11571209970861673,up,0.7428222999442369,326.20779930008575,5.150004290044308e-05,0.09727449994534254,332.207584900083,332.207584900083,0.00535729993134737,0.0974433000665158,3.0,2.726392799988389,,,,,,,325.34093339997344,325.34093339997344,6.099040899891406,,332.207584900083,6.098870599875227,313.24091339996085,313.24091339996085,3419,Moral,2025-02-04_13h30.29.340,MoralCondition_v2,2022.2.5,29.985546974991944,
4,0,4,0,1,0,1,0,,,,,,,,,,,,,,,,,,,,,,,,,,,,,,,,,,,,,,,,,,,,,,,,,,,,334.9743647000287,334.9743647000287,0.008091000141575933,0.09760280000045896,5.0,4.191154500003904,,,,,,,,,,,,,,,3419,Moral,2025-02-04_13h30.29.340,MoralCondition_v2,2022.2.5,29.985546974991944,
4,0,4,0,2,0,2,0,,,,,,,,,,,,,,,,,,,,,,,,,,,,,,,,,,,,,,,,,,,,,,,,,,,,339.2077045000624,339.2077045000624,0.006496000103652477,0.09932429995387793,3.0,2.460484200157225,,,,,,,,,,,,,,,3419,Moral,2025-02-04_13h30.29.340,MoralCondition_v2,2022.2.5,29.985546974991944,
4,0,4,0,3,0,3,0,,,,,,,,,,,,,,,,,,,,,,,,,,,,,,,,,,,,,,,,,,,,,,,,,,,,341.70765310013667,341.70765310013667,0.00752360001206398,0.09768310002982616,2.0,2.1578067999798805,,,,,,,,,,,,,,,3419,Moral,2025-02-04_13h30.29.340,MoralCondition_v2,2022.2.5,29.985546974991944,
4,0,4,0,4,0,4,0,,,,,,,,,,,,,,,,,,,,,,,,,,,,,,,,,,,,,,,,,,,,,,,,,,,,343.9243989000097,343.9243989000097,0.008586700074374676,0.11488030012696981,5.0,3.0074550001882017,,,,,,,,,,,,,,,3419,Moral,2025-02-04_13h30.29.340,MoralCondition_v2,2022.2.5,29.985546974991944,
4,0,4,0,5,0,5,0,,,,,,,,,,,,,,,,,,,,,,,,,,,,,,,,,,,,,,,,,,,,,,,,,,,,346.95753130014054,346.95753130014054,0.007197000086307526,0.0983507998753339,1.0,3.7589047998189926,,,,,,,,,,,,,,,3419,Moral,2025-02-04_13h30.29.340,MoralCondition_v2,2022.2.5,29.985546974991944,
4,0,4,0,6,0,6,0,,,,,,,,,,,,,,,,,,,,,,,,,,,,,,,,,,,,,,,,,,,,,,,,,,,,350.7745906000491,350.7745906000491,0.00852959998883307,0.11491180001758039,2.0,1.9073672997765243,,,,,,,,,,,,,,,3419,Moral,2025-02-04_13h30.29.340,MoralCondition_v2,2022.2.5,29.985546974991944,
4,0,4,0,,,,,,,,,,,,,,,,,,,,,,,,,,,,,,,,,,,,,,,,,,,,,,,,,,,,,,,,,,,,,,352.70785240014084,352.70785240014084,0.0006936998106539249,0.09916289988905191,6.0,4.399917599977925,,,,,,,,,3419,Moral,2025-02-04_13h30.29.340,MoralCondition_v2,2022.2.5,29.985546974991944,
5,0,5,0,0,0,0,0,,,,,,,,,,,,,,,,,,,,,,357.1409577000886,0.0002747001126408577,0.09816509997472167,363.1407699000556,6.014678499894217,363.3075320001226,363.3075320001226,0.05443449993617833,0.1648742000106722,6.031300699803978,369.4409517000895,369.4409517000895,369.4409517000895,0.08696319977752864,0.19822929985821247,375.140859000152,375.34085309994407,6.031243399716914,6.1313374997116625,381.34089170000516,12.031331799924374,381.47422119998373,381.47422119998373,0.031561599811539054,0.1312833996489644,up,2.2121383999474347,383.7408954000566,4.579988308250904e-05,0.09799539996311069,389.74083269992843,389.74083269992843,0.005259199999272823,0.09803309990093112,3.0,2.8604122998658568,,,,,,,381.44086199998856,381.44086199998856,6.09788929997012,,389.74083269992843,,369.30757219996303,369.30757219996303,3419,Moral,2025-02-04_13h30.29.340,MoralCondition_v2,2022.2.5,29.985546974991944,
5,0,5,0,1,0,1,0,,,,,,,,,,,,,,,,,,,,,,,,,,,,,,,,,,,,,,,,,,,,,,,,,,,,392.64069480006583,392.64069480006583,0.008008199976757169,0.09810459986329079,5.0,3.024378400063142,,,,,,,,,,,,,,,3419,Moral,2025-02-04_13h30.29.340,MoralCondition_v2,2022.2.5,29.985546974991944,
5,0,5,0,2,0,2,0,,,,,,,,,,,,,,,,,,,,,,,,,,,,,,,,,,,,,,,,,,,,,,,,,,,,395.72432860010304,395.72432860010304,0.008115200093016028,0.11433000001125038,5.0,2.6901701998431236,,,,,,,,,,,,,,,3419,Moral,2025-02-04_13h30.29.340,MoralCondition_v2,2022.2.5,29.985546974991944,
5,0,5,0,3,0,3,0,,,,,,,,,,,,,,,,,,,,,,,,,,,,,,,,,,,,,,,,,,,,,,,,,,,,398.45730399992317,398.45730399992317,0.005785999819636345,0.0993549998383969,3.0,3.9617971000261605,,,,,,,,,,,,,,,3419,Moral,2025-02-04_13h30.29.340,MoralCondition_v2,2022.2.5,29.985546974991944,
5,0,5,0,4,0,4,0,,,,,,,,,,,,,,,,,,,,,,,,,,,,,,,,,,,,,,,,,,,,,,,,,,,,402.4574573999271,402.4574573999271,0.007757399929687381,0.09800260001793504,3.0,2.4245929000899196,,,,,,,,,,,,,,,3419,Moral,2025-02-04_13h30.29.340,MoralCondition_v2,2022.2.5,29.985546974991944,
5,0,5,0,5,0,5,0,,,,,,,,,,,,,,,,,,,,,,,,,,,,,,,,,,,,,,,,,,,,,,,,,,,,404.9408350000158,404.9408350000158,0.008519199909642339,0.11431069998070598,2.0,2.139989099930972,,,,,,,,,,,,,,,3419,Moral,2025-02-04_13h30.29.340,MoralCondition_v2,2022.2.5,29.985546974991944,
5,0,5,0,6,0,6,0,,,,,,,,,,,,,,,,,,,,,,,,,,,,,,,,,,,,,,,,,,,,,,,,,,,,407.10747219994664,407.10747219994664,0.0066425001714378595,0.09890980017371476,3.0,3.693568699993193,,,,,,,,,,,,,,,3419,Moral,2025-02-04_13h30.29.340,MoralCondition_v2,2022.2.5,29.985546974991944,
5,0,5,0,,,,,,,,,,,,,,,,,,,,,,,,,,,,,,,,,,,,,,,,,,,,,,,,,,,,,,,,,,,,,,410.84077190002427,410.84077190002427,0.0018551000393927097,0.0979234001133591,3.0,4.830197199946269,,,,,,,,,3419,Moral,2025-02-04_13h30.29.340,MoralCondition_v2,2022.2.5,29.985546974991944,
6,0,6,0,0,0,0,0,,,,,,,,,,,,,,,,,,,,,,415.7075118999928,0.00042470009066164494,0.09762050001882017,421.70747300004587,6.030987600097433,421.89078349992633,421.89078349992633,0.07568689994513988,0.18116070004180074,6.014483999926597,427.99069870007224,427.99069870007224,427.99069870007224,0.07203619997017086,0.18114489992149174,433.6908055001404,433.8907958001364,6.014336899854243,6.114238099893555,439.89076330000535,12.014495199779049,440.02410749997944,440.02410749997944,0.014474099734798074,0.11412189970724285,down,0.8623484999407083,440.9240906999912,4.710000939667225e-05,0.0976821999065578,446.94120640004985,446.94120640004985,0.02613509981893003,0.11431049997918308,5.0,4.189249399816617,,,,,,,439.99077160004526,439.99077160004526,,,,,427.89085069997236,427.89085069997236,3419,Moral,2025-02-04_13h30.29.340,MoralCondition_v2,2022.2.5,29.985546974991944,
6,0,6,0,1,0,1,0,,,,,,,,,,,,,,,,,,,,,,,,,,,,,,,,,,,,,,,,,,,,,,,,,,,,451.1740993000567,451.1740993000567,0.006804200122132897,0.09922110009938478,5.0,1.8935271000955254,,,,,,,,,,,,,,,3419,Moral,2025-02-04_13h30.29.340,MoralCondition_v2,2022.2.5,29.985546974991944,
6,0,6,0,2,0,2,0,,,,,,,,,,,,,,,,,,,,,,,,,,,,,,,,,,,,,,,,,,,,,,,,,,,,453.107394099934,453.107394099934,0.008395600132644176,0.09898730018176138,2.0,2.858877700055018,,,,,,,,,,,,,,,3419,Moral,2025-02-04_13h30.29.340,MoralCondition_v2,2022.2.5,29.985546974991944,
6,0,6,0,3,0,3,0,,,,,,,,,,,,,,,,,,,,,,,,,,,,,,,,,,,,,,,,,,,,,,,,,,,,456.0074748999905,456.0074748999905,0.006469399901106954,0.09917939989827573,1.0,2.293790200026706,,,,,,,,,,,,,,,3419,Moral,2025-02-04_13h30.29.340,MoralCondition_v2,2022.2.5,29.985546974991944,
6,0,6,0,4,0,4,0,,,,,,,,,,,,,,,,,,,,,,,,,,,,,,,,,,,,,,,,,,,,,,,,,,,,458.3577509999741,458.3577509999741,0.008888000156730413,0.1138818000908941,5.0,2.3062507999129593,,,,,,,,,,,,,,,3419,Moral,2025-02-04_13h30.29.340,MoralCondition_v2,2022.2.5,29.985546974991944,
6,0,6,0,5,0,5,0,,,,,,,,,,,,,,,,,,,,,,,,,,,,,,,,,,,,,,,,,,,,,,,,,,,,460.6905775000341,460.6905775000341,0.0063356999307870865,0.09927789983339608,5.0,2.027169300010428,,,,,,,,,,,,,,,3419,Moral,2025-02-04_13h30.29.340,MoralCondition_v2,2022.2.5,29.985546974991944,
6,0,6,0,6,0,6,0,,,,,,,,,,,,,,,,,,,,,,,,,,,,,,,,,,,,,,,,,,,,,,,,,,,,462.7740561000537,462.7740561000537,0.00780680007301271,0.11443060007877648,5.0,3.0406051001045853,,,,,,,,,,,,,,,3419,Moral,2025-02-04_13h30.29.340,MoralCondition_v2,2022.2.5,29.985546974991944,
6,0,6,0,,,,,,,,,,,,,,,,,,,,,,,,,,,,,,,,,,,,,,,,,,,,,,,,,,,,,,,,,,,,,,465.84062499995343,465.84062499995343,0.0018352000042796135,0.09789770003408194,2.0,3.897073200205341,,,,,,,,,3419,Moral,2025-02-04_13h30.29.340,MoralCondition_v2,2022.2.5,29.985546974991944,
7,0,7,0,0,0,0,0,,,,,,,,,,,,,,,,,,,,,,469.7743637000676,0.00014590006321668625,0.0991463998798281,475.7741179000586,5.999116699909791,475.9408257000614,475.9408257000614,0.06381139997392893,0.1660509998910129,5.9991182999219745,482.04091099998914,482.04091099998914,482.04091099998914,0.06282149977050722,0.16597119974903762,487.74062420008704,487.94058079994284,5.9991391997318715,6.099083799868822,493.94077300000936,11.999260899843648,494.07394360005856,494.07394360005856,-0.00028750021010637283,0.09885689965449274,up,1.404226299840957,495.5241020999383,4.700012505054474e-05,0.09798120008781552,501.5406196000986,501.5406196000986,0.009252500021830201,0.11451059998944402,3.0,2.4397048999089748,,,,,,,494.02379960007966,494.02379960007966,6.098961200099438,12.098926399834454,501.5406196000986,6.099138599820435,481.940643100068,481.940643100068,3419,Moral,2025-02-04_13h30.29.340,MoralCondition_v2,2022.2.5,29.985546974991944,
7,0,7,0,1,0,1,0,,,,,,,,,,,,,,,,,,,,,,,,,,,,,,,,,,,,,,,,,,,,,,,,,,,,504.0071566000115,504.0071566000115,0.007250900147482753,0.09761840011924505,5.0,2.657777799991891,,,,,,,,,,,,,,,3419,Moral,2025-02-04_13h30.29.340,MoralCondition_v2,2022.2.5,29.985546974991944,
7,0,7,0,2,0,2,0,,,,,,,,,,,,,,,,,,,,,,,,,,,,,,,,,,,,,,,,,,,,,,,,,,,,506.70739440014586,506.70739440014586,0.006922699976712465,0.09908690000884235,2.0,2.4933009000960737,,,,,,,,,,,,,,,3419,Moral,2025-02-04_13h30.29.340,MoralCondition_v2,2022.2.5,29.985546974991944,
7,0,7,0,3,0,3,0,,,,,,,,,,,,,,,,,,,,,,,,,,,,,,,,,,,,,,,,,,,,,,,,,,,,509.24068229994737,509.24068229994737,0.007567900000140071,0.09752239985391498,2.0,3.5242826000321656,,,,,,,,,,,,,,,3419,Moral,2025-02-04_13h30.29.340,MoralCondition_v2,2022.2.5,29.985546974991944,
7,0,7,0,4,0,4,0,,,,,,,,,,,,,,,,,,,,,,,,,,,,,,,,,,,,,,,,,,,,,,,,,,,,512.8070471999235,512.8070471999235,0.007314099930226803,0.09715109993703663,5.0,2.1244153999723494,,,,,,,,,,,,,,,3419,Moral,2025-02-04_13h30.29.340,MoralCondition_v2,2022.2.5,29.985546974991944,
7,0,7,0,5,0,5,0,,,,,,,,,,,,,,,,,,,,,,,,,,,,,,,,,,,,,,,,,,,,,,,,,,,,514.9738563999999,514.9738563999999,0.007912100059911609,0.09785589994862676,1.0,3.0244430999737233,,,,,,,,,,,,,,,3419,Moral,2025-02-04_13h30.29.340,MoralCondition_v2,2022.2.5,29.985546974991944,
7,0,7,0,6,0,6,0,,,,,,,,,,,,,,,,,,,,,,,,,,,,,,,,,,,,,,,,,,,,,,,,,,,,518.0404702001251,518.0404702001251,0.007853700080886483,0.0977366000879556,5.0,4.591053199954331,,,,,,,,,,,,,,,3419,Moral,2025-02-04_13h30.29.340,MoralCondition_v2,2022.2.5,29.985546974991944,
7,0,7,0,,,,,,,,,,,,,,,,,,,,,,,,,,,,,,,,,,,,,,,,,,,,,,,,,,,,,,,,,,,,,,522.6737963000778,522.6737963000778,0.001205699983984232,0.09796649985946715,6.0,2.965192399919033,,,,,,,,,3419,Moral,2025-02-04_13h30.29.340,MoralCondition_v2,2022.2.5,29.985546974991944,
8,0,8,0,0,0,0,0,,,,,,,,,,,,,,,,,,,,,,525.6739221999887,0.0001526998821645975,0.09923599986359477,531.6739338999614,5.999186399858445,531.8741568999831,531.8741568999831,0.09285279992036521,0.1992452999111265,5.999323799740523,537.9237238001078,537.9237238001078,537.9237238001078,0.04757339973002672,0.1491772998124361,543.6238363999873,543.8572015999816,6.015919299796224,6.115868999855593,549.8571325999219,12.01584369968623,549.9904477000237,549.9904477000237,0.016027999576181173,0.11581529956310987,down,0.7197353998199105,550.7571167999413,5.119992420077324e-05,0.0981789999641478,556.7907201000489,556.7907201000489,0.025609900010749698,0.13159510004334152,5.0,4.407066199928522,,,,,,,549.9237802000716,549.9237802000716,6.0993270999751985,,,6.099632199853659,537.9237238001078,537.9237238001078,3419,Moral,2025-02-04_13h30.29.340,MoralCondition_v2,2022.2.5,29.985546974991944,
8,0,8,0,1,0,1,0,,,,,,,,,,,,,,,,,,,,,,,,,,,,,,,,,,,,,,,,,,,,,,,,,,,,561.2235970001202,561.2235970001202,0.00675159995444119,0.09927239990793169,2.0,2.0275092001538724,,,,,,,,,,,,,,,3419,Moral,2025-02-04_13h30.29.340,MoralCondition_v2,2022.2.5,29.985546974991944,
8,0,8,0,2,0,2,0,,,,,,,,,,,,,,,,,,,,,,,,,,,,,,,,,,,,,,,,,,,,,,,,,,,,563.3071107999422,563.3071107999422,0.008149599889293313,0.11448229989036918,5.0,2.8406498001422733,,,,,,,,,,,,,,,3419,Moral,2025-02-04_13h30.29.340,MoralCondition_v2,2022.2.5,29.985546974991944,
8,0,8,0,3,0,3,0,,,,,,,,,,,,,,,,,,,,,,,,,,,,,,,,,,,,,,,,,,,,,,,,,,,,566.1905499999411,566.1905499999411,0.008361699990928173,0.1144705000333488,5.0,6.1071192000526935,,,,,,,,,,,,,,,3419,Moral,2025-02-04_13h30.29.340,MoralCondition_v2,2022.2.5,29.985546974991944,
8,0,8,0,4,0,4,0,,,,,,,,,,,,,,,,,,,,,,,,,,,,,,,,,,,,,,,,,,,,,,,,,,,,572.3403801000677,572.3403801000677,0.010147300083190203,0.11446910002268851,5.0,3.605481500038877,,,,,,,,,,,,,,,3419,Moral,2025-02-04_13h30.29.340,MoralCondition_v2,2022.2.5,29.985546974991944,
8,0,8,0,5,0,5,0,,,,,,,,,,,,,,,,,,,,,,,,,,,,,,,,,,,,,,,,,,,,,,,,,,,,575.9736329999287,575.9736329999287,0.006652000127360225,0.09921439993195236,2.0,2.0270746999885887,,,,,,,,,,,,,,,3419,Moral,2025-02-04_13h30.29.340,MoralCondition_v2,2022.2.5,29.985546974991944,
8,0,8,0,6,0,6,0,,,,,,,,,,,,,,,,,,,,,,,,,,,,,,,,,,,,,,,,,,,,,,,,,,,,578.0572995000985,578.0572995000985,0.007835600059479475,0.11387849994935095,3.0,5.940962800057605,,,,,,,,,,,,,,,3419,Moral,2025-02-04_13h30.29.340,MoralCondition_v2,2022.2.5,29.985546974991944,
8,0,8,0,,,,,,,,,,,,,,,,,,,,,,,,,,,,,,,,,,,,,,,,,,,,,,,,,,,,,,,,,,,,,,584.0239526000805,584.0239526000805,0.0006876999977976084,0.09913980006240308,2.0,3.3994989001657814,,,,,,,,,3419,Moral,2025-02-04_13h30.29.340,MoralCondition_v2,2022.2.5,29.985546974991944,
9,0,9,0,0,0,0,0,,,,,,,,,,,,,,,,,,,,,,587.457157399971,0.00038849981501698494,0.09758309996686876,593.4569876999594,6.030686799902469,593.6738281000871,593.6738281000871,0.10269739991053939,0.21426349971443415,6.01424409984611,599.7402197001502,599.7402197001502,599.7402197001502,0.07268709968775511,0.18067329982295632,605.4404073001351,605.6403886999469,6.014283799799159,6.11398069979623,611.6403878999408,12.014094799757004,611.7736154999584,611.7736154999584,0.014151899609714746,0.11395229957997799,up,1.2883895998820662,613.1069441,4.0800077840685844e-05,0.09789830003865063,619.1067721000873,619.1067721000873,0.01069859997369349,0.09799599996767938,3.0,9.988082500174642,,,,,,,611.7402812000364,611.7402812000364,,,619.1067721000873,,,,3419,Moral,2025-02-04_13h30.29.340,MoralCondition_v2,2022.2.5,29.985546974991944,
9,0,9,0,1,0,1,0,,,,,,,,,,,,,,,,,,,,,,,,,,,,,,,,,,,,,,,,,,,,,,,,,,,,629.1570192999206,629.1570192999206,0.009456600062549114,0.11376850004307926,3.0,3.905072799883783,,,,,,,,,,,,,,,3419,Moral,2025-02-04_13h30.29.340,MoralCondition_v2,2022.2.5,29.985546974991944,
9,0,9,0,2,0,2,0,,,,,,,,,,,,,,,,,,,,,,,,,,,,,,,,,,,,,,,,,,,,,,,,,,,,633.0903177999426,633.0903177999426,0.0076563002075999975,0.09782420005649328,3.0,1.2247449001297355,,,,,,,,,,,,,,,3419,Moral,2025-02-04_13h30.29.340,MoralCondition_v2,2022.2.5,29.985546974991944,
9,0,9,0,3,0,3,0,,,,,,,,,,,,,,,,,,,,,,,,,,,,,,,,,,,,,,,,,,,,,,,,,,,,634.3568428999279,634.3568428999279,0.006631399970501661,0.0991695998236537,2.0,2.3268816999625415,,,,,,,,,,,,,,,3419,Moral,2025-02-04_13h30.29.340,MoralCondition_v2,2022.2.5,29.985546974991944,
9,0,9,0,4,0,4,0,,,,,,,,,,,,,,,,,,,,,,,,,,,,,,,,,,,,,,,,,,,,,,,,,,,,636.7236593000125,636.7236593000125,0.007219999795779586,0.09803019999526441,3.0,1.8919675000943244,,,,,,,,,,,,,,,3419,Moral,2025-02-04_13h30.29.340,MoralCondition_v2,2022.2.5,29.985546974991944,
9,0,9,0,5,0,5,0,,,,,,,,,,,,,,,,,,,,,,,,,,,,,,,,,,,,,,,,,,,,,,,,,,,,638.6567047999706,638.6567047999706,0.008342599961906672,0.09915909986011684,5.0,1.9583143000490963,,,,,,,,,,,,,,,3419,Moral,2025-02-04_13h30.29.340,MoralCondition_v2,2022.2.5,29.985546974991944,
9,0,9,0,6,0,6,0,,,,,,,,,,,,,,,,,,,,,,,,,,,,,,,,,,,,,,,,,,,,,,,,,,,,640.6567534999922,640.6567534999922,0.0075592000503093,0.09781700000166893,5.0,1.7579139999579638,,,,,,,,,,,,,,,3419,Moral,2025-02-04_13h30.29.340,MoralCondition_v2,2022.2.5,29.985546974991944,
9,0,9,0,,,,,,,,,,,,,,,,,,,,,,,,,,,,,,,,,,,,,,,,,,,,,,,,,,,,,,,,,,,,,,642.456951700151,642.456951700151,0.0013080998323857784,0.09795769979245961,6.0,4.797882799990475,,,,,,,,,3419,Moral,2025-02-04_13h30.29.340,MoralCondition_v2,2022.2.5,29.985546974991944,
10,0,10,0,0,0,0,0,,,,,,,,,,,,,,,,,,,,,,647.2903605999891,0.0002620001323521137,0.0976338000036776,653.2901832000352,6.031070000026375,653.4734551999718,653.4734551999718,0.0760196999181062,0.18111809995025396,6.0142844000365585,659.5734360001516,659.5734360001516,659.5734360001516,0.07487679994665086,0.18101489986293018,665.2734900000505,665.4734459000174,6.014312399784103,6.114231099840254,671.4733883999288,12.014260299969465,671.6068864001427,671.6068864001427,0.01425229967571795,0.11424429970793426,up,0.6552722998894751,672.3234339000192,4.819990135729313e-05,0.09765719994902611,678.340090499958,678.340090499958,0.009560699807479978,0.11443479987792671,2.0,2.472317600157112,,,,,,,671.5565692000091,671.5565692000091,,,678.340090499958,,659.4734747000039,659.4734747000039,3419,Moral,2025-02-04_13h30.29.340,MoralCondition_v2,2022.2.5,29.985546974991944,
10,0,10,0,1,0,1,0,,,,,,,,,,,,,,,,,,,,,,,,,,,,,,,,,,,,,,,,,,,,,,,,,,,,680.8399545000866,680.8399545000866,0.006948200054466724,0.09802090004086494,3.0,6.025638299994171,,,,,,,,,,,,,,,3419,Moral,2025-02-04_13h30.29.340,MoralCondition_v2,2022.2.5,29.985546974991944,
10,0,10,0,2,0,2,0,,,,,,,,,,,,,,,,,,,,,,,,,,,,,,,,,,,,,,,,,,,,,,,,,,,,686.9067049999721,686.9067049999721,0.006630899850279093,0.09947520005516708,5.0,7.527298399945721,,,,,,,,,,,,,,,3419,Moral,2025-02-04_13h30.29.340,MoralCondition_v2,2022.2.5,29.985546974991944,
10,0,10,0,3,0,3,0,,,,,,,,,,,,,,,,,,,,,,,,,,,,,,,,,,,,,,,,,,,,,,,,,,,,694.4731839001179,694.4731839001179,0.008385800058022141,0.09910810017026961,3.0,6.125123800011352,,,,,,,,,,,,,,,3419,Moral,2025-02-04_13h30.29.340,MoralCondition_v2,2022.2.5,29.985546974991944,
10,0,10,0,4,0,4,0,,,,,,,,,,,,,,,,,,,,,,,,,,,,,,,,,,,,,,,,,,,,,,,,,,,,700.6398742001038,700.6398742001038,0.007854599971324205,0.0977209999691695,3.0,2.0244120000861585,,,,,,,,,,,,,,,3419,Moral,2025-02-04_13h30.29.340,MoralCondition_v2,2022.2.5,29.985546974991944,
10,0,10,0,5,0,5,0,,,,,,,,,,,,,,,,,,,,,,,,,,,,,,,,,,,,,,,,,,,,,,,,,,,,702.7066047999542,702.7066047999542,0.007534600095823407,0.0975305000320077,5.0,1.957577400142327,,,,,,,,,,,,,,,3419,Moral,2025-02-04_13h30.29.340,MoralCondition_v2,2022.2.5,29.985546974991944,
10,0,10,0,6,0,6,0,,,,,,,,,,,,,,,,,,,,,,,,,,,,,,,,,,,,,,,,,,,,,,,,,,,,704.7067046000157,704.7067046000157,0.00767350010573864,0.09792950004339218,3.0,2.924784299917519,,,,,,,,,,,,,,,3419,Moral,2025-02-04_13h30.29.340,MoralCondition_v2,2022.2.5,29.985546974991944,
10,0,10,0,,,,,,,,,,,,,,,,,,,,,,,,,,,,,,,,,,,,,,,,,,,,,,,,,,,,,,,,,,,,,,707.6733429001179,707.6733429001179,0.0012552000116556883,0.09769789990969002,6.0,1.7310144000221044,,,,,,,,,3419,Moral,2025-02-04_13h30.29.340,MoralCondition_v2,2022.2.5,29.985546974991944,
11,0,11,0,0,0,0,0,,,,,,,,,,,,,,,,,,,,,,709.4401583001018,0.00044739991426467896,0.09707250003702939,715.4566011999268,6.013805099995807,715.640022699954,715.640022699954,0.08765589981339872,0.19737109984271228,6.030496099963784,721.7231368999928,721.7231368999928,721.7231368999928,0.06957809976302087,0.18069379986263812,727.423240599921,727.6232221000828,6.013756199739873,6.113819699734449,733.6230880999938,12.013576799770817,733.7565556000918,733.7565556000918,0.013911999762058258,0.11374239972792566,up,4.377007799921557,738.1731350000482,2.2200169041752815e-05,0.0991138000972569,744.2066401001066,744.2066401001066,0.027509700041264296,0.1324779000133276,2.0,2.5725825999397784,,,,,,,733.7232016001362,733.7232016001362,,,,,721.623176400084,721.623176400084,3419,Moral,2025-02-04_13h30.29.340,MoralCondition_v2,2022.2.5,29.985546974991944,
11,0,11,0,1,0,1,0,,,,,,,,,,,,,,,,,,,,,,,,,,,,,,,,,,,,,,,,,,,,,,,,,,,,746.8063837999944,746.8063837999944,0.008951200172305107,0.09924620017409325,5.0,2.4579102001152933,,,,,,,,,,,,,,,3419,Moral,2025-02-04_13h30.29.340,MoralCondition_v2,2022.2.5,29.985546974991944,
11,0,11,0,2,0,2,0,,,,,,,,,,,,,,,,,,,,,,,,,,,,,,,,,,,,,,,,,,,,,,,,,,,,749.3063483999576,749.3063483999576,0.007355600129812956,0.09792660013772547,5.0,2.958187900017947,,,,,,,,,,,,,,,3419,Moral,2025-02-04_13h30.29.340,MoralCondition_v2,2022.2.5,29.985546974991944,
11,0,11,0,3,0,3,0,,,,,,,,,,,,,,,,,,,,,,,,,,,,,,,,,,,,,,,,,,,,,,,,,,,,752.3234697999433,752.3234697999433,0.009302800055593252,0.11435379995964468,3.0,2.4392893000040203,,,,,,,,,,,,,,,3419,Moral,2025-02-04_13h30.29.340,MoralCondition_v2,2022.2.5,29.985546974991944,
11,0,11,0,4,0,4,0,,,,,,,,,,,,,,,,,,,,,,,,,,,,,,,,,,,,,,,,,,,,,,,,,,,,754.7898218000773,754.7898218000773,0.00740850018337369,0.0979698000010103,5.0,3.4916608000639826,,,,,,,,,,,,,,,3419,Moral,2025-02-04_13h30.29.340,MoralCondition_v2,2022.2.5,29.985546974991944,
11,0,11,0,5,0,5,0,,,,,,,,,,,,,,,,,,,,,,,,,,,,,,,,,,,,,,,,,,,,,,,,,,,,758.3233740001451,758.3233740001451,0.006534100044518709,0.09913860005326569,5.0,2.926794899860397,,,,,,,,,,,,,,,3419,Moral,2025-02-04_13h30.29.340,MoralCondition_v2,2022.2.5,29.985546974991944,
11,0,11,0,6,0,6,0,,,,,,,,,,,,,,,,,,,,,,,,,,,,,,,,,,,,,,,,,,,,,,,,,,,,761.29006020003,761.29006020003,0.008208699990063906,0.09707810007967055,2.0,2.5231816000305116,,,,,,,,,,,,,,,3419,Moral,2025-02-04_13h30.29.340,MoralCondition_v2,2022.2.5,29.985546974991944,
11,0,11,0,,,,,,,,,,,,,,,,,,,,,,,,,,,,,,,,,,,,,,,,,,,,,,,,,,,,,,,,,,,,,,763.8567296999972,763.8567296999972,0.001098899869248271,0.09843589994125068,3.0,2.4318562000989914,,,,,,,,,3419,Moral,2025-02-04_13h30.29.340,MoralCondition_v2,2022.2.5,29.985546974991944,
12,0,12,0,0,0,0,0,,,,,,,,,,,,,,,,,,,,,,766.3234514999203,0.00014389981515705585,0.09932799986563623,772.3397033000365,6.015705799916759,772.5062698000111,772.5062698000111,0.07760889991186559,0.18247619969770312,6.015864999732003,778.6064448000398,778.6064448000398,778.6064448000398,0.07304559973999858,0.1825879996176809,784.3063300000504,784.506336600054,6.015723699703813,6.115636099828407,790.5063466001302,12.015734899789095,790.6228100999724,790.6228100999724,0.015506499679759145,0.09896399965509772,up,1.7032555998302996,792.3729950999841,4.269997589290142e-05,0.09791769995354116,798.3897893000394,798.3897893000394,0.025404599960893393,0.11447779997251928,2.0,2.1902483000885695,,,,,,,790.6061505000107,790.6061505000107,,,,,778.5063924000133,778.5063924000133,3419,Moral,2025-02-04_13h30.29.340,MoralCondition_v2,2022.2.5,29.985546974991944,
12,0,12,0,1,0,1,0,,,,,,,,,,,,,,,,,,,,,,,,,,,,,,,,,,,,,,,,,,,,,,,,,,,,800.6228283999953,800.6228283999953,0.0072882999666035175,0.09927270002663136,3.0,3.1596446000039577,,,,,,,,,,,,,,,3419,Moral,2025-02-04_13h30.29.340,MoralCondition_v2,2022.2.5,29.985546974991944,
12,0,12,0,2,0,2,0,,,,,,,,,,,,,,,,,,,,,,,,,,,,,,,,,,,,,,,,,,,,,,,,,,,,803.8229588000104,803.8229588000104,0.007945199962705374,0.0977787000592798,5.0,1.5906238998286426,,,,,,,,,,,,,,,3419,Moral,2025-02-04_13h30.29.340,MoralCondition_v2,2022.2.5,29.985546974991944,
12,0,12,0,3,0,3,0,,,,,,,,,,,,,,,,,,,,,,,,,,,,,,,,,,,,,,,,,,,,,,,,,,,,805.4562317000236,805.4562317000236,0.006464600097388029,0.09915990009903908,3.0,1.8271018001250923,,,,,,,,,,,,,,,3419,Moral,2025-02-04_13h30.29.340,MoralCondition_v2,2022.2.5,29.985546974991944,
12,0,12,0,4,0,4,0,,,,,,,,,,,,,,,,,,,,,,,,,,,,,,,,,,,,,,,,,,,,,,,,,,,,807.3398416000418,807.3398416000418,0.008395599899813533,0.11461249995045364,3.0,3.3075013998895884,,,,,,,,,,,,,,,3419,Moral,2025-02-04_13h30.29.340,MoralCondition_v2,2022.2.5,29.985546974991944,
12,0,12,0,5,0,5,0,,,,,,,,,,,,,,,,,,,,,,,,,,,,,,,,,,,,,,,,,,,,,,,,,,,,810.6895765999798,810.6895765999798,0.010015000123530626,0.11426920001395047,2.0,1.7717110998928547,,,,,,,,,,,,,,,3419,Moral,2025-02-04_13h30.29.340,MoralCondition_v2,2022.2.5,29.985546974991944,
12,0,12,0,6,0,6,0,,,,,,,,,,,,,,,,,,,,,,,,,,,,,,,,,,,,,,,,,,,,,,,,,,,,812.4897199000698,812.4897199000698,0.007652100175619125,0.09768690005876124,5.0,2.7911745000164956,,,,,,,,,,,,,,,3419,Moral,2025-02-04_13h30.29.340,MoralCondition_v2,2022.2.5,29.985546974991944,
12,0,12,0,,,,,,,,,,,,,,,,,,,,,,,,,,,,,,,,,,,,,,,,,,,,,,,,,,,,,,,,,,,,,,815.3232323999982,815.3232323999982,0.0016009998507797718,0.09786950005218387,6.0,2.3973298999480903,,,,,,,,,3419,Moral,2025-02-04_13h30.29.340,MoralCondition_v2,2022.2.5,29.985546974991944,
13,0,13,0,0,0,0,0,,,,,,,,,,,,,,,,,,,,,,817.7565937000327,0.00014690007083117962,0.09933830006048083,823.7729885000736,6.015897599980235,823.9394257001113,823.9394257001113,0.08415269991382957,0.1826975999865681,6.015984199941158,830.0393374999985,830.0393374999985,830.0393374999985,0.0779660998377949,0.1825516999233514,835.7396191000007,835.9396148999222,6.01603929977864,6.115902599878609,841.939456900116,12.015866099856794,842.0728025999852,842.0728025999852,0.01604089979082346,0.1157993997912854,up,1.053299899911508,843.1728102001362,3.469991497695446e-05,0.09829310001805425,849.206079200143,849.206079200143,0.02555350004695356,0.13162100012414157,2.0,3.5739615000784397,,,,,,,842.0394834999461,842.0394834999461,,,,,829.9394984999672,829.9394984999672,3419,Moral,2025-02-04_13h30.29.340,MoralCondition_v2,2022.2.5,29.985546974991944,
13,0,13,0,1,0,1,0,,,,,,,,,,,,,,,,,,,,,,,,,,,,,,,,,,,,,,,,,,,,,,,,,,,,852.8060202000197,852.8060202000197,0.00734740006737411,0.09772610012441874,3.0,2.5916663999669254,,,,,,,,,,,,,,,3419,Moral,2025-02-04_13h30.29.340,MoralCondition_v2,2022.2.5,29.985546974991944,
13,0,13,0,2,0,2,0,,,,,,,,,,,,,,,,,,,,,,,,,,,,,,,,,,,,,,,,,,,,,,,,,,,,855.4394116001204,855.4394116001204,0.007520700106397271,0.09778179996646941,2.0,3.191293300129473,,,,,,,,,,,,,,,3419,Moral,2025-02-04_13h30.29.340,MoralCondition_v2,2022.2.5,29.985546974991944,
13,0,13,0,3,0,3,0,,,,,,,,,,,,,,,,,,,,,,,,,,,,,,,,,,,,,,,,,,,,,,,,,,,,858.6896468000486,858.6896468000486,0.008253700099885464,0.11430720007047057,2.0,2.8071952001191676,,,,,,,,,,,,,,,3419,Moral,2025-02-04_13h30.29.340,MoralCondition_v2,2022.2.5,29.985546974991944,
13,0,13,0,4,0,4,0,,,,,,,,,,,,,,,,,,,,,,,,,,,,,,,,,,,,,,,,,,,,,,,,,,,,861.5226348000579,861.5226348000579,0.006653500022366643,0.09905329998582602,5.0,2.927273999899626,,,,,,,,,,,,,,,3419,Moral,2025-02-04_13h30.29.340,MoralCondition_v2,2022.2.5,29.985546974991944,
13,0,13,0,5,0,5,0,,,,,,,,,,,,,,,,,,,,,,,,,,,,,,,,,,,,,,,,,,,,,,,,,,,,864.4894290000666,864.4894290000666,0.007285699946805835,0.09825560008175671,3.0,2.6918502000626177,,,,,,,,,,,,,,,3419,Moral,2025-02-04_13h30.29.340,MoralCondition_v2,2022.2.5,29.985546974991944,
13,0,13,0,6,0,6,0,,,,,,,,,,,,,,,,,,,,,,,,,,,,,,,,,,,,,,,,,,,,,,,,,,,,867.2227857999969,867.2227857999969,0.006819700123742223,0.09905280009843409,5.0,1.3932645998429507,,,,,,,,,,,,,,,3419,Moral,2025-02-04_13h30.29.340,MoralCondition_v2,2022.2.5,29.985546974991944,
13,0,13,0,,,,,,,,,,,,,,,,,,,,,,,,,,,,,,,,,,,,,,,,,,,,,,,,,,,,,,,,,,,,,,868.6563071999699,868.6563071999699,0.0016719999257475138,0.09767209994606674,6.0,1.8968475998844951,,,,,,,,,3419,Moral,2025-02-04_13h30.29.340,MoralCondition_v2,2022.2.5,29.985546974991944,
14,0,14,0,0,0,0,0,,,,,,,,,,,,,,,,,,,,,,870.5896173999645,0.0003529000096023083,0.09763099998235703,876.6059930999763,6.014253500150517,876.7893604000565,876.7893604000565,0.08630089997313917,0.19792629987932742,6.030908299842849,882.8892489001155,882.8892489001155,882.8892489001155,0.09497109986841679,0.19759139977395535,888.5892698001117,888.789504500106,6.031138699967414,6.130899099865928,894.7892337001394,12.030923999845982,894.9225987000391,894.9225987000391,0.03102429979480803,0.13084819982759655,down,1.2115219999104738,896.172622699989,4.4999876990914345e-05,0.09775769989937544,902.1726553000044,902.1726553000044,0.00727289984934032,0.09744209982454777,5.0,2.1247571001295,,,,,,,894.8892310000956,894.8892310000956,,,902.1726553000044,,882.7892911001109,882.7892911001109,3419,Moral,2025-02-04_13h30.29.340,MoralCondition_v2,2022.2.5,29.985546974991944,
14,0,14,0,1,0,1,0,,,,,,,,,,,,,,,,,,,,,,,,,,,,,,,,,,,,,,,,,,,,,,,,,,,,904.3391915999819,904.3391915999819,0.007376000052317977,0.09826690005138516,3.0,2.8251098000910133,,,,,,,,,,,,,,,3419,Moral,2025-02-04_13h30.29.340,MoralCondition_v2,2022.2.5,29.985546974991944,
14,0,14,0,2,0,2,0,,,,,,,,,,,,,,,,,,,,,,,,,,,,,,,,,,,,,,,,,,,,,,,,,,,,907.205878800014,907.205878800014,0.007680400041863322,0.0977167000528425,2.0,2.157993200002238,,,,,,,,,,,,,,,3419,Moral,2025-02-04_13h30.29.340,MoralCondition_v2,2022.2.5,29.985546974991944,
14,0,14,0,3,0,3,0,,,,,,,,,,,,,,,,,,,,,,,,,,,,,,,,,,,,,,,,,,,,,,,,,,,,909.4060398000292,909.4060398000292,0.0066674998961389065,0.09918190003372729,5.0,2.626995500177145,,,,,,,,,,,,,,,3419,Moral,2025-02-04_13h30.29.340,MoralCondition_v2,2022.2.5,29.985546974991944,
14,0,14,0,4,0,4,0,,,,,,,,,,,,,,,,,,,,,,,,,,,,,,,,,,,,,,,,,,,,,,,,,,,,912.0725555000827,912.0725555000827,0.006558800116181374,0.09931940003298223,3.0,3.4938791999593377,,,,,,,,,,,,,,,3419,Moral,2025-02-04_13h30.29.340,MoralCondition_v2,2022.2.5,29.985546974991944,
14,0,14,0,5,0,5,0,,,,,,,,,,,,,,,,,,,,,,,,,,,,,,,,,,,,,,,,,,,,,,,,,,,,915.6058513000607,915.6058513000607,0.007470799842849374,0.09767379984259605,5.0,2.3911452998872846,,,,,,,,,,,,,,,3419,Moral,2025-02-04_13h30.29.340,MoralCondition_v2,2022.2.5,29.985546974991944,
14,0,14,0,6,0,6,0,,,,,,,,,,,,,,,,,,,,,,,,,,,,,,,,,,,,,,,,,,,,,,,,,,,,918.0391868001316,918.0391868001316,0.007100800052285194,0.0985570999328047,1.0,3.292501099873334,,,,,,,,,,,,,,,3419,Moral,2025-02-04_13h30.29.340,MoralCondition_v2,2022.2.5,29.985546974991944,
14,0,14,0,,,,,,,,,,,,,,,,,,,,,,,,,,,,,,,,,,,,,,,,,,,,,,,,,,,,,,,,,,,,,,921.3724166001193,921.3724166001193,0.0005480998661369085,0.09935729997232556,2.0,2.500892600044608,,,,,,,,,3419,Moral,2025-02-04_13h30.29.340,MoralCondition_v2,2022.2.5,29.985546974991944,
15,0,15,0,0,0,0,0,,,,,,,,,,,,,,,,,,,,,,923.9059578999877,0.0002756998874247074,0.09818049985915422,929.922481900081,6.014764499850571,930.0889578999486,930.0889578999486,0.08267009980045259,0.181579299736768,6.014784099766985,936.1891576000489,936.1891576000489,936.1891576000489,0.07736529968678951,0.1815215996466577,941.8890693001449,942.0890935000498,6.014780699741095,6.11494669970125,948.0888563001063,12.014466899679974,948.2223803000525,948.2223803000525,0.01478099962696433,0.11470129969529808,up,1.511938099982217,949.7723725000396,1.71000137925148e-05,0.09922029986046255,955.8064208999276,955.8064208999276,0.02786309993825853,0.13261749991215765,5.0,3.0059128999710083,,,,,,,948.1722466000356,948.1722466000356,,,,,936.0892095000017,936.0892095000017,3419,Moral,2025-02-04_13h30.29.340,MoralCondition_v2,2022.2.5,29.985546974991944,
15,0,15,0,1,0,1,0,,,,,,,,,,,,,,,,,,,,,,,,,,,,,,,,,,,,,,,,,,,,,,,,,,,,958.8390323999338,958.8390323999338,0.00655940012075007,0.09897490008734167,3.0,2.2269091999623924,,,,,,,,,,,,,,,3419,Moral,2025-02-04_13h30.29.340,MoralCondition_v2,2022.2.5,29.985546974991944,
15,0,15,0,2,0,2,0,,,,,,,,,,,,,,,,,,,,,,,,,,,,,,,,,,,,,,,,,,,,,,,,,,,,961.1058706000913,961.1058706000913,0.005606400081887841,0.0983665999956429,5.0,2.194027799880132,,,,,,,,,,,,,,,3419,Moral,2025-02-04_13h30.29.340,MoralCondition_v2,2022.2.5,29.985546974991944,
15,0,15,0,3,0,3,0,,,,,,,,,,,,,,,,,,,,,,,,,,,,,,,,,,,,,,,,,,,,,,,,,,,,963.3388706999831,963.3388706999831,0.008290499914437532,0.09751569991931319,3.0,3.2903001999948174,,,,,,,,,,,,,,,3419,Moral,2025-02-04_13h30.29.340,MoralCondition_v2,2022.2.5,29.985546974991944,
15,0,15,0,4,0,4,0,,,,,,,,,,,,,,,,,,,,,,,,,,,,,,,,,,,,,,,,,,,,,,,,,,,,966.6724541999865,966.6724541999865,0.006756599992513657,0.09908180008642375,3.0,2.12661030003801,,,,,,,,,,,,,,,3419,Moral,2025-02-04_13h30.29.340,MoralCondition_v2,2022.2.5,29.985546974991944,
15,0,15,0,5,0,5,0,,,,,,,,,,,,,,,,,,,,,,,,,,,,,,,,,,,,,,,,,,,,,,,,,,,,968.8556574000977,968.8556574000977,0.007623299956321716,0.1142052998766303,5.0,1.7073522999417037,,,,,,,,,,,,,,,3419,Moral,2025-02-04_13h30.29.340,MoralCondition_v2,2022.2.5,29.985546974991944,
15,0,15,0,6,0,6,0,,,,,,,,,,,,,,,,,,,,,,,,,,,,,,,,,,,,,,,,,,,,,,,,,,,,970.5889078001492,970.5889078001492,0.00717219989746809,0.09784319996833801,2.0,1.758635900216177,,,,,,,,,,,,,,,3419,Moral,2025-02-04_13h30.29.340,MoralCondition_v2,2022.2.5,29.985546974991944,
15,0,15,0,,,,,,,,,,,,,,,,,,,,,,,,,,,,,,,,,,,,,,,,,,,,,,,,,,,,,,,,,,,,,,972.3890507000033,972.3890507000033,0.0006852999795228243,0.09933310002088547,3.0,3.7997548999264836,,,,,,,,,3419,Moral,2025-02-04_13h30.29.340,MoralCondition_v2,2022.2.5,29.985546974991944,
16,0,16,0,0,0,0,0,,,,,,,,,,,,,,,,,,,,,,976.2225820999593,0.0002544999588280916,0.0983853000216186,982.2054759000894,6.014736799988896,982.3889147001319,982.3889147001319,0.05902789975516498,0.1648432998917997,6.031687199836597,988.5223278999329,988.5223278999329,988.5223278999329,0.08756149979308248,0.19839969975873828,994.2222537000198,994.4222271000035,6.031481299782172,6.131635399768129,1000.4222057999577,12.031455099815503,1000.5556664001197,1000.5556664001197,0.031652799574658275,0.13146169972606003,up,1.0981479997280985,1001.688860299997,4.939991049468517e-05,0.09807200008071959,1007.7220978001133,1007.7220978001133,0.02638310007750988,0.13139190012589097,3.0,2.672816300066188,,,,,,,1000.522242099978,1000.522242099978,6.09802749985829,,,,988.3889645000454,988.3889645000454,3419,Moral,2025-02-04_13h30.29.340,MoralCondition_v2,2022.2.5,29.985546974991944,
16,0,16,0,1,0,1,0,,,,,,,,,,,,,,,,,,,,,,,,,,,,,,,,,,,,,,,,,,,,,,,,,,,,1010.4389237000141,1010.4389237000141,0.008566500153392553,0.11449200008064508,3.0,1.9404285999480635,,,,,,,,,,,,,,,3419,Moral,2025-02-04_13h30.29.340,MoralCondition_v2,2022.2.5,29.985546974991944,
16,0,16,0,2,0,2,0,,,,,,,,,,,,,,,,,,,,,,,,,,,,,,,,,,,,,,,,,,,,,,,,,,,,1012.4055181001313,1012.4055181001313,0.008122799918055534,0.09765970008447766,3.0,1.2574565999675542,,,,,,,,,,,,,,,3419,Moral,2025-02-04_13h30.29.340,MoralCondition_v2,2022.2.5,29.985546974991944,
16,0,16,0,3,0,3,0,,,,,,,,,,,,,,,,,,,,,,,,,,,,,,,,,,,,,,,,,,,,,,,,,,,,1013.7055001000408,1013.7055001000408,0.007899199845269322,0.09749610000289977,5.0,1.2242136001586914,,,,,,,,,,,,,,,3419,Moral,2025-02-04_13h30.29.340,MoralCondition_v2,2022.2.5,29.985546974991944,
16,0,16,0,4,0,4,0,,,,,,,,,,,,,,,,,,,,,,,,,,,,,,,,,,,,,,,,,,,,,,,,,,,,1014.9887677999213,1014.9887677999213,0.00881849997676909,0.114369299961254,3.0,1.9400317000690848,,,,,,,,,,,,,,,3419,Moral,2025-02-04_13h30.29.340,MoralCondition_v2,2022.2.5,29.985546974991944,
16,0,16,0,5,0,5,0,,,,,,,,,,,,,,,,,,,,,,,,,,,,,,,,,,,,,,,,,,,,,,,,,,,,1016.9556336000096,1016.9556336000096,0.006867199903354049,0.09921759995631874,3.0,1.6266645998694003,,,,,,,,,,,,,,,3419,Moral,2025-02-04_13h30.29.340,MoralCondition_v2,2022.2.5,29.985546974991944,
16,0,16,0,6,0,6,0,,,,,,,,,,,,,,,,,,,,,,,,,,,,,,,,,,,,,,,,,,,,,,,,,,,,1018.62214280013,1018.62214280013,0.006982600083574653,0.09906270005740225,2.0,1.4926755998749286,,,,,,,,,,,,,,,3419,Moral,2025-02-04_13h30.29.340,MoralCondition_v2,2022.2.5,29.985546974991944,
16,0,16,0,,,,,,,,,,,,,,,,,,,,,,,,,,,,,,,,,,,,,,,,,,,,,,,,,,,,,,,,,,,,,,1020.1554735000245,1020.1554735000245,0.0007029999978840351,0.09939000010490417,6.0,2.199900599895045,,,,,,,,,3419,Moral,2025-02-04_13h30.29.340,MoralCondition_v2,2022.2.5,29.985546974991944,
17,0,17,0,0,0,0,0,,,,,,,,,,,,,,,,,,,,,,1022.38878379995,0.0004407998640090227,0.09783359989523888,1028.3888065000065,6.031196399824694,1028.5718853001017,1028.5718853001017,0.07849189988337457,0.1809447999112308,6.014405899913982,1034.6552784000523,1034.6552784000523,1034.6552784000523,0.06577389966696501,0.16448849975131452,1040.35533270007,1040.5888292000163,6.031236499780789,6.131087299669161,1046.5888533999678,12.031295799650252,1046.72206680011,1046.72206680011,0.03127339971251786,0.1310579995624721,up,0.6434790997300297,1047.4220312000252,6.720004603266716e-05,0.09823519992642105,1053.4386320000049,1053.4386320000049,0.025974899996072054,0.11491320002824068,3.0,3.8567836000584066,,,,,,,1046.6553976000287,1046.6553976000287,,,,,1034.572125799954,1034.572125799954,3419,Moral,2025-02-04_13h30.29.340,MoralCondition_v2,2022.2.5,29.985546974991944,
17,0,17,0,1,0,1,0,,,,,,,,,,,,,,,,,,,,,,,,,,,,,,,,,,,,,,,,,,,,,,,,,,,,1057.3385628000833,1057.3385628000833,0.006901799933984876,0.09713879995979369,2.0,1.9248541998676956,,,,,,,,,,,,,,,3419,Moral,2025-02-04_13h30.29.340,MoralCondition_v2,2022.2.5,29.985546974991944,
17,0,17,0,2,0,2,0,,,,,,,,,,,,,,,,,,,,,,,,,,,,,,,,,,,,,,,,,,,,,,,,,,,,1059.3052872000262,1059.3052872000262,0.0070418999530375,0.09852719982154667,3.0,2.35919740004465,,,,,,,,,,,,,,,3419,Moral,2025-02-04_13h30.29.340,MoralCondition_v2,2022.2.5,29.985546974991944,
17,0,17,0,3,0,3,0,,,,,,,,,,,,,,,,,,,,,,,,,,,,,,,,,,,,,,,,,,,,,,,,,,,,1061.7053720001131,1061.7053720001131,0.007841600105166435,0.09779889998026192,2.0,2.324449799954891,,,,,,,,,,,,,,,3419,Moral,2025-02-04_13h30.29.340,MoralCondition_v2,2022.2.5,29.985546974991944,
17,0,17,0,4,0,4,0,,,,,,,,,,,,,,,,,,,,,,,,,,,,,,,,,,,,,,,,,,,,,,,,,,,,1064.072089200141,1064.072089200141,0.006715600145980716,0.099348200019449,5.0,1.5602810001000762,,,,,,,,,,,,,,,3419,Moral,2025-02-04_13h30.29.340,MoralCondition_v2,2022.2.5,29.985546974991944,
17,0,17,0,5,0,5,0,,,,,,,,,,,,,,,,,,,,,,,,,,,,,,,,,,,,,,,,,,,,,,,,,,,,1065.6718917000107,1065.6718917000107,0.007050599902868271,0.0990593999158591,3.0,1.7265625998843461,,,,,,,,,,,,,,,3419,Moral,2025-02-04_13h30.29.340,MoralCondition_v2,2022.2.5,29.985546974991944,
17,0,17,0,6,0,6,0,,,,,,,,,,,,,,,,,,,,,,,,,,,,,,,,,,,,,,,,,,,,,,,,,,,,1067.4386696000583,1067.4386696000583,0.00658539985306561,0.0993990998249501,3.0,2.026885899947956,,,,,,,,,,,,,,,3419,Moral,2025-02-04_13h30.29.340,MoralCondition_v2,2022.2.5,29.985546974991944,
17,0,17,0,,,,,,,,,,,,,,,,,,,,,,,,,,,,,,,,,,,,,,,,,,,,,,,,,,,,,,,,,,,,,,1069.5053459999617,1069.5053459999617,0.0014150000642985106,0.09728380013257265,6.0,1.7305900999344885,,,,,,,,,3419,Moral,2025-02-04_13h30.29.340,MoralCondition_v2,2022.2.5,29.985546974991944,
18,0,18,0,0,0,0,0,,,,,,,,,,,,,,,,,,,,,,1071.2723018999677,0.00015380000695586205,0.0993331999052316,1077.2719199000858,5.9992014998570085,1077.4384747000877,1077.4384747000877,0.06785199977457523,0.16609749989584088,5.999176999786869,1083.538616700098,1083.538616700098,1083.538616700098,0.0558954996522516,0.16589499963447452,1089.2385754999705,1089.4385029000696,5.999200399732217,6.09917139983736,1095.43862790009,11.999336399836466,1095.5718295001425,1095.5718295001425,8.399970829486847e-05,0.09914719965308905,up,1.4104315997101367,1097.0218474001158,3.0199997127056122e-05,0.09894450008869171,1103.0383703999687,1103.0383703999687,0.02157230000011623,0.11571180005557835,5.0,1.9949501999653876,,,,,,,1095.5385561001021,1095.5385561001021,6.099354299949482,12.099252099636942,,6.099263199837878,1083.4385586001445,1083.4385586001445,3419,Moral,2025-02-04_13h30.29.340,MoralCondition_v2,2022.2.5,29.985546974991944,
18,0,18,0,1,0,1,0,,,,,,,,,,,,,,,,,,,,,,,,,,,,,,,,,,,,,,,,,,,,,,,,,,,,1105.071791900089,1105.071791900089,0.007152199978008866,0.09840919985435903,5.0,2.1590553999412805,,,,,,,,,,,,,,,3419,Moral,2025-02-04_13h30.29.340,MoralCondition_v2,2022.2.5,29.985546974991944,
18,0,18,0,2,0,2,0,,,,,,,,,,,,,,,,,,,,,,,,,,,,,,,,,,,,,,,,,,,,,,,,,,,,1107.271615799982,1107.271615799982,0.006297799991443753,0.09923589997924864,2.0,3.160450699971989,,,,,,,,,,,,,,,3419,Moral,2025-02-04_13h30.29.340,MoralCondition_v2,2022.2.5,29.985546974991944,
18,0,18,0,3,0,3,0,,,,,,,,,,,,,,,,,,,,,,,,,,,,,,,,,,,,,,,,,,,,,,,,,,,,1110.4887834000401,1110.4887834000401,0.008366199908778071,0.11507969978265464,5.0,3.207966099958867,,,,,,,,,,,,,,,3419,Moral,2025-02-04_13h30.29.340,MoralCondition_v2,2022.2.5,29.985546974991944,
18,0,18,0,4,0,4,0,,,,,,,,,,,,,,,,,,,,,,,,,,,,,,,,,,,,,,,,,,,,,,,,,,,,1113.7385038000066,1113.7385038000066,0.007640300085768104,0.11412380007095635,5.0,2.4741879999637604,,,,,,,,,,,,,,,3419,Moral,2025-02-04_13h30.29.340,MoralCondition_v2,2022.2.5,29.985546974991944,
18,0,18,0,5,0,5,0,,,,,,,,,,,,,,,,,,,,,,,,,,,,,,,,,,,,,,,,,,,,,,,,,,,,1116.2387021000031,1116.2387021000031,0.007259000092744827,0.0980279000941664,3.0,3.0915330999996513,,,,,,,,,,,,,,,3419,Moral,2025-02-04_13h30.29.340,MoralCondition_v2,2022.2.5,29.985546974991944,
18,0,18,0,6,0,6,0,,,,,,,,,,,,,,,,,,,,,,,,,,,,,,,,,,,,,,,,,,,,,,,,,,,,1119.3719395999797,1119.3719395999797,0.0067622000351548195,0.0989030001219362,1.0,2.593497700057924,,,,,,,,,,,,,,,3419,Moral,2025-02-04_13h30.29.340,MoralCondition_v2,2022.2.5,29.985546974991944,
18,0,18,0,,,,,,,,,,,,,,,,,,,,,,,,,,,,,,,,,,,,,,,,,,,,,,,,,,,,,,,,,,,,,,1122.0051951999776,1122.0051951999776,0.0006833001971244812,0.09896980016492307,3.0,5.332834099885076,,,,,,,,,3419,Moral,2025-02-04_13h30.29.340,MoralCondition_v2,2022.2.5,29.985546974991944,
19,0,19,0,0,0,0,0,,,,,,,,,,,,,,,,,,,,,,1127.3721559999976,0.00015259999781847,0.09930030000396073,1133.3716937000863,5.999278099974617,1133.5381823999342,1133.5381823999342,0.060756399761885405,0.16604259982705116,5.999162299791351,1139.63848770014,1139.63848770014,1139.63848770014,0.05763379973359406,0.16602439968846738,1145.3383214999922,1145.5716454000212,6.032462299801409,6.132567099761218,1151.5716031999327,11.999161799671128,1151.6547797000967,1151.6547797000967,-0.000691000372171402,0.08253449969924986,up,1.4874556998256594,1153.1880707000382,4.1899969801306725e-05,0.09797969995997846,1159.2048933999613,1159.2048933999613,0.024246100103482604,0.11454669991508126,3.0,3.75803290004842,,,,,,,1151.6382363000885,1151.6382363000885,6.0991719998419285,12.098982899682596,,6.099134299904108,1139.5383143001236,1139.5383143001236,3419,Moral,2025-02-04_13h30.29.340,MoralCondition_v2,2022.2.5,29.985546974991944,
19,0,19,0,1,0,1,0,,,,,,,,,,,,,,,,,,,,,,,,,,,,,,,,,,,,,,,,,,,,,,,,,,,,1163.0218068999238,1163.0218068999238,0.008073299890384078,0.11425390001386404,3.0,2.173636600142345,,,,,,,,,,,,,,,3419,Moral,2025-02-04_13h30.29.340,MoralCondition_v2,2022.2.5,29.985546974991944,
19,0,19,0,2,0,2,0,,,,,,,,,,,,,,,,,,,,,,,,,,,,,,,,,,,,,,,,,,,,,,,,,,,,1165.238344399957,1165.238344399957,0.00771739985793829,0.11450399993918836,5.0,2.741009999997914,,,,,,,,,,,,,,,3419,Moral,2025-02-04_13h30.29.340,MoralCondition_v2,2022.2.5,29.985546974991944,
19,0,19,0,3,0,3,0,,,,,,,,,,,,,,,,,,,,,,,,,,,,,,,,,,,,,,,,,,,,,,,,,,,,1168.0049014000688,1168.0049014000688,0.007854500086978078,0.09788969997316599,2.0,2.057419699849561,,,,,,,,,,,,,,,3419,Moral,2025-02-04_13h30.29.340,MoralCondition_v2,2022.2.5,29.985546974991944,
19,0,19,0,4,0,4,0,,,,,,,,,,,,,,,,,,,,,,,,,,,,,,,,,,,,,,,,,,,,,,,,,,,,1170.1215512999333,1170.1215512999333,0.010958499973639846,0.1145477001555264,3.0,2.971285699866712,,,,,,,,,,,,,,,3419,Moral,2025-02-04_13h30.29.340,MoralCondition_v2,2022.2.5,29.985546974991944,
19,0,19,0,5,0,5,0,,,,,,,,,,,,,,,,,,,,,,,,,,,,,,,,,,,,,,,,,,,,,,,,,,,,1173.1216339000966,1173.1216339000966,0.00762429996393621,0.09783009998500347,6.0,4.191381399985403,,,,,,,,,,,,,,,3419,Moral,2025-02-04_13h30.29.340,MoralCondition_v2,2022.2.5,29.985546974991944,
19,0,19,0,6,0,6,0,,,,,,,,,,,,,,,,,,,,,,,,,,,,,,,,,,,,,,,,,,,,,,,,,,,,1177.354647600092,1177.354647600092,0.008070799987763166,0.09820110001601279,2.0,2.1910327998921275,,,,,,,,,,,,,,,3419,Moral,2025-02-04_13h30.29.340,MoralCondition_v2,2022.2.5,29.985546974991944,
19,0,19,0,,,,,,,,,,,,,,,,,,,,,,,,,,,,,,,,,,,,,,,,,,,,,,,,,,,,,,,,,,,,,,1179.588058799971,1179.588058799971,0.0014573000371456146,0.0975955999456346,6.0,2.1309207000304013,,,,,,,,,3419,Moral,2025-02-04_13h30.29.340,MoralCondition_v2,2022.2.5,29.985546974991944,
