loop.thisRepN,loop.thisTrialN,loop.thisN,loop.thisIndex,evaluate_all_emotions.thisRepN,evaluate_all_emotions.thisTrialN,evaluate_all_emotions.thisN,evaluate_all_emotions.thisIndex,sync_beep_1.started,p_port.started,p_port.stopped,sync_beep_1.stopped,sync_beep_2.started,sync_beep_2.stopped,sync_beep_3.started,sync_beep_4.started,baseline.started,p_port_2.started,p_port_2.stopped,baseline.stopped,p_port_3.started,Game_Start_Text.started,p_port_4.started,p_port_4.stopped,key_resp.started,key_resp.keys,key_resp.rt,fixation_cross.started,p_port_5.started,p_port_5.stopped,p_port_6.started,fixation_cross.stopped,player_image_intro.started,player_name_intro.started,p_port_7.started,p_port_7.stopped,p_port_8.started,player_image_offer.started,player_name_offer.started,proposed_split.started,p_port_9.started,p_port_9.stopped,proposed_split.stopped,accept_reject.started,p_port_15.started,p_port_15.stopped,p_port_10.started,accept_reject.stopped,arrow_instructions.started,offer_choice.started,p_port_11.started,p_port_11.stopped,offer_choice.keys,offer_choice.rt,Instructions_Affinity_Score.started,p_port_12.started,p_port_12.stopped,Emotion_Image.started,AffinityScore.started,p_port_13.started,p_port_13.stopped,AffinityScore.response,AffinityScore.rt,Instruction.started,Moral_Disgust_Score.started,p_port_14.started,p_port_14.stopped,Moral_Disgust_Score.response,Moral_Disgust_Score.rt,participant,session,date,expName,psychopyVersion,frameRate,
,,,,,,,,18.90810022647493,0.0008310996927320957,0.13746519992128015,19.22508870018646,19.508549790037797,19.82501639984548,20.12518329001032,20.7047876898665,21.041744300164282,0.0026633995585143566,0.12068729987367988,36.05851319991052,15.020781399682164,36.14198279986158,0.004198599606752396,0.13745819963514805,36.64186319988221,space,2.0064432001672685,,,,,,,,,,,,,,,,,,,,,,,,,,,,,,,,,,,,,,,,,,,3599,Moral,2024-11-20_14h32.54.226,MoralCondition_v2,2022.2.5,59.84927555154056,
0,0,0,0,0,0,0,0,,,,,,,,,,,,,,,,,,,,38.69199019996449,0.00041110021993517876,0.13305810000747442,5.999684300273657,44.725162600167096,45.024969100020826,45.024969100020826,0.18947929982095957,0.36634150007739663,5.99975850014016,51.025336999911815,51.025336999911815,51.025336999911815,0.09544789977371693,0.2663182998076081,56.75861010001972,56.89173510018736,5.999707799870521,6.132986099924892,11.999723100103438,62.925272199790925,63.02512770006433,63.02512770006433,0.03323589963838458,0.16636949963867664,up,2.8227162999100983,65.90857079997659,5.570007488131523e-05,0.13048719987273216,71.95845809997991,71.95845809997991,0.043946399819105864,0.18046149984002113,3.0,9.887511200271547,,,,,,,3599,Moral,2024-11-20_14h32.54.226,MoralCondition_v2,2022.2.5,59.84927555154056,
0,0,0,0,1,0,1,0,,,,,,,,,,,,,,,,,,,,,,,,,,,,,,,,,,,,,,,,,,,,,,,,,,81.89184320019558,81.89184320019558,0.01091929990798235,0.14702139981091022,1.0,5.370483899954706,,,,,,,3599,Moral,2024-11-20_14h32.54.226,MoralCondition_v2,2022.2.5,59.84927555154056,
0,0,0,0,2,0,2,0,,,,,,,,,,,,,,,,,,,,,,,,,,,,,,,,,,,,,,,,,,,,,,,,,,87.30847040005028,87.30847040005028,0.01210859976708889,0.148038599640131,1.0,2.63687239959836,,,,,,,3599,Moral,2024-11-20_14h32.54.226,MoralCondition_v2,2022.2.5,59.84927555154056,
0,0,0,0,3,0,3,0,,,,,,,,,,,,,,,,,,,,,,,,,,,,,,,,,,,,,,,,,,,,,,,,,,89.99194379989058,89.99194379989058,0.011558200232684612,0.1478711999952793,1.0,2.0375489997677505,,,,,,,3599,Moral,2024-11-20_14h32.54.226,MoralCondition_v2,2022.2.5,59.84927555154056,
0,0,0,0,4,0,4,0,,,,,,,,,,,,,,,,,,,,,,,,,,,,,,,,,,,,,,,,,,,,,,,,,,92.07524710008875,92.07524710008875,0.010211700107902288,0.1471633999608457,1.0,1.8710972000844777,,,,,,,3599,Moral,2024-11-20_14h32.54.226,MoralCondition_v2,2022.2.5,59.84927555154056,
0,0,0,0,5,0,5,0,,,,,,,,,,,,,,,,,,,,,,,,,,,,,,,,,,,,,,,,,,,,,,,,,,93.97496849996969,93.97496849996969,0.008273799903690815,0.13236379995942116,6.0,6.691934100352228,,,,,,,3599,Moral,2024-11-20_14h32.54.226,MoralCondition_v2,2022.2.5,59.84927555154056,
0,0,0,0,6,0,6,0,,,,,,,,,,,,,,,,,,,,,,,,,,,,,,,,,,,,,,,,,,,,,,,,,,100.7253088997677,100.7253088997677,0.00990170007571578,0.1490525002591312,1.0,3.273523800075054,,,,,,,3599,Moral,2024-11-20_14h32.54.226,MoralCondition_v2,2022.2.5,59.84927555154056,
0,0,0,0,,,,,,,,,,,,,,,,,,,,,,,,,,,,,,,,,,,,,,,,,,,,,,,,,,,,,,,,,,,,104.02515550004318,104.02515550004318,0.0019720997661352158,0.13082859991118312,6.0,6.663281999994069,3599,Moral,2024-11-20_14h32.54.226,MoralCondition_v2,2022.2.5,59.84927555154056,
1,0,1,0,0,0,0,0,,,,,,,,,,,,,,,,,,,,110.7251292001456,0.00014699995517730713,0.1325211999937892,6.032469899859279,116.75837269984186,116.99166359985247,116.99166359985247,0.16349339997395873,0.29915119986981153,5.999094099737704,123.02506039990112,123.02506039990112,123.02506039990112,0.09104709979146719,0.2325845998711884,128.75827520014718,128.9251439999789,5.999057199805975,6.132402399554849,11.999046199955046,134.95852749980986,135.0583592997864,135.0583592997864,0.032577999867498875,0.1657206998206675,down,1.9097261000424623,137.0250137001276,4.990026354789734e-05,0.13137330021709204,143.0585296000354,143.0585296000354,0.02606220031157136,0.16481330012902617,1.0,5.973006200045347,,,,,,,3599,Moral,2024-11-20_14h32.54.226,MoralCondition_v2,2022.2.5,59.84927555154056,
1,0,1,0,1,0,1,0,,,,,,,,,,,,,,,,,,,,,,,,,,,,,,,,,,,,,,,,,,,,,,,,,,149.05841800011694,149.05841800011694,0.006655300036072731,0.13244309974834323,6.0,6.526757299900055,,,,,,,3599,Moral,2024-11-20_14h32.54.226,MoralCondition_v2,2022.2.5,59.84927555154056,
1,0,1,0,2,0,2,0,,,,,,,,,,,,,,,,,,,,,,,,,,,,,,,,,,,,,,,,,,,,,,,,,,155.6419966001995,155.6419966001995,0.007933299988508224,0.14771129982545972,7.0,3.3738591000437737,,,,,,,3599,Moral,2024-11-20_14h32.54.226,MoralCondition_v2,2022.2.5,59.84927555154056,
1,0,1,0,3,0,3,0,,,,,,,,,,,,,,,,,,,,,,,,,,,,,,,,,,,,,,,,,,,,,,,,,,159.0415729000233,159.0415729000233,0.007204500027000904,0.13081469992175698,5.0,4.924743699841201,,,,,,,3599,Moral,2024-11-20_14h32.54.226,MoralCondition_v2,2022.2.5,59.84927555154056,
1,0,1,0,4,0,4,0,,,,,,,,,,,,,,,,,,,,,,,,,,,,,,,,,,,,,,,,,,,,,,,,,,164.00830570003018,164.00830570003018,0.006573500111699104,0.1323800003156066,5.0,2.8267907998524606,,,,,,,3599,Moral,2024-11-20_14h32.54.226,MoralCondition_v2,2022.2.5,59.84927555154056,
1,0,1,0,5,0,5,0,,,,,,,,,,,,,,,,,,,,,,,,,,,,,,,,,,,,,,,,,,,,,,,,,,166.89178489986807,166.89178489986807,0.008534600026905537,0.14800010016188025,3.0,8.507043399848044,,,,,,,3599,Moral,2024-11-20_14h32.54.226,MoralCondition_v2,2022.2.5,59.84927555154056,
1,0,1,0,6,0,6,0,,,,,,,,,,,,,,,,,,,,,,,,,,,,,,,,,,,,,,,,,,,,,,,,,,175.42493059998378,175.42493059998378,0.005606099963188171,0.13254699995741248,5.0,5.527774000074714,,,,,,,3599,Moral,2024-11-20_14h32.54.226,MoralCondition_v2,2022.2.5,59.84927555154056,
1,0,1,0,,,,,,,,,,,,,,,,,,,,,,,,,,,,,,,,,,,,,,,,,,,,,,,,,,,,,,,,,,,,180.99176019988954,180.99176019988954,0.000709600280970335,0.13253220031037927,3.0,4.133100300095975,3599,Moral,2024-11-20_14h32.54.226,MoralCondition_v2,2022.2.5,59.84927555154056,
2,0,2,0,0,0,0,0,,,,,,,,,,,,,,,,,,,,185.15854519978166,0.00015850039198994637,0.13260090025141835,6.0159459002316,191.1749986000359,191.39132629986852,191.39132629986852,0.12853580014780164,0.26588950026780367,5.99921469995752,197.45830139983445,197.45830139983445,197.45830139983445,0.08838400011882186,0.23281149985268712,203.19151329994202,203.35821219999343,5.999220300000161,6.1324557000771165,11.999209300149232,209.3915309999138,209.49163600010797,209.49163600010797,0.03276690002530813,0.16584639996290207,up,2.2279272000305355,211.77491569984704,4.2300205677747726e-05,0.1310594999231398,217.80816299980506,217.80816299980506,0.025557800196111202,0.16444069985300303,1.0,4.0398411001078784,,,,,,,3599,Moral,2024-11-20_14h32.54.226,MoralCondition_v2,2022.2.5,59.84927555154056,
2,0,2,0,1,0,1,0,,,,,,,,,,,,,,,,,,,,,,,,,,,,,,,,,,,,,,,,,,,,,,,,,,221.8747085998766,221.8747085998766,0.006934999953955412,0.13241440011188388,1.0,1.059834299609065,,,,,,,3599,Moral,2024-11-20_14h32.54.226,MoralCondition_v2,2022.2.5,59.84927555154056,
2,0,2,0,2,0,2,0,,,,,,,,,,,,,,,,,,,,,,,,,,,,,,,,,,,,,,,,,,,,,,,,,,222.97488320013508,222.97488320013508,0.006838000379502773,0.13184950035065413,1.0,0.9261890999041498,,,,,,,3599,Moral,2024-11-20_14h32.54.226,MoralCondition_v2,2022.2.5,59.84927555154056,
2,0,2,0,3,0,3,0,,,,,,,,,,,,,,,,,,,,,,,,,,,,,,,,,,,,,,,,,,,,,,,,,,223.94151839986444,223.94151839986444,0.006704899948090315,0.1324201002717018,6.0,2.8268415997736156,,,,,,,3599,Moral,2024-11-20_14h32.54.226,MoralCondition_v2,2022.2.5,59.84927555154056,
2,0,2,0,4,0,4,0,,,,,,,,,,,,,,,,,,,,,,,,,,,,,,,,,,,,,,,,,,,,,,,,,,226.80813420005143,226.80813420005143,0.007513599935919046,0.13128909980878234,2.0,4.458106699865311,,,,,,,3599,Moral,2024-11-20_14h32.54.226,MoralCondition_v2,2022.2.5,59.84927555154056,
2,0,2,0,5,0,5,0,,,,,,,,,,,,,,,,,,,,,,,,,,,,,,,,,,,,,,,,,,,,,,,,,,231.32476679980755,231.32476679980755,0.008248199708759785,0.14719709986820817,1.0,2.7400350999087095,,,,,,,3599,Moral,2024-11-20_14h32.54.226,MoralCondition_v2,2022.2.5,59.84927555154056,
2,0,2,0,6,0,6,0,,,,,,,,,,,,,,,,,,,,,,,,,,,,,,,,,,,,,,,,,,,,,,,,,,234.09165749978274,234.09165749978274,0.006845700088888407,0.13266950007528067,1.0,1.3599702003411949,,,,,,,3599,Moral,2024-11-20_14h32.54.226,MoralCondition_v2,2022.2.5,59.84927555154056,
2,0,2,0,,,,,,,,,,,,,,,,,,,,,,,,,,,,,,,,,,,,,,,,,,,,,,,,,,,,,,,,,,,,235.49162459978834,235.49162459978834,0.0013451999984681606,0.13075429992750287,6.0,2.5974584999494255,3599,Moral,2024-11-20_14h32.54.226,MoralCondition_v2,2022.2.5,59.84927555154056,
3,0,3,0,0,0,0,0,,,,,,,,,,,,,,,,,,,,238.12502680020407,0.00013489974662661552,0.11563199991360307,6.01571760000661,244.12466080021113,244.4080205000937,244.4080205000937,0.16728699952363968,0.3158213999122381,6.015808399766684,250.4082510001026,250.4082510001026,250.4082510001026,0.06909809960052371,0.21582759963348508,256.1413922999054,256.30807550018653,6.015805799514055,6.149090899620205,12.015741899609566,262.3414151999168,262.441398399882,262.441398399882,0.01611569942906499,0.14911059942096472,down,1.982065100222826,264.458074899856,3.150012344121933e-05,0.13142939982935786,270.5081135001965,270.5081135001965,0.04349570022895932,0.18144880002364516,7.0,4.8054666998796165,,,,,,,3599,Moral,2024-11-20_14h32.54.226,MoralCondition_v2,2022.2.5,59.84927555154056,
3,0,3,0,1,0,1,0,,,,,,,,,,,,,,,,,,,,,,,,,,,,,,,,,,,,,,,,,,,,,,,,,,275.3413953999989,275.3413953999989,0.006880899891257286,0.1326057999394834,6.0,6.626762799918652,,,,,,,3599,Moral,2024-11-20_14h32.54.226,MoralCondition_v2,2022.2.5,59.84927555154056,
3,0,3,0,2,0,2,0,,,,,,,,,,,,,,,,,,,,,,,,,,,,,,,,,,,,,,,,,,,,,,,,,,282.02494079992175,282.02494079992175,0.008583000395447016,0.1477928003296256,6.0,3.040059800259769,,,,,,,3599,Moral,2024-11-20_14h32.54.226,MoralCondition_v2,2022.2.5,59.84927555154056,
3,0,3,0,3,0,3,0,,,,,,,,,,,,,,,,,,,,,,,,,,,,,,,,,,,,,,,,,,,,,,,,,,285.10830859979615,285.10830859979615,0.009802200365811586,0.14707910036668181,4.0,4.2383323004469275,,,,,,,3599,Moral,2024-11-20_14h32.54.226,MoralCondition_v2,2022.2.5,59.84927555154056,
3,0,3,0,4,0,4,0,,,,,,,,,,,,,,,,,,,,,,,,,,,,,,,,,,,,,,,,,,,,,,,,,,289.39138580020517,289.39138580020517,0.008096400182694197,0.14801130024716258,6.0,4.10750799998641,,,,,,,3599,Moral,2024-11-20_14h32.54.226,MoralCondition_v2,2022.2.5,59.84927555154056,
3,0,3,0,5,0,5,0,,,,,,,,,,,,,,,,,,,,,,,,,,,,,,,,,,,,,,,,,,,,,,,,,,293.52469549980015,293.52469549980015,0.007323599886149168,0.13110409956425428,5.0,2.724766700062901,,,,,,,3599,Moral,2024-11-20_14h32.54.226,MoralCondition_v2,2022.2.5,59.84927555154056,
3,0,3,0,6,0,6,0,,,,,,,,,,,,,,,,,,,,,,,,,,,,,,,,,,,,,,,,,,,,,,,,,,296.29158619977534,296.29158619977534,0.007804000284522772,0.1309628002345562,1.0,3.057611099909991,,,,,,,3599,Moral,2024-11-20_14h32.54.226,MoralCondition_v2,2022.2.5,59.84927555154056,
3,0,3,0,,,,,,,,,,,,,,,,,,,,,,,,,,,,,,,,,,,,,,,,,,,,,,,,,,,,,,,,,,,,299.39145149989054,299.39145149989054,0.0006935000419616699,0.13261449988931417,3.0,3.999956099782139,3599,Moral,2024-11-20_14h32.54.226,MoralCondition_v2,2022.2.5,59.84927555154056,
4,0,4,0,0,0,0,0,,,,,,,,,,,,,,,,,,,,303.42495909985155,0.0002617998979985714,0.13139719981700182,6.014725999906659,309.4413641002029,309.60812960006297,309.60812960006297,0.0707449996843934,0.21475059958174825,6.014670999720693,315.70780610013753,315.70780610013753,315.70780610013753,0.06750949984416366,0.21467689983546734,321.4415684998967,321.64131940016523,6.014753099530935,6.148021299391985,12.014698299579322,327.6746180001646,327.7412971998565,327.7412971998565,0.014852199703454971,0.14796899957582355,down,1.418253700248897,329.20794080011547,4.6199653297662735e-05,0.13097769999876618,335.2414481001906,335.2414481001906,0.02527739992365241,0.16421879967674613,3.0,5.6400623000226915,,,,,,,3599,Moral,2024-11-20_14h32.54.226,MoralCondition_v2,2022.2.5,59.84927555154056,
4,0,4,0,1,0,1,0,,,,,,,,,,,,,,,,,,,,,,,,,,,,,,,,,,,,,,,,,,,,,,,,,,340.9078553998843,340.9078553998843,0.006537300068885088,0.13238490000367165,6.0,2.160185699816793,,,,,,,3599,Moral,2024-11-20_14h32.54.226,MoralCondition_v2,2022.2.5,59.84927555154056,
4,0,4,0,2,0,2,0,,,,,,,,,,,,,,,,,,,,,,,,,,,,,,,,,,,,,,,,,,,,,,,,,,343.1078833001666,343.1078833001666,0.006639000028371811,0.1323730000294745,5.0,3.093557700049132,,,,,,,3599,Moral,2024-11-20_14h32.54.226,MoralCondition_v2,2022.2.5,59.84927555154056,
4,0,4,0,3,0,3,0,,,,,,,,,,,,,,,,,,,,,,,,,,,,,,,,,,,,,,,,,,,,,,,,,,346.2412378001027,346.2412378001027,0.007030200213193893,0.13087749993428588,6.0,5.391570299863815,,,,,,,3599,Moral,2024-11-20_14h32.54.226,MoralCondition_v2,2022.2.5,59.84927555154056,
4,0,4,0,4,0,4,0,,,,,,,,,,,,,,,,,,,,,,,,,,,,,,,,,,,,,,,,,,,,,,,,,,351.6743936999701,351.6743936999701,0.007390599697828293,0.13165139965713024,1.0,2.392270699609071,,,,,,,3599,Moral,2024-11-20_14h32.54.226,MoralCondition_v2,2022.2.5,59.84927555154056,
4,0,4,0,5,0,5,0,,,,,,,,,,,,,,,,,,,,,,,,,,,,,,,,,,,,,,,,,,,,,,,,,,354.1078483997844,354.1078483997844,0.007375500164926052,0.13075670041143894,4.0,4.091067699715495,,,,,,,3599,Moral,2024-11-20_14h32.54.226,MoralCondition_v2,2022.2.5,59.84927555154056,
4,0,4,0,6,0,6,0,,,,,,,,,,,,,,,,,,,,,,,,,,,,,,,,,,,,,,,,,,,,,,,,,,358.24115009978414,358.24115009978414,0.007729100063443184,0.1311539001762867,5.0,3.024466299917549,,,,,,,3599,Moral,2024-11-20_14h32.54.226,MoralCondition_v2,2022.2.5,59.84927555154056,
4,0,4,0,,,,,,,,,,,,,,,,,,,,,,,,,,,,,,,,,,,,,,,,,,,,,,,,,,,,,,,,,,,,361.30781600018963,361.30781600018963,0.000668100081384182,0.13258600002154708,3.0,4.9998474000021815,3599,Moral,2024-11-20_14h32.54.226,MoralCondition_v2,2022.2.5,59.84927555154056,
5,0,5,0,0,0,0,0,,,,,,,,,,,,,,,,,,,,366.34116409998387,0.00024109985679388046,0.13196829985827208,6.031865899916738,372.37460900004953,372.5243103001267,372.5243103001267,0.0774097996763885,0.21518259961158037,6.015180299524218,378.62460590014234,378.62460590014234,378.62460590014234,0.07635039975866675,0.21524829976260662,384.3578082998283,384.55780160008,6.01515969960019,6.148493299726397,12.015118799638003,390.59110270021483,390.6577941002324,390.6577941002324,0.015305199660360813,0.14847979974001646,up,1.782362800091505,392.49147679982707,4.039984196424484e-05,0.13099549990147352,398.52458949992433,398.52458949992433,0.0256288000382483,0.16421830002218485,1.0,5.006140900310129,,,,,,,3599,Moral,2024-11-20_14h32.54.226,MoralCondition_v2,2022.2.5,59.84927555154056,
5,0,5,0,1,0,1,0,,,,,,,,,,,,,,,,,,,,,,,,,,,,,,,,,,,,,,,,,,,,,,,,,,403.5744778001681,403.5744778001681,0.007624299731105566,0.14742569997906685,1.0,3.2072691000066698,,,,,,,3599,Moral,2024-11-20_14h32.54.226,MoralCondition_v2,2022.2.5,59.84927555154056,
5,0,5,0,2,0,2,0,,,,,,,,,,,,,,,,,,,,,,,,,,,,,,,,,,,,,,,,,,,,,,,,,,406.8246589000337,406.8246589000337,0.00814220029860735,0.14756710035726428,1.0,1.8070608000271022,,,,,,,3599,Moral,2024-11-20_14h32.54.226,MoralCondition_v2,2022.2.5,59.84927555154056,
5,0,5,0,3,0,3,0,,,,,,,,,,,,,,,,,,,,,,,,,,,,,,,,,,,,,,,,,,,,,,,,,,408.67462820000947,408.67462820000947,0.011145700234919786,0.1480432003736496,5.0,3.871754900086671,,,,,,,3599,Moral,2024-11-20_14h32.54.226,MoralCondition_v2,2022.2.5,59.84927555154056,
5,0,5,0,4,0,4,0,,,,,,,,,,,,,,,,,,,,,,,,,,,,,,,,,,,,,,,,,,,,,,,,,,412.5743623999879,412.5743623999879,0.0070279003120958805,0.1323683001101017,1.0,2.526169499848038,,,,,,,3599,Moral,2024-11-20_14h32.54.226,MoralCondition_v2,2022.2.5,59.84927555154056,
5,0,5,0,5,0,5,0,,,,,,,,,,,,,,,,,,,,,,,,,,,,,,,,,,,,,,,,,,,,,,,,,,415.1578832999803,415.1578832999803,0.00899739982560277,0.1473767999559641,1.0,1.0059058000333607,,,,,,,3599,Moral,2024-11-20_14h32.54.226,MoralCondition_v2,2022.2.5,59.84927555154056,
5,0,5,0,6,0,6,0,,,,,,,,,,,,,,,,,,,,,,,,,,,,,,,,,,,,,,,,,,,,,,,,,,416.1909468998201,416.1909468998201,0.0064905001781880856,0.13259200006723404,1.0,1.193857999984175,,,,,,,3599,Moral,2024-11-20_14h32.54.226,MoralCondition_v2,2022.2.5,59.84927555154056,
5,0,5,0,,,,,,,,,,,,,,,,,,,,,,,,,,,,,,,,,,,,,,,,,,,,,,,,,,,,,,,,,,,,417.42434290004894,417.42434290004894,0.0017999997362494469,0.130689499899745,6.0,5.463443899992853,3599,Moral,2024-11-20_14h32.54.226,MoralCondition_v2,2022.2.5,59.84927555154056,
6,0,6,0,0,0,0,0,,,,,,,,,,,,,,,,,,,,422.9246220001951,0.00027590012177824974,0.13081840006634593,6.030868300236762,428.9576477999799,429.12454870017245,429.12454870017245,0.09095830004662275,0.2308117002248764,6.0307571003213525,435.22442079987377,435.22442079987377,435.22442079987377,0.08918430004268885,0.2308113002218306,440.9576352997683,441.1243178001605,6.030842199921608,6.164092500228435,12.030754200182855,447.1576414001174,447.25763050001115,447.25763050001115,0.031076899729669094,0.16408309992402792,down,1.7100170003250241,449.02426300011575,4.700012505054474e-05,0.1312661999836564,455.0745092998259,455.0745092998259,0.04266629973426461,0.18106660014018416,6.0,4.672812900040299,,,,,,,3599,Moral,2024-11-20_14h32.54.226,MoralCondition_v2,2022.2.5,59.84927555154056,
6,0,6,0,1,0,1,0,,,,,,,,,,,,,,,,,,,,,,,,,,,,,,,,,,,,,,,,,,,,,,,,,,459.7911082999781,459.7911082999781,0.008094499818980694,0.14720379980280995,5.0,4.773778500035405,,,,,,,3599,Moral,2024-11-20_14h32.54.226,MoralCondition_v2,2022.2.5,59.84927555154056,
6,0,6,0,2,0,2,0,,,,,,,,,,,,,,,,,,,,,,,,,,,,,,,,,,,,,,,,,,,,,,,,,,464.5909027000889,464.5909027000889,0.007663600146770477,0.13098759995773435,1.0,2.5578348999843,,,,,,,3599,Moral,2024-11-20_14h32.54.226,MoralCondition_v2,2022.2.5,59.84927555154056,
6,0,6,0,3,0,3,0,,,,,,,,,,,,,,,,,,,,,,,,,,,,,,,,,,,,,,,,,,,,,,,,,,467.1907104002312,467.1907104002312,0.006995399948209524,0.1325897998176515,6.0,3.5265200999565423,,,,,,,3599,Moral,2024-11-20_14h32.54.226,MoralCondition_v2,2022.2.5,59.84927555154056,
6,0,6,0,4,0,4,0,,,,,,,,,,,,,,,,,,,,,,,,,,,,,,,,,,,,,,,,,,,,,,,,,,470.75754750007764,470.75754750007764,0.0058327000588178635,0.13231160026043653,5.0,2.494365599937737,,,,,,,3599,Moral,2024-11-20_14h32.54.226,MoralCondition_v2,2022.2.5,59.84927555154056,
6,0,6,0,5,0,5,0,,,,,,,,,,,,,,,,,,,,,,,,,,,,,,,,,,,,,,,,,,,,,,,,,,473.3077985998243,473.3077985998243,0.008567099925130606,0.1478116000071168,5.0,1.4732645000331104,,,,,,,3599,Moral,2024-11-20_14h32.54.226,MoralCondition_v2,2022.2.5,59.84927555154056,
6,0,6,0,6,0,6,0,,,,,,,,,,,,,,,,,,,,,,,,,,,,,,,,,,,,,,,,,,,,,,,,,,474.8241643998772,474.8241643998772,0.009462099988013506,0.14766979962587357,6.0,5.506099999882281,,,,,,,3599,Moral,2024-11-20_14h32.54.226,MoralCondition_v2,2022.2.5,59.84927555154056,
6,0,6,0,,,,,,,,,,,,,,,,,,,,,,,,,,,,,,,,,,,,,,,,,,,,,,,,,,,,,,,,,,,,480.3575985999778,480.3575985999778,0.0006471001543104649,0.13228300027549267,3.0,4.599549499806017,3599,Moral,2024-11-20_14h32.54.226,MoralCondition_v2,2022.2.5,59.84927555154056,
7,0,7,0,0,0,0,0,,,,,,,,,,,,,,,,,,,,484.99109400017187,0.00031899986788630486,0.13105650013312697,6.031030800193548,491.0241121998988,491.1907223002054,491.1907223002054,0.08512039994820952,0.23136759968474507,6.031086199916899,497.2909369999543,497.2909369999543,497.2909369999543,0.08591010002419353,0.23103149980306625,503.02407409995794,503.1907572997734,6.031034199986607,6.1643212996423244,12.031122399959713,509.2240726999007,509.3241914999671,509.3241914999671,0.031162299681454897,0.1642711996100843,up,1.435708800330758,510.807435200084,4.409998655319214e-05,0.1311574997380376,516.8406608998775,516.8406608998775,0.027049999684095383,0.16421489976346493,2.0,3.4048385000787675,,,,,,,3599,Moral,2024-11-20_14h32.54.226,MoralCondition_v2,2022.2.5,59.84927555154056,
7,0,7,0,1,0,1,0,,,,,,,,,,,,,,,,,,,,,,,,,,,,,,,,,,,,,,,,,,,,,,,,,,520.2739912997931,520.2739912997931,0.00799230020493269,0.13109289994463325,2.0,2.390555700287223,,,,,,,3599,Moral,2024-11-20_14h32.54.226,MoralCondition_v2,2022.2.5,59.84927555154056,
7,0,7,0,2,0,2,0,,,,,,,,,,,,,,,,,,,,,,,,,,,,,,,,,,,,,,,,,,,,,,,,,,522.7071850001812,522.7071850001812,0.007544899825006723,0.13122159987688065,1.0,1.5244475002400577,,,,,,,3599,Moral,2024-11-20_14h32.54.226,MoralCondition_v2,2022.2.5,59.84927555154056,
7,0,7,0,3,0,3,0,,,,,,,,,,,,,,,,,,,,,,,,,,,,,,,,,,,,,,,,,,,,,,,,,,524.2740206001326,524.2740206001326,0.0065284003503620625,0.13247270043939352,1.0,0.7939093997702003,,,,,,,3599,Moral,2024-11-20_14h32.54.226,MoralCondition_v2,2022.2.5,59.84927555154056,
7,0,7,0,4,0,4,0,,,,,,,,,,,,,,,,,,,,,,,,,,,,,,,,,,,,,,,,,,,,,,,,,,525.1243401998654,525.1243401998654,0.009079399984329939,0.1472379001788795,6.0,2.272515899967402,,,,,,,3599,Moral,2024-11-20_14h32.54.226,MoralCondition_v2,2022.2.5,59.84927555154056,
7,0,7,0,5,0,5,0,,,,,,,,,,,,,,,,,,,,,,,,,,,,,,,,,,,,,,,,,,,,,,,,,,527.4242143998854,527.4242143998854,0.007777299731969833,0.13097319984808564,1.0,2.224310299847275,,,,,,,3599,Moral,2024-11-20_14h32.54.226,MoralCondition_v2,2022.2.5,59.84927555154056,
7,0,7,0,6,0,6,0,,,,,,,,,,,,,,,,,,,,,,,,,,,,,,,,,,,,,,,,,,,,,,,,,,529.6907059000805,529.6907059000805,0.006873200181871653,0.1315594003535807,1.0,1.2260413998737931,,,,,,,3599,Moral,2024-11-20_14h32.54.226,MoralCondition_v2,2022.2.5,59.84927555154056,
7,0,7,0,,,,,,,,,,,,,,,,,,,,,,,,,,,,,,,,,,,,,,,,,,,,,,,,,,,,,,,,,,,,530.9574698000215,530.9574698000215,0.0006958995945751667,0.13269009999930859,6.0,2.8329830998554826,3599,Moral,2024-11-20_14h32.54.226,MoralCondition_v2,2022.2.5,59.84927555154056,
8,0,8,0,0,0,0,0,,,,,,,,,,,,,,,,,,,,533.8239921000786,0.0003435998223721981,0.13127159979194403,6.014624099712819,539.8406424000859,540.0239189998247,540.0239189998247,0.08603989984840155,0.23124729981645942,6.031249199528247,546.1240464998409,546.1240464998409,546.1240464998409,0.08370479941368103,0.23142159963026643,551.8576345001347,552.0239021000452,6.031293399631977,6.16468649962917,12.031154599506408,558.0572315999307,558.1572862998582,558.1572862998582,0.03142309933900833,0.16449759947136045,down,1.3070968999527395,559.5238764998503,4.569999873638153e-05,0.13132760021835566,565.540432699956,565.540432699956,0.02473870012909174,0.14796710014343262,5.0,4.290820000227541,,,,,,,3599,Moral,2024-11-20_14h32.54.226,MoralCondition_v2,2022.2.5,59.84927555154056,
8,0,8,0,1,0,1,0,,,,,,,,,,,,,,,,,,,,,,,,,,,,,,,,,,,,,,,,,,,,,,,,,,569.8906375002116,569.8906375002116,0.008067400194704533,0.14772569993510842,6.0,2.273821599781513,,,,,,,3599,Moral,2024-11-20_14h32.54.226,MoralCondition_v2,2022.2.5,59.84927555154056,
8,0,8,0,2,0,2,0,,,,,,,,,,,,,,,,,,,,,,,,,,,,,,,,,,,,,,,,,,,,,,,,,,572.1905967998318,572.1905967998318,0.006692399736493826,0.13273319974541664,6.0,2.6268425001762807,,,,,,,3599,Moral,2024-11-20_14h32.54.226,MoralCondition_v2,2022.2.5,59.84927555154056,
8,0,8,0,3,0,3,0,,,,,,,,,,,,,,,,,,,,,,,,,,,,,,,,,,,,,,,,,,,,,,,,,,574.8571003000252,574.8571003000252,0.0064237997867167,0.13251850008964539,6.0,1.4604156003333628,,,,,,,3599,Moral,2024-11-20_14h32.54.226,MoralCondition_v2,2022.2.5,59.84927555154056,
8,0,8,0,4,0,4,0,,,,,,,,,,,,,,,,,,,,,,,,,,,,,,,,,,,,,,,,,,,,,,,,,,576.3571898997761,576.3571898997761,0.006655900273472071,0.13247920013964176,1.0,2.760681400075555,,,,,,,3599,Moral,2024-11-20_14h32.54.226,MoralCondition_v2,2022.2.5,59.84927555154056,
8,0,8,0,5,0,5,0,,,,,,,,,,,,,,,,,,,,,,,,,,,,,,,,,,,,,,,,,,,,,,,,,,579.1739599001594,579.1739599001594,0.010038299951702356,0.14738580025732517,6.0,3.8384787002578378,,,,,,,3599,Moral,2024-11-20_14h32.54.226,MoralCondition_v2,2022.2.5,59.84927555154056,
8,0,8,0,6,0,6,0,,,,,,,,,,,,,,,,,,,,,,,,,,,,,,,,,,,,,,,,,,,,,,,,,,583.0403513000347,583.0403513000347,0.007848299574106932,0.13129799999296665,6.0,3.82408000016585,,,,,,,3599,Moral,2024-11-20_14h32.54.226,MoralCondition_v2,2022.2.5,59.84927555154056,
8,0,8,0,,,,,,,,,,,,,,,,,,,,,,,,,,,,,,,,,,,,,,,,,,,,,,,,,,,,,,,,,,,,586.9072623001412,586.9072623001412,0.001312199980020523,0.13106509996578097,3.0,3.6978426999412477,3599,Moral,2024-11-20_14h32.54.226,MoralCondition_v2,2022.2.5,59.84927555154056,
9,0,9,0,0,0,0,0,,,,,,,,,,,,,,,,,,,,590.6406662999652,0.00013720011338591576,0.1157094999216497,6.015568000264466,596.6402545999736,596.8236882998608,596.8236882998608,0.06883239978924394,0.2158087999559939,6.015921399928629,602.9240096998401,602.9240096998401,602.9240096998401,0.06712540006265044,0.2157685998827219,608.6570942997932,608.8237367002293,6.015823099762201,6.14908259967342,12.015752699691802,614.8570317002013,614.95700389985,614.95700389985,0.01598939998075366,0.14909939980134368,down,1.5144446999765933,616.5236995997839,4.20999713242054e-05,0.11457660002633929,622.557174500078,622.557174500078,0.026305600069463253,0.16462499974295497,5.0,3.839398100040853,,,,,,,3599,Moral,2024-11-20_14h32.54.226,MoralCondition_v2,2022.2.5,59.84927555154056,
9,0,9,0,1,0,1,0,,,,,,,,,,,,,,,,,,,,,,,,,,,,,,,,,,,,,,,,,,,,,,,,,,626.4404263999313,626.4404263999313,0.007744699716567993,0.14741900004446507,1.0,2.640767600387335,,,,,,,3599,Moral,2024-11-20_14h32.54.226,MoralCondition_v2,2022.2.5,59.84927555154056,
9,0,9,0,2,0,2,0,,,,,,,,,,,,,,,,,,,,,,,,,,,,,,,,,,,,,,,,,,,,,,,,,,629.1070463000797,629.1070463000797,0.0074581000953912735,0.1311726002022624,6.0,2.858126299921423,,,,,,,3599,Moral,2024-11-20_14h32.54.226,MoralCondition_v2,2022.2.5,59.84927555154056,
9,0,9,0,3,0,3,0,,,,,,,,,,,,,,,,,,,,,,,,,,,,,,,,,,,,,,,,,,,,,,,,,,632.007071999833,632.007071999833,0.006536900065839291,0.13267940003424883,7.0,3.427194300107658,,,,,,,3599,Moral,2024-11-20_14h32.54.226,MoralCondition_v2,2022.2.5,59.84927555154056,
9,0,9,0,4,0,4,0,,,,,,,,,,,,,,,,,,,,,,,,,,,,,,,,,,,,,,,,,,,,,,,,,,635.4736204999499,635.4736204999499,0.007127200253307819,0.13136890018358827,3.0,3.525032600387931,,,,,,,3599,Moral,2024-11-20_14h32.54.226,MoralCondition_v2,2022.2.5,59.84927555154056,
9,0,9,0,5,0,5,0,,,,,,,,,,,,,,,,,,,,,,,,,,,,,,,,,,,,,,,,,,,,,,,,,,639.040345299989,639.040345299989,0.007453999947756529,0.13111509988084435,6.0,4.624683199916035,,,,,,,3599,Moral,2024-11-20_14h32.54.226,MoralCondition_v2,2022.2.5,59.84927555154056,
9,0,9,0,6,0,6,0,,,,,,,,,,,,,,,,,,,,,,,,,,,,,,,,,,,,,,,,,,,,,,,,,,643.7068552002311,643.7068552002311,0.006872899830341339,0.13281919993460178,4.0,3.8270231997594237,,,,,,,3599,Moral,2024-11-20_14h32.54.226,MoralCondition_v2,2022.2.5,59.84927555154056,
9,0,9,0,,,,,,,,,,,,,,,,,,,,,,,,,,,,,,,,,,,,,,,,,,,,,,,,,,,,,,,,,,,,647.5737115000375,647.5737115000375,0.000664799939841032,0.13279799977317452,3.0,3.7332953000441194,3599,Moral,2024-11-20_14h32.54.226,MoralCondition_v2,2022.2.5,59.84927555154056,
10,0,10,0,0,0,0,0,,,,,,,,,,,,,,,,,,,,651.340479100123,0.00037499982863664627,0.1306663998402655,6.01396289980039,657.3568724999204,657.5234745000489,657.5234745000489,0.07645829999819398,0.21399699989706278,6.013959500007331,663.6236177999526,663.6236177999526,663.6236177999526,0.07603129977360368,0.21396909980103374,669.3568301000632,669.5567906000651,6.013952999841422,6.148053999990225,12.013903100043535,675.5901248999871,675.6570083000697,675.6570083000697,0.014136099722236395,0.13052969984710217,down,2.798510900232941,678.4900309001096,3.169989213347435e-05,0.13127180002629757,684.5404476998374,684.5404476998374,0.04275280004367232,0.18127809977158904,2.0,3.506529300007969,,,,,,,3599,Moral,2024-11-20_14h32.54.226,MoralCondition_v2,2022.2.5,59.84927555154056,
10,0,10,0,1,0,1,0,,,,,,,,,,,,,,,,,,,,,,,,,,,,,,,,,,,,,,,,,,,,,,,,,,688.0732980999164,688.0732980999164,0.009879699908196926,0.13064279966056347,5.0,5.788351600058377,,,,,,,3599,Moral,2024-11-20_14h32.54.226,MoralCondition_v2,2022.2.5,59.84927555154056,
10,0,10,0,2,0,2,0,,,,,,,,,,,,,,,,,,,,,,,,,,,,,,,,,,,,,,,,,,,,,,,,,,693.923543700017,693.923543700017,0.007895800285041332,0.14772350015118718,5.0,2.2408932000398636,,,,,,,3599,Moral,2024-11-20_14h32.54.226,MoralCondition_v2,2022.2.5,59.84927555154056,
10,0,10,0,3,0,3,0,,,,,,,,,,,,,,,,,,,,,,,,,,,,,,,,,,,,,,,,,,,,,,,,,,696.1900408999063,696.1900408999063,0.007106400094926357,0.13153890008106828,4.0,2.325165200047195,,,,,,,3599,Moral,2024-11-20_14h32.54.226,MoralCondition_v2,2022.2.5,59.84927555154056,
10,0,10,0,4,0,4,0,,,,,,,,,,,,,,,,,,,,,,,,,,,,,,,,,,,,,,,,,,,,,,,,,,698.5567054999992,698.5567054999992,0.007205899804830551,0.13146049994975328,4.0,1.4253865000791848,,,,,,,3599,Moral,2024-11-20_14h32.54.226,MoralCondition_v2,2022.2.5,59.84927555154056,
10,0,10,0,5,0,5,0,,,,,,,,,,,,,,,,,,,,,,,,,,,,,,,,,,,,,,,,,,,,,,,,,,700.0401075999252,700.0401075999252,0.009123200085014105,0.14863339997828007,2.0,2.7073571998625994,,,,,,,3599,Moral,2024-11-20_14h32.54.226,MoralCondition_v2,2022.2.5,59.84927555154056,
10,0,10,0,6,0,6,0,,,,,,,,,,,,,,,,,,,,,,,,,,,,,,,,,,,,,,,,,,,,,,,,,,702.7735095000826,702.7735095000826,0.006593999918550253,0.13252220023423433,5.0,2.4952461002394557,,,,,,,3599,Moral,2024-11-20_14h32.54.226,MoralCondition_v2,2022.2.5,59.84927555154056,
10,0,10,0,,,,,,,,,,,,,,,,,,,,,,,,,,,,,,,,,,,,,,,,,,,,,,,,,,,,,,,,,,,,705.3068480999209,705.3068480999209,0.001635600347071886,0.13146870024502277,3.0,3.3642326002009213,3599,Moral,2024-11-20_14h32.54.226,MoralCondition_v2,2022.2.5,59.84927555154056,
11,0,11,0,0,0,0,0,,,,,,,,,,,,,,,,,,,,708.7068905001506,0.00035319989547133446,0.13073490001261234,6.014020999893546,714.723187699914,714.9065649998374,714.9065649998374,0.08787239994853735,0.23088280018419027,6.030675299931318,721.0066363001242,721.0066363001242,721.0066363001242,0.08477710001170635,0.23073439998552203,726.7398940999992,726.9066189001314,6.030751300044358,6.1640276000835,12.030705299694091,732.9399354998022,733.0399151998572,733.0399151998572,0.030819099862128496,0.1640812996774912,up,1.3197818999178708,734.423217699863,4.4700223952531815e-05,0.1314292000606656,740.4399211001582,740.4399211001582,0.02557830000296235,0.14805810013785958,1.0,3.2564996001310647,,,,,,,3599,Moral,2024-11-20_14h32.54.226,MoralCondition_v2,2022.2.5,59.84927555154056,
11,0,11,0,1,0,1,0,,,,,,,,,,,,,,,,,,,,,,,,,,,,,,,,,,,,,,,,,,,,,,,,,,743.7399817002006,743.7399817002006,0.00774569995701313,0.13098279992118478,2.0,2.757242000196129,,,,,,,3599,Moral,2024-11-20_14h32.54.226,MoralCondition_v2,2022.2.5,59.84927555154056,
11,0,11,0,2,0,2,0,,,,,,,,,,,,,,,,,,,,,,,,,,,,,,,,,,,,,,,,,,,,,,,,,,746.5398778999224,746.5398778999224,0.007775400299578905,0.13093130011111498,6.0,2.8242490999400616,,,,,,,3599,Moral,2024-11-20_14h32.54.226,MoralCondition_v2,2022.2.5,59.84927555154056,
11,0,11,0,3,0,3,0,,,,,,,,,,,,,,,,,,,,,,,,,,,,,,,,,,,,,,,,,,,,,,,,,,749.4065343998373,749.4065343998373,0.007581999991089106,0.1310665002092719,1.0,1.791257900185883,,,,,,,3599,Moral,2024-11-20_14h32.54.226,MoralCondition_v2,2022.2.5,59.84927555154056,
11,0,11,0,4,0,4,0,,,,,,,,,,,,,,,,,,,,,,,,,,,,,,,,,,,,,,,,,,,,,,,,,,751.2399641000666,751.2399641000666,0.007432399783283472,0.13130709994584322,1.0,1.058354299981147,,,,,,,3599,Moral,2024-11-20_14h32.54.226,MoralCondition_v2,2022.2.5,59.84927555154056,
11,0,11,0,5,0,5,0,,,,,,,,,,,,,,,,,,,,,,,,,,,,,,,,,,,,,,,,,,,,,,,,,,752.3396948999725,752.3396948999725,0.006534900050610304,0.13263410003855824,1.0,1.7940566996112466,,,,,,,3599,Moral,2024-11-20_14h32.54.226,MoralCondition_v2,2022.2.5,59.84927555154056,
11,0,11,0,6,0,6,0,,,,,,,,,,,,,,,,,,,,,,,,,,,,,,,,,,,,,,,,,,,,,,,,,,754.1731444997713,754.1731444997713,0.007358400151133537,0.13120310008525848,4.0,3.791512300260365,,,,,,,3599,Moral,2024-11-20_14h32.54.226,MoralCondition_v2,2022.2.5,59.84927555154056,
11,0,11,0,,,,,,,,,,,,,,,,,,,,,,,,,,,,,,,,,,,,,,,,,,,,,,,,,,,,,,,,,,,,758.0064705000259,758.0064705000259,0.0006663999520242214,0.13239539973437786,6.0,2.5997005999088287,3599,Moral,2024-11-20_14h32.54.226,MoralCondition_v2,2022.2.5,59.84927555154056,
12,0,12,0,0,0,0,0,,,,,,,,,,,,,,,,,,,,760.6400586999953,0.0002633999101817608,0.13126499997451901,6.031229599844664,766.6731107998639,766.906209200155,766.906209200155,0.1558733000420034,0.2980296998284757,6.031205900013447,772.9228627001867,772.9228627001867,772.9228627001867,0.0811528000049293,0.2145277000963688,778.6564210001379,778.8564010001719,6.014354299753904,6.147811699658632,12.014321099966764,784.8897035000846,784.9563930002041,784.9563930002041,0.01465129991993308,0.14780839998275042,up,1.2271734001114964,786.2396943001077,4.650000482797623e-05,0.1314312000758946,792.2732381001115,792.2732381001115,0.02801290014758706,0.1646871999837458,1.0,2.604358999989927,,,,,,,3599,Moral,2024-11-20_14h32.54.226,MoralCondition_v2,2022.2.5,59.84927555154056,
12,0,12,0,1,0,1,0,,,,,,,,,,,,,,,,,,,,,,,,,,,,,,,,,,,,,,,,,,,,,,,,,,794.9231301997788,794.9231301997788,0.008353800047188997,0.14734600018709898,1.0,1.306551800109446,,,,,,,3599,Moral,2024-11-20_14h32.54.226,MoralCondition_v2,2022.2.5,59.84927555154056,
12,0,12,0,2,0,2,0,,,,,,,,,,,,,,,,,,,,,,,,,,,,,,,,,,,,,,,,,,,,,,,,,,796.2563010999002,796.2563010999002,0.007262500002980232,0.13174779992550611,1.0,0.9252905999310315,,,,,,,3599,Moral,2024-11-20_14h32.54.226,MoralCondition_v2,2022.2.5,59.84927555154056,
12,0,12,0,3,0,3,0,,,,,,,,,,,,,,,,,,,,,,,,,,,,,,,,,,,,,,,,,,,,,,,,,,797.2229337999597,797.2229337999597,0.008955299854278564,0.13283689972013235,6.0,3.191644399892539,,,,,,,3599,Moral,2024-11-20_14h32.54.226,MoralCondition_v2,2022.2.5,59.84927555154056,
12,0,12,0,4,0,4,0,,,,,,,,,,,,,,,,,,,,,,,,,,,,,,,,,,,,,,,,,,,,,,,,,,800.4564004000276,800.4564004000276,0.006715700030326843,0.1325461999513209,1.0,2.1269996999762952,,,,,,,3599,Moral,2024-11-20_14h32.54.226,MoralCondition_v2,2022.2.5,59.84927555154056,
12,0,12,0,5,0,5,0,,,,,,,,,,,,,,,,,,,,,,,,,,,,,,,,,,,,,,,,,,,,,,,,,,802.6229383000173,802.6229383000173,0.006821199785917997,0.13158780010417104,5.0,2.5924014998599887,,,,,,,3599,Moral,2024-11-20_14h32.54.226,MoralCondition_v2,2022.2.5,59.84927555154056,
12,0,12,0,6,0,6,0,,,,,,,,,,,,,,,,,,,,,,,,,,,,,,,,,,,,,,,,,,,,,,,,,,805.2561932997778,805.2561932997778,0.0065481998026371,0.13270769966766238,3.0,4.760202299803495,,,,,,,3599,Moral,2024-11-20_14h32.54.226,MoralCondition_v2,2022.2.5,59.84927555154056,
12,0,12,0,,,,,,,,,,,,,,,,,,,,,,,,,,,,,,,,,,,,,,,,,,,,,,,,,,,,,,,,,,,,810.0565013000742,810.0565013000742,0.0007295999675989151,0.13246560003608465,6.0,3.0997226000763476,3599,Moral,2024-11-20_14h32.54.226,MoralCondition_v2,2022.2.5,59.84927555154056,
13,0,13,0,0,0,0,0,,,,,,,,,,,,,,,,,,,,813.1898679998703,0.000318900216370821,0.1311043999157846,6.0143975000828505,819.2062602997757,819.3730342001654,819.3730342001654,0.06936099985614419,0.21456110011786222,6.014428399968892,825.4729883000255,825.4729883000255,825.4729883000255,0.06978109991177917,0.214381099678576,831.2062470000237,831.4062362997793,6.01434879982844,6.147871899884194,12.014388099778444,837.4395126001909,837.5063233999535,837.5063233999535,0.014578299596905708,0.14768459973856807,down,1.989949899725616,839.5395212997682,4.700012505054474e-05,0.13115240028128028,845.5559204998426,845.5559204998426,0.023167500272393227,0.1477804002352059,5.0,3.3255453002639115,,,,,,,3599,Moral,2024-11-20_14h32.54.226,MoralCondition_v2,2022.2.5,59.84927555154056,
13,0,13,0,1,0,1,0,,,,,,,,,,,,,,,,,,,,,,,,,,,,,,,,,,,,,,,,,,,,,,,,,,848.939786999952,848.939786999952,0.007802300155162811,0.1476906999014318,5.0,1.8743250002153218,,,,,,,3599,Moral,2024-11-20_14h32.54.226,MoralCondition_v2,2022.2.5,59.84927555154056,
13,0,13,0,2,0,2,0,,,,,,,,,,,,,,,,,,,,,,,,,,,,,,,,,,,,,,,,,,,,,,,,,,850.8394968002103,850.8394968002103,0.007381100207567215,0.1312213004566729,5.0,2.95840339967981,,,,,,,3599,Moral,2024-11-20_14h32.54.226,MoralCondition_v2,2022.2.5,59.84927555154056,
13,0,13,0,3,0,3,0,,,,,,,,,,,,,,,,,,,,,,,,,,,,,,,,,,,,,,,,,,,,,,,,,,853.8395504001528,853.8395504001528,0.008358800318092108,0.130997100379318,1.0,2.390313799958676,,,,,,,3599,Moral,2024-11-20_14h32.54.226,MoralCondition_v2,2022.2.5,59.84927555154056,
13,0,13,0,4,0,4,0,,,,,,,,,,,,,,,,,,,,,,,,,,,,,,,,,,,,,,,,,,,,,,,,,,856.2729595000856,856.2729595000856,0.007641300093382597,0.13065769989043474,6.0,5.8242063000798225,,,,,,,3599,Moral,2024-11-20_14h32.54.226,MoralCondition_v2,2022.2.5,59.84927555154056,
13,0,13,0,5,0,5,0,,,,,,,,,,,,,,,,,,,,,,,,,,,,,,,,,,,,,,,,,,,,,,,,,,862.1397613999434,862.1397613999434,0.0074362000450491905,0.1311604999937117,6.0,1.2246012003161013,,,,,,,3599,Moral,2024-11-20_14h32.54.226,MoralCondition_v2,2022.2.5,59.84927555154056,
13,0,13,0,6,0,6,0,,,,,,,,,,,,,,,,,,,,,,,,,,,,,,,,,,,,,,,,,,,,,,,,,,863.4230650002137,863.4230650002137,0.008339900057762861,0.1481969002634287,5.0,2.840624500066042,,,,,,,3599,Moral,2024-11-20_14h32.54.226,MoralCondition_v2,2022.2.5,59.84927555154056,
13,0,13,0,,,,,,,,,,,,,,,,,,,,,,,,,,,,,,,,,,,,,,,,,,,,,,,,,,,,,,,,,,,,866.2894736002199,866.2894736002199,0.0014108000323176384,0.1310736001469195,3.0,2.3975965999998152,3599,Moral,2024-11-20_14h32.54.226,MoralCondition_v2,2022.2.5,59.84927555154056,
14,0,14,0,0,0,0,0,,,,,,,,,,,,,,,,,,,,868.7229606998153,0.00028669973835349083,0.1312178997322917,6.031143100000918,874.7560617001727,874.922798700165,874.922798700165,0.0847874996252358,0.23114619962871075,6.031249399762601,881.022846700158,881.022846700158,881.022846700158,0.08658199943602085,0.23110709944739938,886.7561375000514,886.922638699878,6.031091599725187,6.164565499406308,12.031213499605656,892.9559729998,893.0560813997872,893.0560813997872,0.031566799618303776,0.1643799995072186,up,2.1674168999306858,895.2726528998464,0.0001154998317360878,0.13146029971539974,901.28922590008,901.28922590008,0.02390489960089326,0.1478524999693036,2.0,3.1918323999270797,,,,,,,3599,Moral,2024-11-20_14h32.54.226,MoralCondition_v2,2022.2.5,59.84927555154056,
14,0,14,0,1,0,1,0,,,,,,,,,,,,,,,,,,,,,,,,,,,,,,,,,,,,,,,,,,,,,,,,,,904.5224326997995,904.5224326997995,0.00714460015296936,0.1314011998474598,1.0,1.6921171001158655,,,,,,,3599,Moral,2024-11-20_14h32.54.226,MoralCondition_v2,2022.2.5,59.84927555154056,
14,0,14,0,2,0,2,0,,,,,,,,,,,,,,,,,,,,,,,,,,,,,,,,,,,,,,,,,,,,,,,,,,906.255910300184,906.255910300184,0.006839599926024675,0.13242689985781908,4.0,2.6601602002047002,,,,,,,3599,Moral,2024-11-20_14h32.54.226,MoralCondition_v2,2022.2.5,59.84927555154056,
14,0,14,0,3,0,3,0,,,,,,,,,,,,,,,,,,,,,,,,,,,,,,,,,,,,,,,,,,,,,,,,,,908.9558815998025,908.9558815998025,0.007037299685180187,0.13167829997837543,1.0,2.3921940997242928,,,,,,,3599,Moral,2024-11-20_14h32.54.226,MoralCondition_v2,2022.2.5,59.84927555154056,
14,0,14,0,4,0,4,0,,,,,,,,,,,,,,,,,,,,,,,,,,,,,,,,,,,,,,,,,,,,,,,,,,911.389418200124,911.389418200124,0.006775899790227413,0.13227690011262894,1.0,0.9266642001457512,,,,,,,3599,Moral,2024-11-20_14h32.54.226,MoralCondition_v2,2022.2.5,59.84927555154056,
14,0,14,0,5,0,5,0,,,,,,,,,,,,,,,,,,,,,,,,,,,,,,,,,,,,,,,,,,,,,,,,,,912.3727756999433,912.3727756999433,0.009121899958699942,0.1474129999987781,6.0,2.306293699890375,,,,,,,3599,Moral,2024-11-20_14h32.54.226,MoralCondition_v2,2022.2.5,59.84927555154056,
14,0,14,0,6,0,6,0,,,,,,,,,,,,,,,,,,,,,,,,,,,,,,,,,,,,,,,,,,,,,,,,,,914.7058226000518,914.7058226000518,0.007952000014483929,0.13238029973581433,4.0,2.52532869996503,,,,,,,3599,Moral,2024-11-20_14h32.54.226,MoralCondition_v2,2022.2.5,59.84927555154056,
14,0,14,0,,,,,,,,,,,,,,,,,,,,,,,,,,,,,,,,,,,,,,,,,,,,,,,,,,,,,,,,,,,,917.2726266002283,917.2726266002283,0.000703700352460146,0.132430300116539,6.0,2.7328210999257863,3599,Moral,2024-11-20_14h32.54.226,MoralCondition_v2,2022.2.5,59.84927555154056,
15,0,15,0,0,0,0,0,,,,,,,,,,,,,,,,,,,,920.0394417000934,0.0001376001164317131,0.11570819979533553,5.999330699909478,926.0725734001026,926.2391550000757,926.2391550000757,0.0959850000217557,0.2325654998421669,5.99916879972443,932.3394941999577,932.3394941999577,932.3394941999577,0.09432989964261651,0.23278989968821406,938.07247429993,938.2391432002187,5.9992698999121785,6.132500099949539,11.999193899799138,944.2724871998653,944.3724985001609,944.3724985001609,0.032665399834513664,0.16591779980808496,down,1.6670198002830148,946.0891514997929,3.369990736246109e-05,0.13124279957264662,952.1393134999089,952.1393134999089,0.04296220000833273,0.18132549989968538,5.0,3.7726704999804497,,,,,,,3599,Moral,2024-11-20_14h32.54.226,MoralCondition_v2,2022.2.5,59.84927555154056,
15,0,15,0,1,0,1,0,,,,,,,,,,,,,,,,,,,,,,,,,,,,,,,,,,,,,,,,,,,,,,,,,,955.939052300062,955.939052300062,0.006591599900275469,0.13237190013751388,5.0,1.2935645999386907,,,,,,,3599,Moral,2024-11-20_14h32.54.226,MoralCondition_v2,2022.2.5,59.84927555154056,
15,0,15,0,2,0,2,0,,,,,,,,,,,,,,,,,,,,,,,,,,,,,,,,,,,,,,,,,,,,,,,,,,957.2725173998624,957.2725173998624,0.007944399956613779,0.13247970025986433,1.0,3.2257492002099752,,,,,,,3599,Moral,2024-11-20_14h32.54.226,MoralCondition_v2,2022.2.5,59.84927555154056,
15,0,15,0,3,0,3,0,,,,,,,,,,,,,,,,,,,,,,,,,,,,,,,,,,,,,,,,,,,,,,,,,,960.5390333998948,960.5390333998948,0.00666819978505373,0.13260670006275177,5.0,2.326844499912113,,,,,,,3599,Moral,2024-11-20_14h32.54.226,MoralCondition_v2,2022.2.5,59.84927555154056,
15,0,15,0,4,0,4,0,,,,,,,,,,,,,,,,,,,,,,,,,,,,,,,,,,,,,,,,,,,,,,,,,,962.9057836998254,962.9057836998254,0.006605600006878376,0.13245350029319525,4.0,3.1602365002036095,,,,,,,3599,Moral,2024-11-20_14h32.54.226,MoralCondition_v2,2022.2.5,59.84927555154056,
15,0,15,0,5,0,5,0,,,,,,,,,,,,,,,,,,,,,,,,,,,,,,,,,,,,,,,,,,,,,,,,,,966.1056718998589,966.1056718998589,0.007761199958622456,0.13127269968390465,5.0,3.1576995998620987,,,,,,,3599,Moral,2024-11-20_14h32.54.226,MoralCondition_v2,2022.2.5,59.84927555154056,
15,0,15,0,6,0,6,0,,,,,,,,,,,,,,,,,,,,,,,,,,,,,,,,,,,,,,,,,,,,,,,,,,969.3055430999957,969.3055430999957,0.0063183000311255455,0.13278180034831166,5.0,3.193999200128019,,,,,,,3599,Moral,2024-11-20_14h32.54.226,MoralCondition_v2,2022.2.5,59.84927555154056,
15,0,15,0,,,,,,,,,,,,,,,,,,,,,,,,,,,,,,,,,,,,,,,,,,,,,,,,,,,,,,,,,,,,972.539228499867,972.539228499867,0.0014562001451849937,0.130591900087893,3.0,2.530321199912578,3599,Moral,2024-11-20_14h32.54.226,MoralCondition_v2,2022.2.5,59.84927555154056,
16,0,16,0,0,0,0,0,,,,,,,,,,,,,,,,,,,,975.105760499835,0.00032190000638365746,0.13127580005675554,6.014386599883437,981.1223427001387,981.2891167998314,981.2891167998314,0.07542649982497096,0.21456729993224144,6.014347599819303,987.3891333001666,987.3891333001666,987.3891333001666,0.07620229991152883,0.21437929989770055,993.1221675998531,993.3223397000693,6.014477699995041,6.147687299642712,12.014336199965328,999.3556380998343,999.4222726998851,999.4222726998851,0.01446709968149662,0.14748499961569905,up,11.417128600180149,1010.8889700998552,4.1400082409381866e-05,0.13153420016169548,1016.9391926000826,1016.9391926000826,0.042128000408411026,0.1817641002126038,2.0,3.3404120998457074,,,,,,,3599,Moral,2024-11-20_14h32.54.226,MoralCondition_v2,2022.2.5,59.84927555154056,
16,0,16,0,1,0,1,0,,,,,,,,,,,,,,,,,,,,,,,,,,,,,,,,,,,,,,,,,,,,,,,,,,1020.3224176000804,1020.3224176000804,0.008024100214242935,0.14757400006055832,1.0,2.173731700051576,,,,,,,3599,Moral,2024-11-20_14h32.54.226,MoralCondition_v2,2022.2.5,59.84927555154056,
16,0,16,0,2,0,2,0,,,,,,,,,,,,,,,,,,,,,,,,,,,,,,,,,,,,,,,,,,,,,,,,,,1022.5220694998279,1022.5220694998279,0.007511799689382315,0.13252839958295226,6.0,2.859249100089073,,,,,,,3599,Moral,2024-11-20_14h32.54.226,MoralCondition_v2,2022.2.5,59.84927555154056,
16,0,16,0,3,0,3,0,,,,,,,,,,,,,,,,,,,,,,,,,,,,,,,,,,,,,,,,,,,,,,,,,,1025.4222253002226,1025.4222253002226,0.0071183000691235065,0.1315235998481512,1.0,1.7255506003275514,,,,,,,3599,Moral,2024-11-20_14h32.54.226,MoralCondition_v2,2022.2.5,59.84927555154056,
16,0,16,0,4,0,4,0,,,,,,,,,,,,,,,,,,,,,,,,,,,,,,,,,,,,,,,,,,,,,,,,,,1027.1887766998261,1027.1887766998261,0.006755499634891748,0.13245079992339015,1.0,0.9601384000852704,,,,,,,3599,Moral,2024-11-20_14h32.54.226,MoralCondition_v2,2022.2.5,59.84927555154056,
16,0,16,0,5,0,5,0,,,,,,,,,,,,,,,,,,,,,,,,,,,,,,,,,,,,,,,,,,,,,,,,,,1028.188937800005,1028.188937800005,0.006510300096124411,0.13257860019803047,4.0,3.226841500028968,,,,,,,3599,Moral,2024-11-20_14h32.54.226,MoralCondition_v2,2022.2.5,59.84927555154056,
16,0,16,0,6,0,6,0,,,,,,,,,,,,,,,,,,,,,,,,,,,,,,,,,,,,,,,,,,,,,,,,,,1031.4724125000648,1031.4724125000648,0.007930300198495388,0.1482714000158012,1.0,1.874247799627483,,,,,,,3599,Moral,2024-11-20_14h32.54.226,MoralCondition_v2,2022.2.5,59.84927555154056,
16,0,16,0,,,,,,,,,,,,,,,,,,,,,,,,,,,,,,,,,,,,,,,,,,,,,,,,,,,,,,,,,,,,1033.37220920017,1033.37220920017,0.0013938997872173786,0.13121759984642267,6.0,2.0979003999382257,3599,Moral,2024-11-20_14h32.54.226,MoralCondition_v2,2022.2.5,59.84927555154056,
17,0,17,0,0,0,0,0,,,,,,,,,,,,,,,,,,,,1035.5057268999517,0.00013369973748922348,0.13233370007947087,6.0156526998616755,1041.52208600007,1041.6888895002194,1041.6888895002194,0.07035839976742864,0.21571809984743595,6.01571309985593,1047.7888441001996,1047.7888441001996,1047.7888441001996,0.06942899990826845,0.21566459955647588,1053.522018800024,1053.7220717999153,6.01564919995144,6.149079999886453,12.015558199957013,1059.7553602000698,1059.822021999862,1059.822021999862,0.01574969943612814,0.14898679964244366,up,1.2262778002768755,1061.088695500046,3.2899901270866394e-05,0.13164420006796718,1067.1052454002202,1067.1052454002202,0.025953799951821566,0.1479122000746429,6.0,2.2899317000992596,,,,,,,3599,Moral,2024-11-20_14h32.54.226,MoralCondition_v2,2022.2.5,59.84927555154056,
17,0,17,0,1,0,1,0,,,,,,,,,,,,,,,,,,,,,,,,,,,,,,,,,,,,,,,,,,,,,,,,,,1069.4387002000585,1069.4387002000585,0.006401800084859133,0.132470500189811,4.0,4.96047559985891,,,,,,,3599,Moral,2024-11-20_14h32.54.226,MoralCondition_v2,2022.2.5,59.84927555154056,
17,0,17,0,2,0,2,0,,,,,,,,,,,,,,,,,,,,,,,,,,,,,,,,,,,,,,,,,,,,,,,,,,1074.4389772000723,1074.4389772000723,0.008176699746400118,0.1305766999721527,1.0,1.890194000210613,,,,,,,3599,Moral,2024-11-20_14h32.54.226,MoralCondition_v2,2022.2.5,59.84927555154056,
17,0,17,0,3,0,3,0,,,,,,,,,,,,,,,,,,,,,,,,,,,,,,,,,,,,,,,,,,,,,,,,,,1076.3719691000879,1076.3719691000879,0.007451099809259176,0.13231569994241,1.0,0.9593691001646221,,,,,,,3599,Moral,2024-11-20_14h32.54.226,MoralCondition_v2,2022.2.5,59.84927555154056,
17,0,17,0,4,0,4,0,,,,,,,,,,,,,,,,,,,,,,,,,,,,,,,,,,,,,,,,,,,,,,,,,,1077.3719025999308,1077.3719025999308,0.007370600011199713,0.1316484003327787,1.0,0.7919731000438333,,,,,,,3599,Moral,2024-11-20_14h32.54.226,MoralCondition_v2,2022.2.5,59.84927555154056,
17,0,17,0,5,0,5,0,,,,,,,,,,,,,,,,,,,,,,,,,,,,,,,,,,,,,,,,,,,,,,,,,,1078.205255900044,1078.205255900044,0.00825339974835515,0.1318843998014927,1.0,1.224776600021869,,,,,,,3599,Moral,2024-11-20_14h32.54.226,MoralCondition_v2,2022.2.5,59.84927555154056,
17,0,17,0,6,0,6,0,,,,,,,,,,,,,,,,,,,,,,,,,,,,,,,,,,,,,,,,,,,,,,,,,,1079.4719559000805,1079.4719559000805,0.007186600007116795,0.13127429969608784,3.0,5.4915948999114335,,,,,,,3599,Moral,2024-11-20_14h32.54.226,MoralCondition_v2,2022.2.5,59.84927555154056,
17,0,17,0,,,,,,,,,,,,,,,,,,,,,,,,,,,,,,,,,,,,,,,,,,,,,,,,,,,,,,,,,,,,1085.005304200109,1085.005304200109,0.0006654001772403717,0.13261600024998188,6.0,3.16635619988665,3599,Moral,2024-11-20_14h32.54.226,MoralCondition_v2,2022.2.5,59.84927555154056,
18,0,18,0,0,0,0,0,,,,,,,,,,,,,,,,,,,,1088.2054611002095,0.00013059983029961586,0.13251359993591905,5.999029199592769,1094.2385594998486,1094.4052941999398,1094.4052941999398,0.0901399995200336,0.23253359971567988,5.999138599727303,1100.5052990000695,1100.5052990000695,1100.5052990000695,0.08659049961715937,0.23245729971677065,1106.2383898999542,1106.4051668997854,5.9991190996952355,6.132409999612719,11.999084699433297,1112.438426699955,1112.538474699948,1112.538474699948,0.03258639946579933,0.16571089951321483,up,1.6931996997445822,1114.2884367001243,4.3999869376420975e-05,0.11467530019581318,1120.3050008998252,1120.3050008998252,0.024199299979954958,0.1478724000044167,4.0,3.5913903997279704,,,,,,,3599,Moral,2024-11-20_14h32.54.226,MoralCondition_v2,2022.2.5,59.84927555154056,
18,0,18,0,1,0,1,0,,,,,,,,,,,,,,,,,,,,,,,,,,,,,,,,,,,,,,,,,,,,,,,,,,1123.9552523000166,1123.9552523000166,0.007899800315499306,0.14746230002492666,1.0,2.0072520999237895,,,,,,,3599,Moral,2024-11-20_14h32.54.226,MoralCondition_v2,2022.2.5,59.84927555154056,
18,0,18,0,2,0,2,0,,,,,,,,,,,,,,,,,,,,,,,,,,,,,,,,,,,,,,,,,,,,,,,,,,1125.9884871002287,1125.9884871002287,0.008117199875414371,0.13098589982837439,1.0,0.7237625000998378,,,,,,,3599,Moral,2024-11-20_14h32.54.226,MoralCondition_v2,2022.2.5,59.84927555154056,
18,0,18,0,3,0,3,0,,,,,,,,,,,,,,,,,,,,,,,,,,,,,,,,,,,,,,,,,,,,,,,,,,1126.754852899816,1126.754852899816,0.007941100280731916,0.13094149995595217,1.0,0.8573503997176886,,,,,,,3599,Moral,2024-11-20_14h32.54.226,MoralCondition_v2,2022.2.5,59.84927555154056,
18,0,18,0,4,0,4,0,,,,,,,,,,,,,,,,,,,,,,,,,,,,,,,,,,,,,,,,,,,,,,,,,,1127.6549038998783,1127.6549038998783,0.007824199739843607,0.13106859987601638,3.0,3.1577836996875703,,,,,,,3599,Moral,2024-11-20_14h32.54.226,MoralCondition_v2,2022.2.5,59.84927555154056,
18,0,18,0,5,0,5,0,,,,,,,,,,,,,,,,,,,,,,,,,,,,,,,,,,,,,,,,,,,,,,,,,,1130.8551571997814,1130.8551571997814,0.00787759991362691,0.1319619999267161,6.0,1.9916853997856379,,,,,,,3599,Moral,2024-11-20_14h32.54.226,MoralCondition_v2,2022.2.5,59.84927555154056,
18,0,18,0,6,0,6,0,,,,,,,,,,,,,,,,,,,,,,,,,,,,,,,,,,,,,,,,,,,,,,,,,,1132.8884219001047,1132.8884219001047,0.006322599947452545,0.13270439999178052,1.0,2.627155799884349,,,,,,,3599,Moral,2024-11-20_14h32.54.226,MoralCondition_v2,2022.2.5,59.84927555154056,
18,0,18,0,,,,,,,,,,,,,,,,,,,,,,,,,,,,,,,,,,,,,,,,,,,,,,,,,,,,,,,,,,,,1135.5551149998792,1135.5551149998792,0.0016792998649179935,0.1305760000832379,6.0,1.930198899935931,3599,Moral,2024-11-20_14h32.54.226,MoralCondition_v2,2022.2.5,59.84927555154056,
19,0,19,0,0,0,0,0,,,,,,,,,,,,,,,,,,,,1137.5219942000695,0.0002751997672021389,0.1312131998129189,6.031260499730706,1143.5550342001952,1143.7051937999204,1143.7051937999204,0.07048079976812005,0.21443009981885552,6.014437499921769,1149.8052949998528,1149.8052949998528,1149.8052949998528,0.07242689980193973,0.21454899944365025,1155.5383549002,1155.738322999794,6.014399199746549,6.147757899481803,12.01449599955231,1161.7716510999016,1161.838280300144,1161.838280300144,0.01458539953455329,0.14769279956817627,down,1.913273399695754,1163.7882787999697,3.429967910051346e-05,0.13112419983372092,1169.805230999831,1169.805230999831,0.025174399837851524,0.1478571998886764,1.0,3.1569421999156475,,,,,,,3599,Moral,2024-11-20_14h32.54.226,MoralCondition_v2,2022.2.5,59.84927555154056,
19,0,19,0,1,0,1,0,,,,,,,,,,,,,,,,,,,,,,,,,,,,,,,,,,,,,,,,,,,,,,,,,,1173.0047788000666,1173.0047788000666,0.007127400022000074,0.13132539996877313,5.0,3.5917671998031437,,,,,,,3599,Moral,2024-11-20_14h32.54.226,MoralCondition_v2,2022.2.5,59.84927555154056,
19,0,19,0,2,0,2,0,,,,,,,,,,,,,,,,,,,,,,,,,,,,,,,,,,,,,,,,,,,,,,,,,,1176.6380668999627,1176.6380668999627,0.007807900197803974,0.13105039997026324,6.0,2.1244271001778543,,,,,,,3599,Moral,2024-11-20_14h32.54.226,MoralCondition_v2,2022.2.5,59.84927555154056,
19,0,19,0,3,0,3,0,,,,,,,,,,,,,,,,,,,,,,,,,,,,,,,,,,,,,,,,,,,,,,,,,,1178.8215239001438,1178.8215239001438,0.00773639976978302,0.1473654001019895,5.0,2.4739751000888646,,,,,,,3599,Moral,2024-11-20_14h32.54.226,MoralCondition_v2,2022.2.5,59.84927555154056,
19,0,19,0,4,0,4,0,,,,,,,,,,,,,,,,,,,,,,,,,,,,,,,,,,,,,,,,,,,,,,,,,,1181.3385124998167,1181.3385124998167,0.00815619993954897,0.14783160015940666,3.0,5.7070291000418365,,,,,,,3599,Moral,2024-11-20_14h32.54.226,MoralCondition_v2,2022.2.5,59.84927555154056,
19,0,19,0,5,0,5,0,,,,,,,,,,,,,,,,,,,,,,,,,,,,,,,,,,,,,,,,,,,,,,,,,,1187.0714660999365,1187.0714660999365,0.007051100023090839,0.13246729969978333,6.0,2.2597769000567496,,,,,,,3599,Moral,2024-11-20_14h32.54.226,MoralCondition_v2,2022.2.5,59.84927555154056,
19,0,19,0,6,0,6,0,,,,,,,,,,,,,,,,,,,,,,,,,,,,,,,,,,,,,,,,,,,,,,,,,,1189.3716509998776,1189.3716509998776,0.006908699870109558,0.1327395997941494,5.0,2.559972600080073,,,,,,,3599,Moral,2024-11-20_14h32.54.226,MoralCondition_v2,2022.2.5,59.84927555154056,
19,0,19,0,,,,,,,,,,,,,,,,,,,,,,,,,,,,,,,,,,,,,,,,,,,,,,,,,,,,,,,,,,,,1191.971627799794,1191.971627799794,0.0013027996756136417,0.1313387998379767,3.0,3.231185699813068,3599,Moral,2024-11-20_14h32.54.226,MoralCondition_v2,2022.2.5,59.84927555154056,
