loop.thisRepN,loop.thisTrialN,loop.thisN,loop.thisIndex,evaluate_all_emotions.thisRepN,evaluate_all_emotions.thisTrialN,evaluate_all_emotions.thisN,evaluate_all_emotions.thisIndex,sync_beep_1.started,p_port.started,p_port.stopped,sync_beep_1.stopped,sync_beep_2.started,sync_beep_2.stopped,sync_beep_3.started,sync_beep_3.stopped,sync_beep_4.started,baseline.started,p_port_2.started,p_port_2.stopped,baseline.stopped,p_port_3.started,Game_Start_Text.started,p_port_4.started,p_port_4.stopped,key_resp.started,key_resp.keys,key_resp.rt,fixation_cross.started,p_port_5.started,p_port_5.stopped,fixation_cross.stopped,p_port_6.started,player_image_intro.started,player_name_intro.started,p_port_7.started,p_port_7.stopped,p_port_8.started,player_image_offer.started,player_name_offer.started,proposed_split.started,p_port_9.started,p_port_9.stopped,proposed_split.stopped,accept_reject.started,p_port_15.started,p_port_15.stopped,accept_reject.stopped,p_port_10.started,arrow_instructions.started,offer_choice.started,p_port_11.started,p_port_11.stopped,offer_choice.keys,offer_choice.rt,Instructions_Affinity_Score.started,p_port_12.started,p_port_12.stopped,Emotion_Image.started,AffinityScore.started,p_port_13.started,p_port_13.stopped,AffinityScore.response,AffinityScore.rt,Instruction.started,Moral_Disgust_Score.started,p_port_14.started,p_port_14.stopped,Moral_Disgust_Score.response,Moral_Disgust_Score.rt,player_image_intro.stopped,player_name_intro.stopped,p_port_8.stopped,player_image_offer.stopped,player_name_offer.stopped,p_port_10.stopped,Instructions_Affinity_Score.stopped,p_port_6.stopped,participant,session,date,expName,psychopyVersion,frameRate,
,,,,,,,,14.142548250732943,0.0008366000838577747,0.10366160003468394,14.45840339967981,14.724823789903894,15.024887399747968,15.325280089629814,15.624961499590427,15.924849689705297,16.258289999794215,0.005166700109839439,0.10389750031754375,31.275008799973875,15.020314500201494,31.358353599905968,0.003771000076085329,0.10363620007410645,31.825007599778473,space,5.807703000027686,,,,,,,,,,,,,,,,,,,,,,,,,,,,,,,,,,,,,,,,,,,,,,,,,,,3684,Moral,2025-02-18_13h28.55.428,MoralCondition_v2,2022.2.5,29.936749627740127,
0,0,0,0,0,0,0,0,,,,,,,,,,,,,,,,,,,,,37.6916684997268,0.005751500371843576,0.09869570005685091,43.69176179962233,6.032015600241721,43.99157749954611,43.99157749954611,0.13844530005007982,0.2986981002613902,6.032183300238103,50.00818409956992,50.00818409956992,50.00818409956992,0.09225529991090298,0.21493550017476082,55.70826379954815,55.87496179994196,6.0151877999305725,6.115259400103241,61.87511079991236,12.015389599837363,62.00833829957992,62.00833829957992,0.015331499744206667,0.11521829990670085,up,2.2810647999867797,64.3249324997887,5.6599732488393784e-05,0.09740989981219172,70.35818639956415,70.35818639956415,0.027585300151258707,0.13079039985314012,4.0,5.37087389966473,,,,,,,,,,,,,,,3684,Moral,2025-02-18_13h28.55.428,MoralCondition_v2,2022.2.5,29.936749627740127,
0,0,0,0,1,0,1,0,,,,,,,,,,,,,,,,,,,,,,,,,,,,,,,,,,,,,,,,,,,,,,,,,,,75.77501189988106,75.77501189988106,0.009434099774807692,0.11460979981347919,4.0,7.3394976002164185,,,,,,,,,,,,,,,3684,Moral,2025-02-18_13h28.55.428,MoralCondition_v2,2022.2.5,29.936749627740127,
0,0,0,0,2,0,2,0,,,,,,,,,,,,,,,,,,,,,,,,,,,,,,,,,,,,,,,,,,,,,,,,,,,83.15819239988923,83.15819239988923,0.012135699857026339,0.11386459972709417,4.0,1.7693451000377536,,,,,,,,,,,,,,,3684,Moral,2025-02-18_13h28.55.428,MoralCondition_v2,2022.2.5,29.936749627740127,
0,0,0,0,3,0,3,0,,,,,,,,,,,,,,,,,,,,,,,,,,,,,,,,,,,,,,,,,,,,,,,,,,,84.95844569988549,84.95844569988549,0.009444300085306168,0.09767990000545979,4.0,1.5560392998158932,,,,,,,,,,,,,,,3684,Moral,2025-02-18_13h28.55.428,MoralCondition_v2,2022.2.5,29.936749627740127,
0,0,0,0,4,0,4,0,,,,,,,,,,,,,,,,,,,,,,,,,,,,,,,,,,,,,,,,,,,,,,,,,,,86.57525639981031,86.57525639981031,0.008877499960362911,0.1144459000788629,4.0,0.9397896998561919,,,,,,,,,,,,,,,3684,Moral,2025-02-18_13h28.55.428,MoralCondition_v2,2022.2.5,29.936749627740127,
0,0,0,0,5,0,5,0,,,,,,,,,,,,,,,,,,,,,,,,,,,,,,,,,,,,,,,,,,,,,,,,,,,87.55852039996535,87.55852039996535,0.01074989978224039,0.11432419996708632,4.0,0.8379599000327289,,,,,,,,,,,,,,,3684,Moral,2025-02-18_13h28.55.428,MoralCondition_v2,2022.2.5,29.936749627740127,
0,0,0,0,6,0,6,0,,,,,,,,,,,,,,,,,,,,,,,,,,,,,,,,,,,,,,,,,,,,,,,,,,,88.50814999965951,88.50814999965951,0.0890136999078095,0.18135910015553236,4.0,0.7937372997403145,,,,,,,,,,,,,,,3684,Moral,2025-02-18_13h28.55.428,MoralCondition_v2,2022.2.5,29.936749627740127,
0,0,0,0,,,,,,,,,,,,,,,,,,,,,,,,,,,,,,,,,,,,,,,,,,,,,,,,,,,,,,,,,,,,,89.3417111998424,89.3417111998424,0.0014085001312196255,0.09775660000741482,4.0,2.7643078002147377,,,,,,,,,3684,Moral,2025-02-18_13h28.55.428,MoralCondition_v2,2022.2.5,29.936749627740127,
1,0,1,0,0,0,0,0,,,,,,,,,,,,,,,,,,,,,92.14195879967883,0.0001417999155819416,0.09940809989348054,98.1584373996593,6.015925099607557,98.34158719982952,98.34158719982952,0.08240699954330921,0.19922159984707832,5.999252199660987,104.40866669965908,104.40866669965908,104.40866669965908,0.05148549983277917,0.16589839942753315,110.10836489964277,110.30832339962944,5.999222499784082,6.0992489997297525,116.30832059960812,11.999217299744487,116.44166059978306,116.44166059978306,-0.000359200406819582,0.09922439930960536,up,2.1348736002109945,118.64171999972314,4.409998655319214e-05,0.09827560000121593,124.6750144995749,124.6750144995749,0.026602299883961678,0.13148800004273653,4.0,4.439054199960083,,,,,,,104.40866669965908,104.40866669965908,6.099206099752337,116.39155649999157,116.39155649999157,12.099080299492925,,,3684,Moral,2025-02-18_13h28.55.428,MoralCondition_v2,2022.2.5,29.936749627740127,
1,0,1,0,1,0,1,0,,,,,,,,,,,,,,,,,,,,,,,,,,,,,,,,,,,,,,,,,,,,,,,,,,,129.14171179989353,129.14171179989353,0.007712500169873238,0.09901890018954873,4.0,1.2924794000573456,,,,,,,,,,,,,,,3684,Moral,2025-02-18_13h28.55.428,MoralCondition_v2,2022.2.5,29.936749627740127,
1,0,1,0,2,0,2,0,,,,,,,,,,,,,,,,,,,,,,,,,,,,,,,,,,,,,,,,,,,,,,,,,,,130.47478939965367,130.47478939965367,0.00752729969099164,0.09786149999126792,4.0,1.4913444998674095,,,,,,,,,,,,,,,3684,Moral,2025-02-18_13h28.55.428,MoralCondition_v2,2022.2.5,29.936749627740127,
1,0,1,0,3,0,3,0,,,,,,,,,,,,,,,,,,,,,,,,,,,,,,,,,,,,,,,,,,,,,,,,,,,132.00827339990065,132.00827339990065,0.007024399936199188,0.09835570026189089,4.0,2.825559699907899,,,,,,,,,,,,,,,3684,Moral,2025-02-18_13h28.55.428,MoralCondition_v2,2022.2.5,29.936749627740127,
1,0,1,0,4,0,4,0,,,,,,,,,,,,,,,,,,,,,,,,,,,,,,,,,,,,,,,,,,,,,,,,,,,134.8749450999312,134.8749450999312,0.007041200064122677,0.09933159966021776,4.0,0.826708999928087,,,,,,,,,,,,,,,3684,Moral,2025-02-18_13h28.55.428,MoralCondition_v2,2022.2.5,29.936749627740127,
1,0,1,0,5,0,5,0,,,,,,,,,,,,,,,,,,,,,,,,,,,,,,,,,,,,,,,,,,,,,,,,,,,135.74171799980104,135.74171799980104,0.006835899781435728,0.09938079956918955,4.0,1.126947000157088,,,,,,,,,,,,,,,3684,Moral,2025-02-18_13h28.55.428,MoralCondition_v2,2022.2.5,29.936749627740127,
1,0,1,0,6,0,6,0,,,,,,,,,,,,,,,,,,,,,,,,,,,,,,,,,,,,,,,,,,,,,,,,,,,136.908492999617,136.908492999617,0.006525800097733736,0.09916740003973246,4.0,0.8937052004039288,,,,,,,,,,,,,,,3684,Moral,2025-02-18_13h28.55.428,MoralCondition_v2,2022.2.5,29.936749627740127,
1,0,1,0,,,,,,,,,,,,,,,,,,,,,,,,,,,,,,,,,,,,,,,,,,,,,,,,,,,,,,,,,,,,,137.84180049970746,137.84180049970746,0.0013644001446664333,0.09761440008878708,4.0,2.364261799957603,,,,,,,,,3684,Moral,2025-02-18_13h28.55.428,MoralCondition_v2,2022.2.5,29.936749627740127,
2,0,2,0,0,0,0,0,,,,,,,,,,,,,,,,,,,,,140.2418782999739,0.00025189993903040886,0.09793499996885657,146.25836469978094,6.014344499912113,146.42518379958346,146.42518379958346,0.07117170002311468,0.18108579982072115,6.014399299863726,152.50837089959532,152.50837089959532,152.50837089959532,0.06802470004186034,0.16468890011310577,158.2085027997382,158.44151179958135,6.030851199757308,6.131029500160366,164.44162339996547,12.031018499750644,164.57534449966624,164.57534449966624,0.03135629976168275,0.13102509966120124,down,2.0339291002601385,166.67499779956415,4.110019654035568e-05,0.09803110035136342,172.7085760999471,172.7085760999471,0.025747000239789486,0.13140680035576224,6.0,11.906783199869096,,,,,,,152.42495929962024,152.42495929962024,,164.50843379972503,164.50843379972503,,,,3684,Moral,2025-02-18_13h28.55.428,MoralCondition_v2,2022.2.5,29.936749627740127,
2,0,2,0,1,0,1,0,,,,,,,,,,,,,,,,,,,,,,,,,,,,,,,,,,,,,,,,,,,,,,,,,,,184.65836829971522,184.65836829971522,0.009049999993294477,0.11432769987732172,6.0,1.0727694001980126,,,,,,,,,,,,,,,3684,Moral,2025-02-18_13h28.55.428,MoralCondition_v2,2022.2.5,29.936749627740127,
2,0,2,0,2,0,2,0,,,,,,,,,,,,,,,,,,,,,,,,,,,,,,,,,,,,,,,,,,,,,,,,,,,185.77539249975234,185.77539249975234,0.007953400257974863,0.11442170012742281,6.0,0.7741258000023663,,,,,,,,,,,,,,,3684,Moral,2025-02-18_13h28.55.428,MoralCondition_v2,2022.2.5,29.936749627740127,
2,0,2,0,3,0,3,0,,,,,,,,,,,,,,,,,,,,,,,,,,,,,,,,,,,,,,,,,,,,,,,,,,,186.57487559970468,186.57487559970468,0.007711399812251329,0.09761280007660389,6.0,0.9244256000965834,,,,,,,,,,,,,,,3684,Moral,2025-02-18_13h28.55.428,MoralCondition_v2,2022.2.5,29.936749627740127,
2,0,2,0,4,0,4,0,,,,,,,,,,,,,,,,,,,,,,,,,,,,,,,,,,,,,,,,,,,,,,,,,,,187.5416591996327,187.5416591996327,0.007482300046831369,0.09793539997190237,6.0,1.4580409997142851,,,,,,,,,,,,,,,3684,Moral,2025-02-18_13h28.55.428,MoralCondition_v2,2022.2.5,29.936749627740127,
2,0,2,0,5,0,5,0,,,,,,,,,,,,,,,,,,,,,,,,,,,,,,,,,,,,,,,,,,,,,,,,,,,189.05850149970502,189.05850149970502,0.009304399602115154,0.11410389980301261,6.0,1.6395983998663723,,,,,,,,,,,,,,,3684,Moral,2025-02-18_13h28.55.428,MoralCondition_v2,2022.2.5,29.936749627740127,
2,0,2,0,6,0,6,0,,,,,,,,,,,,,,,,,,,,,,,,,,,,,,,,,,,,,,,,,,,,,,,,,,,190.72501769987866,190.72501769987866,0.00722930021584034,0.09778770012781024,6.0,1.6249691997654736,,,,,,,,,,,,,,,3684,Moral,2025-02-18_13h28.55.428,MoralCondition_v2,2022.2.5,29.936749627740127,
2,0,2,0,,,,,,,,,,,,,,,,,,,,,,,,,,,,,,,,,,,,,,,,,,,,,,,,,,,,,,,,,,,,,192.39159669959918,192.39159669959918,0.001565299928188324,0.09765389980748296,2.0,16.23116709990427,,,,,,,,,3684,Moral,2025-02-18_13h28.55.428,MoralCondition_v2,2022.2.5,29.936749627740127,
3,0,3,0,0,0,0,0,,,,,,,,,,,,,,,,,,,,,208.65859409980476,0.00015830015763640404,0.09896120009943843,214.6583351995796,6.032291799783707,214.85855109989643,214.85855109989643,0.08984489971771836,0.19918039999902248,6.03229680005461,220.95839339960366,220.95839339960366,220.95839339960366,0.0853419997729361,0.1991347996518016,226.65844449959695,226.85850209975615,6.032442299649119,6.132250899914652,232.8583994996734,11.999017499852926,232.95835919957608,232.95835919957608,-6.760051473975182e-05,0.0989554999396205,up,1.3147743996232748,234.3249909998849,4.260009154677391e-05,0.0981598999351263,240.32477129995823,240.32477129995823,0.005843500141054392,0.09809200000017881,4.0,1.8599872002378106,,,,,,,220.858445499558,220.858445499558,,232.95835919957608,232.95835919957608,12.098953399807215,240.32477129995823,,3684,Moral,2025-02-18_13h28.55.428,MoralCondition_v2,2022.2.5,29.936749627740127,
3,0,3,0,1,0,1,0,,,,,,,,,,,,,,,,,,,,,,,,,,,,,,,,,,,,,,,,,,,,,,,,,,,242.2249471996911,242.2249471996911,0.007517300080507994,0.09770709974691272,4.0,0.5247566998004913,,,,,,,,,,,,,,,3684,Moral,2025-02-18_13h28.55.428,MoralCondition_v2,2022.2.5,29.936749627740127,
3,0,3,0,2,0,2,0,,,,,,,,,,,,,,,,,,,,,,,,,,,,,,,,,,,,,,,,,,,,,,,,,,,242.7917466997169,242.7917466997169,0.0075842998921871185,0.09767999965697527,4.0,0.6249178000725806,,,,,,,,,,,,,,,3684,Moral,2025-02-18_13h28.55.428,MoralCondition_v2,2022.2.5,29.936749627740127,
3,0,3,0,3,0,3,0,,,,,,,,,,,,,,,,,,,,,,,,,,,,,,,,,,,,,,,,,,,,,,,,,,,243.47521949978545,243.47521949978545,0.008765799924731255,0.1140660997480154,4.0,0.572883500251919,,,,,,,,,,,,,,,3684,Moral,2025-02-18_13h28.55.428,MoralCondition_v2,2022.2.5,29.936749627740127,
3,0,3,0,4,0,4,0,,,,,,,,,,,,,,,,,,,,,,,,,,,,,,,,,,,,,,,,,,,,,,,,,,,244.09209469985217,244.09209469985217,0.008530599996447563,0.11421480029821396,4.0,0.7400258998386562,,,,,,,,,,,,,,,3684,Moral,2025-02-18_13h28.55.428,MoralCondition_v2,2022.2.5,29.936749627740127,
3,0,3,0,5,0,5,0,,,,,,,,,,,,,,,,,,,,,,,,,,,,,,,,,,,,,,,,,,,,,,,,,,,244.87536379974335,244.87536379974335,0.008382100146263838,0.11447810009121895,4.0,1.4738495000638068,,,,,,,,,,,,,,,3684,Moral,2025-02-18_13h28.55.428,MoralCondition_v2,2022.2.5,29.936749627740127,
3,0,3,0,6,0,6,0,,,,,,,,,,,,,,,,,,,,,,,,,,,,,,,,,,,,,,,,,,,,,,,,,,,246.37495349999517,246.37495349999517,0.006894499994814396,0.09944579983130097,4.0,1.026904699858278,,,,,,,,,,,,,,,3684,Moral,2025-02-18_13h28.55.428,MoralCondition_v2,2022.2.5,29.936749627740127,
3,0,3,0,,,,,,,,,,,,,,,,,,,,,,,,,,,,,,,,,,,,,,,,,,,,,,,,,,,,,,,,,,,,,247.44178099976853,247.44178099976853,0.0014937003143131733,0.0976498001255095,4.0,6.497339800000191,,,,,,,,,3684,Moral,2025-02-18_13h28.55.428,MoralCondition_v2,2022.2.5,29.936749627740127,
4,0,4,0,0,0,0,0,,,,,,,,,,,,,,,,,,,,,253.97527939965948,0.00015870016068220139,0.09906100016087294,259.97500549955294,5.999080600216985,260.17510079964995,260.17510079964995,0.09202100010588765,0.19914739998057485,5.999085200019181,266.2417546999641,266.2417546999641,266.2417546999641,0.056242499966174364,0.1658568000420928,271.9416883997619,272.1418312997557,5.999290000181645,6.099084299989045,278.1416972996667,11.999137199949473,278.27501569967717,278.27501569967717,-5.220016464591026e-05,0.09919179975986481,up,1.2142476998269558,279.541783799883,2.840021625161171e-05,0.09890800016000867,285.54169129999354,285.54169129999354,0.00875970022752881,0.09877770021557808,2.0,14.757825199980289,,,,,,,266.2417546999641,266.2417546999641,6.099139099940658,278.2416616999544,278.2416616999544,12.099138699937612,285.54169129999354,,3684,Moral,2025-02-18_13h28.55.428,MoralCondition_v2,2022.2.5,29.936749627740127,
4,0,4,0,1,0,1,0,,,,,,,,,,,,,,,,,,,,,,,,,,,,,,,,,,,,,,,,,,,,,,,,,,,300.3415196998976,300.3415196998976,0.006318900268524885,0.09927990008145571,5.0,4.293811700306833,,,,,,,,,,,,,,,3684,Moral,2025-02-18_13h28.55.428,MoralCondition_v2,2022.2.5,29.936749627740127,
4,0,4,0,2,0,2,0,,,,,,,,,,,,,,,,,,,,,,,,,,,,,,,,,,,,,,,,,,,,,,,,,,,304.6748483995907,304.6748483995907,0.006372099742293358,0.0995392999611795,5.0,11.794095499906689,,,,,,,,,,,,,,,3684,Moral,2025-02-18_13h28.55.428,MoralCondition_v2,2022.2.5,29.936749627740127,
4,0,4,0,3,0,3,0,,,,,,,,,,,,,,,,,,,,,,,,,,,,,,,,,,,,,,,,,,,,,,,,,,,316.5083285998553,316.5083285998553,0.007505299989134073,0.09796150028705597,3.0,4.324498800095171,,,,,,,,,,,,,,,3684,Moral,2025-02-18_13h28.55.428,MoralCondition_v2,2022.2.5,29.936749627740127,
4,0,4,0,4,0,4,0,,,,,,,,,,,,,,,,,,,,,,,,,,,,,,,,,,,,,,,,,,,,,,,,,,,320.875197599642,320.875197599642,0.006411700043827295,0.09921439969912171,3.0,3.9939856003038585,,,,,,,,,,,,,,,3684,Moral,2025-02-18_13h28.55.428,MoralCondition_v2,2022.2.5,29.936749627740127,
4,0,4,0,5,0,5,0,,,,,,,,,,,,,,,,,,,,,,,,,,,,,,,,,,,,,,,,,,,,,,,,,,,324.9081864999607,324.9081864999607,0.007102100178599358,0.09823220036923885,4.0,2.4255176996812224,,,,,,,,,,,,,,,3684,Moral,2025-02-18_13h28.55.428,MoralCondition_v2,2022.2.5,29.936749627740127,
4,0,4,0,6,0,6,0,,,,,,,,,,,,,,,,,,,,,,,,,,,,,,,,,,,,,,,,,,,,,,,,,,,327.3749304995872,327.3749304995872,0.006408299785107374,0.09903289983049035,1.0,3.893776999786496,,,,,,,,,,,,,,,3684,Moral,2025-02-18_13h28.55.428,MoralCondition_v2,2022.2.5,29.936749627740127,
4,0,4,0,,,,,,,,,,,,,,,,,,,,,,,,,,,,,,,,,,,,,,,,,,,,,,,,,,,,,,,,,,,,,331.3085902999155,331.3085902999155,0.0012149997055530548,0.09790739975869656,4.0,5.931015100330114,,,,,,,,,3684,Moral,2025-02-18_13h28.55.428,MoralCondition_v2,2022.2.5,29.936749627740127,
5,0,5,0,0,0,0,0,,,,,,,,,,,,,,,,,,,,,337.27537999954075,0.0002450002357363701,0.09810910001397133,343.2584159998223,6.014870200306177,343.47498509986326,343.47498509986326,0.08122330019250512,0.19810329983010888,6.031754299998283,349.5581064997241,349.5581064997241,349.5581064997241,0.07906930008903146,0.18123630015179515,355.25836839992553,355.45840329956263,6.01488049980253,6.1146994000300765,361.45829159999266,12.014760899823159,361.5917349997908,361.5917349997908,0.01524639967828989,0.11480229999870062,up,1.4329282999970019,363.07495719986036,4.820013418793678e-05,0.09770720032975078,369.0749487997964,369.0749487997964,0.006214700173586607,0.09752100007608533,5.0,4.5258023999631405,,,,,,,349.458218799904,349.458218799904,,361.5586756998673,361.5586756998673,,369.0749487997964,6.098101099953055,3684,Moral,2025-02-18_13h28.55.428,MoralCondition_v2,2022.2.5,29.936749627740127,
5,0,5,0,1,0,1,0,,,,,,,,,,,,,,,,,,,,,,,,,,,,,,,,,,,,,,,,,,,,,,,,,,,373.64160049986094,373.64160049986094,0.007805100176483393,0.09791640006005764,2.0,2.658024000003934,,,,,,,,,,,,,,,3684,Moral,2025-02-18_13h28.55.428,MoralCondition_v2,2022.2.5,29.936749627740127,
5,0,5,0,2,0,2,0,,,,,,,,,,,,,,,,,,,,,,,,,,,,,,,,,,,,,,,,,,,,,,,,,,,376.3415955998935,376.3415955998935,0.0066673001274466515,0.0991797000169754,5.0,3.4933865000493824,,,,,,,,,,,,,,,3684,Moral,2025-02-18_13h28.55.428,MoralCondition_v2,2022.2.5,29.936749627740127,
5,0,5,0,3,0,3,0,,,,,,,,,,,,,,,,,,,,,,,,,,,,,,,,,,,,,,,,,,,,,,,,,,,379.89181619975716,379.89181619975716,0.008092499803751707,0.11418920010328293,5.0,1.8406026000156999,,,,,,,,,,,,,,,3684,Moral,2025-02-18_13h28.55.428,MoralCondition_v2,2022.2.5,29.936749627740127,
5,0,5,0,4,0,4,0,,,,,,,,,,,,,,,,,,,,,,,,,,,,,,,,,,,,,,,,,,,,,,,,,,,381.7751614996232,381.7751614996232,0.009367300197482109,0.11480139987543225,3.0,2.806312399916351,,,,,,,,,,,,,,,3684,Moral,2025-02-18_13h28.55.428,MoralCondition_v2,2022.2.5,29.936749627740127,
5,0,5,0,5,0,5,0,,,,,,,,,,,,,,,,,,,,,,,,,,,,,,,,,,,,,,,,,,,,,,,,,,,384.6083598998375,384.6083598998375,0.007298499811440706,0.09859369974583387,5.0,3.492486400064081,,,,,,,,,,,,,,,3684,Moral,2025-02-18_13h28.55.428,MoralCondition_v2,2022.2.5,29.936749627740127,
5,0,5,0,6,0,6,0,,,,,,,,,,,,,,,,,,,,,,,,,,,,,,,,,,,,,,,,,,,,,,,,,,,388.141630299855,388.141630299855,0.007589700166136026,0.09808380017057061,5.0,2.724798600189388,,,,,,,,,,,,,,,3684,Moral,2025-02-18_13h28.55.428,MoralCondition_v2,2022.2.5,29.936749627740127,
5,0,5,0,,,,,,,,,,,,,,,,,,,,,,,,,,,,,,,,,,,,,,,,,,,,,,,,,,,,,,,,,,,,,390.9082288998179,390.9082288998179,0.0007190997712314129,0.09918019967153668,4.0,4.9329120996408165,,,,,,,,,3684,Moral,2025-02-18_13h28.55.428,MoralCondition_v2,2022.2.5,29.936749627740127,
6,0,6,0,0,0,0,0,,,,,,,,,,,,,,,,,,,,,395.87527189962566,0.0003353999927639961,0.09733460005372763,401.8916455996223,6.013768500182778,402.07488109963015,402.07488109963015,0.0931942998431623,0.197284999769181,6.030422700103372,408.17496889969334,408.17496889969334,408.17496889969334,0.09755009971559048,0.1973750996403396,413.87491879984736,414.0748993996531,6.030475099571049,6.1303757997229695,420.07489739963785,12.03044889960438,420.20850009983405,420.20850009983405,0.03063839953392744,0.13044659979641438,down,0.6719529000110924,420.92495839996263,4.240032285451889e-05,0.09820000035688281,426.9252502997406,426.9252502997406,0.009255200158804655,0.09787739999592304,2.0,4.856532700359821,,,,,,,408.07483569998294,408.07483569998294,,420.17490599956363,420.17490599956363,,426.9252502997406,,3684,Moral,2025-02-18_13h28.55.428,MoralCondition_v2,2022.2.5,29.936749627740127,
6,0,6,0,1,0,1,0,,,,,,,,,,,,,,,,,,,,,,,,,,,,,,,,,,,,,,,,,,,,,,,,,,,431.8418534998782,431.8418534998782,0.008179999887943268,0.11429929966107011,3.0,3.2073134002275765,,,,,,,,,,,,,,,3684,Moral,2025-02-18_13h28.55.428,MoralCondition_v2,2022.2.5,29.936749627740127,
6,0,6,0,2,0,2,0,,,,,,,,,,,,,,,,,,,,,,,,,,,,,,,,,,,,,,,,,,,,,,,,,,,435.07479789992794,435.07479789992794,0.007834400050342083,0.09798529976978898,2.0,12.79083629976958,,,,,,,,,,,,,,,3684,Moral,2025-02-18_13h28.55.428,MoralCondition_v2,2022.2.5,29.936749627740127,
6,0,6,0,3,0,3,0,,,,,,,,,,,,,,,,,,,,,,,,,,,,,,,,,,,,,,,,,,,,,,,,,,,447.90806629974395,447.90806629974395,0.007343399804085493,0.09825279982760549,5.0,4.024683999828994,,,,,,,,,,,,,,,3684,Moral,2025-02-18_13h28.55.428,MoralCondition_v2,2022.2.5,29.936749627740127,
6,0,6,0,4,0,4,0,,,,,,,,,,,,,,,,,,,,,,,,,,,,,,,,,,,,,,,,,,,,,,,,,,,451.9917879998684,451.9917879998684,0.00825769966468215,0.11417309986427426,5.0,7.706909700296819,,,,,,,,,,,,,,,3684,Moral,2025-02-18_13h28.55.428,MoralCondition_v2,2022.2.5,29.936749627740127,
6,0,6,0,5,0,5,0,,,,,,,,,,,,,,,,,,,,,,,,,,,,,,,,,,,,,,,,,,,,,,,,,,,459.7248348998837,459.7248348998837,0.007558099925518036,0.09800649993121624,3.0,3.8916227002628148,,,,,,,,,,,,,,,3684,Moral,2025-02-18_13h28.55.428,MoralCondition_v2,2022.2.5,29.936749627740127,
6,0,6,0,6,0,6,0,,,,,,,,,,,,,,,,,,,,,,,,,,,,,,,,,,,,,,,,,,,,,,,,,,,463.65808639954776,463.65808639954776,0.00746709993109107,0.0977250998839736,3.0,8.891240500379354,,,,,,,,,,,,,,,3684,Moral,2025-02-18_13h28.55.428,MoralCondition_v2,2022.2.5,29.936749627740127,
6,0,6,0,,,,,,,,,,,,,,,,,,,,,,,,,,,,,,,,,,,,,,,,,,,,,,,,,,,,,,,,,,,,,472.59167429991066,472.59167429991066,0.0017101997509598732,0.09768419992178679,1.0,4.4309270000085235,,,,,,,,,3684,Moral,2025-02-18_13h28.55.428,MoralCondition_v2,2022.2.5,29.936749627740127,
7,0,7,0,0,0,0,0,,,,,,,,,,,,,,,,,,,,,477.05826979968697,0.00027030007913708687,0.09807110019028187,483.0581776998006,6.031406400259584,483.25831139972433,483.25831139972433,0.09390070009976625,0.19828659994527698,6.031584700103849,489.358154699672,489.358154699672,489.358154699672,0.09030940011143684,0.198227200191468,495.0583146996796,495.2581701995805,6.031424699816853,6.13134799990803,501.2580751995556,12.031305599957705,501.39143369998783,501.39143369998783,0.03157699992880225,0.1312849000096321,down,1.0575391999445856,502.491426799912,4.20999713242054e-05,0.09797280002385378,508.52508719963953,508.52508719963953,0.025222199968993664,0.13122549979016185,5.0,6.373518799897283,,,,,,,489.258155499585,489.258155499585,,501.35816709976643,501.35816709976643,,,,3684,Moral,2025-02-18_13h28.55.428,MoralCondition_v2,2022.2.5,29.936749627740127,
7,0,7,0,1,0,1,0,,,,,,,,,,,,,,,,,,,,,,,,,,,,,,,,,,,,,,,,,,,,,,,,,,,514.9246617997997,514.9246617997997,0.007489900104701519,0.09833359997719526,6.0,4.457913099788129,,,,,,,,,,,,,,,3684,Moral,2025-02-18_13h28.55.428,MoralCondition_v2,2022.2.5,29.936749627740127,
7,0,7,0,2,0,2,0,,,,,,,,,,,,,,,,,,,,,,,,,,,,,,,,,,,,,,,,,,,,,,,,,,,519.424569899682,519.424569899682,0.007739299908280373,0.09795599989593029,5.0,2.8583154999651015,,,,,,,,,,,,,,,3684,Moral,2025-02-18_13h28.55.428,MoralCondition_v2,2022.2.5,29.936749627740127,
7,0,7,0,3,0,3,0,,,,,,,,,,,,,,,,,,,,,,,,,,,,,,,,,,,,,,,,,,,,,,,,,,,522.3247103998438,522.3247103998438,0.006765900179743767,0.09919819980859756,1.0,5.693458800204098,,,,,,,,,,,,,,,3684,Moral,2025-02-18_13h28.55.428,MoralCondition_v2,2022.2.5,29.936749627740127,
7,0,7,0,4,0,4,0,,,,,,,,,,,,,,,,,,,,,,,,,,,,,,,,,,,,,,,,,,,,,,,,,,,528.0581256998703,528.0581256998703,0.007827599998563528,0.09842330031096935,3.0,4.158051500096917,,,,,,,,,,,,,,,3684,Moral,2025-02-18_13h28.55.428,MoralCondition_v2,2022.2.5,29.936749627740127,
7,0,7,0,5,0,5,0,,,,,,,,,,,,,,,,,,,,,,,,,,,,,,,,,,,,,,,,,,,,,,,,,,,532.2578681996092,532.2578681996092,0.008008699864149094,0.09835329977795482,2.0,2.3914283998310566,,,,,,,,,,,,,,,3684,Moral,2025-02-18_13h28.55.428,MoralCondition_v2,2022.2.5,29.936749627740127,
7,0,7,0,6,0,6,0,,,,,,,,,,,,,,,,,,,,,,,,,,,,,,,,,,,,,,,,,,,,,,,,,,,534.6914492999204,534.6914492999204,0.006998400203883648,0.09849809994921088,5.0,7.725800300016999,,,,,,,,,,,,,,,3684,Moral,2025-02-18_13h28.55.428,MoralCondition_v2,2022.2.5,29.936749627740127,
7,0,7,0,,,,,,,,,,,,,,,,,,,,,,,,,,,,,,,,,,,,,,,,,,,,,,,,,,,,,,,,,,,,,542.4579008999281,542.4579008999281,0.0006808997131884098,0.09909190004691482,1.0,3.499569000210613,,,,,,,,,3684,Moral,2025-02-18_13h28.55.428,MoralCondition_v2,2022.2.5,29.936749627740127,
8,0,8,0,0,0,0,0,,,,,,,,,,,,,,,,,,,,,545.9915016996674,0.00013730023056268692,0.09905300009995699,551.9913181997836,5.999033499974757,552.1746388999745,552.1746388999745,0.07783110020682216,0.18260239996016026,6.015778000000864,558.2745457999408,558.2745457999408,558.2745457999408,0.07343669980764389,0.18234899966046214,563.9748728997074,564.1746174995787,6.015685900114477,6.115717799868435,570.1747162998654,12.015850499738008,570.3079371997155,570.3079371997155,0.015832799952477217,0.11564899981021881,down,0.7490229001268744,571.1079578995705,6.289966404438019e-05,0.09769159974530339,577.1081152996048,577.1081152996048,0.009231999982148409,0.09775959979742765,5.0,6.889755300246179,,,,,,,558.1746705998667,558.1746705998667,,570.2746216999367,570.2746216999367,,577.1081152996048,,3684,Moral,2025-02-18_13h28.55.428,MoralCondition_v2,2022.2.5,29.936749627740127,
8,0,8,0,1,0,1,0,,,,,,,,,,,,,,,,,,,,,,,,,,,,,,,,,,,,,,,,,,,,,,,,,,,584.0578208998777,584.0578208998777,0.008611000142991543,0.1141234003007412,5.0,2.807372400071472,,,,,,,,,,,,,,,3684,Moral,2025-02-18_13h28.55.428,MoralCondition_v2,2022.2.5,29.936749627740127,
8,0,8,0,2,0,2,0,,,,,,,,,,,,,,,,,,,,,,,,,,,,,,,,,,,,,,,,,,,,,,,,,,,586.8910902999341,586.8910902999341,0.008435599971562624,0.0989012997597456,3.0,3.624526500236243,,,,,,,,,,,,,,,3684,Moral,2025-02-18_13h28.55.428,MoralCondition_v2,2022.2.5,29.936749627740127,
8,0,8,0,3,0,3,0,,,,,,,,,,,,,,,,,,,,,,,,,,,,,,,,,,,,,,,,,,,,,,,,,,,590.5578925996087,590.5578925996087,0.008301100227981806,0.09814970009028912,6.0,5.4241976998746395,,,,,,,,,,,,,,,3684,Moral,2025-02-18_13h28.55.428,MoralCondition_v2,2022.2.5,29.936749627740127,
8,0,8,0,4,0,4,0,,,,,,,,,,,,,,,,,,,,,,,,,,,,,,,,,,,,,,,,,,,,,,,,,,,596.0243024998344,596.0243024998344,0.006759800016880035,0.09878639969974756,6.0,3.59304659999907,,,,,,,,,,,,,,,3684,Moral,2025-02-18_13h28.55.428,MoralCondition_v2,2022.2.5,29.936749627740127,
8,0,8,0,5,0,5,0,,,,,,,,,,,,,,,,,,,,,,,,,,,,,,,,,,,,,,,,,,,,,,,,,,,599.6576534998603,599.6576534998603,0.00713689997792244,0.09889610018581152,2.0,4.159538599662483,,,,,,,,,,,,,,,3684,Moral,2025-02-18_13h28.55.428,MoralCondition_v2,2022.2.5,29.936749627740127,
8,0,8,0,6,0,6,0,,,,,,,,,,,,,,,,,,,,,,,,,,,,,,,,,,,,,,,,,,,,,,,,,,,603.8579849996604,603.8579849996604,0.0067863003350794315,0.09813000028952956,3.0,7.192464899737388,,,,,,,,,,,,,,,3684,Moral,2025-02-18_13h28.55.428,MoralCondition_v2,2022.2.5,29.936749627740127,
8,0,8,0,,,,,,,,,,,,,,,,,,,,,,,,,,,,,,,,,,,,,,,,,,,,,,,,,,,,,,,,,,,,,611.0913630998693,611.0913630998693,0.001205500215291977,0.09809570014476776,2.0,2.7653906997293234,,,,,,,,,3684,Moral,2025-02-18_13h28.55.428,MoralCondition_v2,2022.2.5,29.936749627740127,
9,0,9,0,0,0,0,0,,,,,,,,,,,,,,,,,,,,,613.8912074998952,0.00022829975932836533,0.09827859979122877,619.8910265997984,6.01485970010981,620.0745341996662,620.0745341996662,0.0799941997975111,0.1817574999295175,6.014715999830514,626.174417199567,626.174417199567,626.174417199567,0.07769359974190593,0.181791499722749,631.8744806000032,632.074494799599,6.014959199819714,6.114906399976462,638.0744859999977,12.014948099851608,638.2077446999028,638.2077446999028,0.015003299806267023,0.11495259962975979,up,0.9927325998432934,639.2577563999221,4.189973697066307e-05,0.09765279991552234,645.2749246996827,645.2749246996827,0.024616099894046783,0.11415709974244237,6.0,8.25741030042991,,,,,,,626.0744648999535,626.0744648999535,,638.1743764998391,638.1743764998391,,,6.0980913997627795,3684,Moral,2025-02-18_13h28.55.428,MoralCondition_v2,2022.2.5,29.936749627740127,
9,0,9,0,1,0,1,0,,,,,,,,,,,,,,,,,,,,,,,,,,,,,,,,,,,,,,,,,,,,,,,,,,,653.5742131997831,653.5742131997831,0.00656609982252121,0.09927419992163777,6.0,4.560510899871588,,,,,,,,,,,,,,,3684,Moral,2025-02-18_13h28.55.428,MoralCondition_v2,2022.2.5,29.936749627740127,
9,0,9,0,2,0,2,0,,,,,,,,,,,,,,,,,,,,,,,,,,,,,,,,,,,,,,,,,,,,,,,,,,,658.1741957999766,658.1741957999766,0.006832299754023552,0.09849169990047812,4.0,5.459369500167668,,,,,,,,,,,,,,,3684,Moral,2025-02-18_13h28.55.428,MoralCondition_v2,2022.2.5,29.936749627740127,
9,0,9,0,3,0,3,0,,,,,,,,,,,,,,,,,,,,,,,,,,,,,,,,,,,,,,,,,,,,,,,,,,,663.6742224995978,663.6742224995978,0.006615399848669767,0.09917609998956323,3.0,4.5603817999362946,,,,,,,,,,,,,,,3684,Moral,2025-02-18_13h28.55.428,MoralCondition_v2,2022.2.5,29.936749627740127,
9,0,9,0,4,0,4,0,,,,,,,,,,,,,,,,,,,,,,,,,,,,,,,,,,,,,,,,,,,,,,,,,,,668.274386299774,668.274386299774,0.009058899711817503,0.09901589993387461,2.0,1.9244963000528514,,,,,,,,,,,,,,,3684,Moral,2025-02-18_13h28.55.428,MoralCondition_v2,2022.2.5,29.936749627740127,
9,0,9,0,5,0,5,0,,,,,,,,,,,,,,,,,,,,,,,,,,,,,,,,,,,,,,,,,,,,,,,,,,,670.2410340998322,670.2410340998322,0.006778400391340256,0.09942640038207173,4.0,7.993473100010306,,,,,,,,,,,,,,,3684,Moral,2025-02-18_13h28.55.428,MoralCondition_v2,2022.2.5,29.936749627740127,
9,0,9,0,6,0,6,0,,,,,,,,,,,,,,,,,,,,,,,,,,,,,,,,,,,,,,,,,,,,,,,,,,,678.2743320995942,678.2743320995942,0.006093400064855814,0.0987846003845334,2.0,3.027158500161022,,,,,,,,,,,,,,,3684,Moral,2025-02-18_13h28.55.428,MoralCondition_v2,2022.2.5,29.936749627740127,
9,0,9,0,,,,,,,,,,,,,,,,,,,,,,,,,,,,,,,,,,,,,,,,,,,,,,,,,,,,,,,,,,,,,681.3410412999801,681.3410412999801,0.001775400247424841,0.09701510006561875,4.0,3.9304967001080513,,,,,,,,,3684,Moral,2025-02-18_13h28.55.428,MoralCondition_v2,2022.2.5,29.936749627740127,
10,0,10,0,0,0,0,0,,,,,,,,,,,,,,,,,,,,,685.3078798996285,0.00014030002057552338,0.09938360005617142,691.3242841996253,6.016428700182587,691.4910061997361,691.4910061997361,0.06987199978902936,0.18265420012176037,6.015936099924147,697.5743274996057,697.5743274996057,697.5743274996057,0.06634770007804036,0.1658521997742355,703.274182499852,703.4742716997862,5.99921409972012,6.099327699746937,709.4742718995549,11.999244299717247,709.6076397998258,709.6076397998258,4.649953916668892e-05,0.0991535997018218,down,1.289454000070691,710.9575662999414,8.430005982518196e-05,0.0978023000061512,716.9913069996983,716.9913069996983,0.026551099959760904,0.13111499976366758,5.0,4.172192299738526,,,,,,,697.490946599748,697.490946599748,,709.5742955999449,709.5742955999449,12.09926709998399,,,3684,Moral,2025-02-18_13h28.55.428,MoralCondition_v2,2022.2.5,29.936749627740127,
10,0,10,0,1,0,1,0,,,,,,,,,,,,,,,,,,,,,,,,,,,,,,,,,,,,,,,,,,,,,,,,,,,721.1908007999882,721.1908007999882,0.006578399799764156,0.09926729975268245,3.0,4.760216299910098,,,,,,,,,,,,,,,3684,Moral,2025-02-18_13h28.55.428,MoralCondition_v2,2022.2.5,29.936749627740127,
10,0,10,0,2,0,2,0,,,,,,,,,,,,,,,,,,,,,,,,,,,,,,,,,,,,,,,,,,,,,,,,,,,725.9907678999007,725.9907678999007,0.006809900049120188,0.09936810005456209,5.0,3.593804200179875,,,,,,,,,,,,,,,3684,Moral,2025-02-18_13h28.55.428,MoralCondition_v2,2022.2.5,29.936749627740127,
10,0,10,0,3,0,3,0,,,,,,,,,,,,,,,,,,,,,,,,,,,,,,,,,,,,,,,,,,,,,,,,,,,729.6243730997667,729.6243730997667,0.007030799984931946,0.0991504997946322,5.0,3.3932812996208668,,,,,,,,,,,,,,,3684,Moral,2025-02-18_13h28.55.428,MoralCondition_v2,2022.2.5,29.936749627740127,
10,0,10,0,4,0,4,0,,,,,,,,,,,,,,,,,,,,,,,,,,,,,,,,,,,,,,,,,,,,,,,,,,,733.0576042998582,733.0576042998582,0.0072248997166752815,0.09794229967519641,5.0,3.3583618998527527,,,,,,,,,,,,,,,3684,Moral,2025-02-18_13h28.55.428,MoralCondition_v2,2022.2.5,29.936749627740127,
10,0,10,0,5,0,5,0,,,,,,,,,,,,,,,,,,,,,,,,,,,,,,,,,,,,,,,,,,,,,,,,,,,736.457651199773,736.457651199773,0.009027599822729826,0.09753349982202053,6.0,4.2226492003537714,,,,,,,,,,,,,,,3684,Moral,2025-02-18_13h28.55.428,MoralCondition_v2,2022.2.5,29.936749627740127,
10,0,10,0,6,0,6,0,,,,,,,,,,,,,,,,,,,,,,,,,,,,,,,,,,,,,,,,,,,,,,,,,,,740.7243799995631,740.7243799995631,0.0065818000584840775,0.09925050009042025,2.0,3.427005599718541,,,,,,,,,,,,,,,3684,Moral,2025-02-18_13h28.55.428,MoralCondition_v2,2022.2.5,29.936749627740127,
10,0,10,0,,,,,,,,,,,,,,,,,,,,,,,,,,,,,,,,,,,,,,,,,,,,,,,,,,,,,,,,,,,,,744.1909541999921,744.1909541999921,0.000697100069373846,0.09933340037241578,2.0,2.4333536997437477,,,,,,,,,3684,Moral,2025-02-18_13h28.55.428,MoralCondition_v2,2022.2.5,29.936749627740127,
11,0,11,0,0,0,0,0,,,,,,,,,,,,,,,,,,,,,746.6577407997102,0.00013570021837949753,0.09906540019437671,752.6741467998363,6.015729800332338,752.8408076995984,752.8408076995984,0.0696495003066957,0.1827527000568807,6.015719000250101,758.9408330996521,758.9408330996521,758.9408330996521,0.07096120016649365,0.18258279981091619,764.6408191998489,764.840761799831,6.015725499950349,6.115878600161523,770.8407619995996,12.015720600262284,770.9740869998932,770.9740869998932,0.015864700078964233,0.11571619985625148,down,0.9469722998328507,771.9741047997959,5.060015246272087e-05,0.09792689979076385,778.0076728998683,778.0076728998683,0.025810400024056435,0.13128789979964495,5.0,3.1064165998250246,,,,,,,758.8407876999117,758.8407876999117,,770.9407413997687,770.9407413997687,,,,3684,Moral,2025-02-18_13h28.55.428,MoralCondition_v2,2022.2.5,29.936749627740127,
11,0,11,0,1,0,1,0,,,,,,,,,,,,,,,,,,,,,,,,,,,,,,,,,,,,,,,,,,,,,,,,,,,781.1577020999976,781.1577020999976,0.008315999992191792,0.11459199991077185,1.0,6.273792499676347,,,,,,,,,,,,,,,3684,Moral,2025-02-18_13h28.55.428,MoralCondition_v2,2022.2.5,29.936749627740127,
11,0,11,0,2,0,2,0,,,,,,,,,,,,,,,,,,,,,,,,,,,,,,,,,,,,,,,,,,,,,,,,,,,787.4574483996257,787.4574483996257,0.007139899767935276,0.09935429971665144,5.0,4.059837100096047,,,,,,,,,,,,,,,3684,Moral,2025-02-18_13h28.55.428,MoralCondition_v2,2022.2.5,29.936749627740127,
11,0,11,0,3,0,3,0,,,,,,,,,,,,,,,,,,,,,,,,,,,,,,,,,,,,,,,,,,,,,,,,,,,791.557507599704,791.557507599704,0.007303200196474791,0.09765180014073849,6.0,6.491267699748278,,,,,,,,,,,,,,,3684,Moral,2025-02-18_13h28.55.428,MoralCondition_v2,2022.2.5,29.936749627740127,
11,0,11,0,4,0,4,0,,,,,,,,,,,,,,,,,,,,,,,,,,,,,,,,,,,,,,,,,,,,,,,,,,,798.1075899996795,798.1075899996795,0.00835180003196001,0.11466279998421669,5.0,3.473846400156617,,,,,,,,,,,,,,,3684,Moral,2025-02-18_13h28.55.428,MoralCondition_v2,2022.2.5,29.936749627740127,
11,0,11,0,5,0,5,0,,,,,,,,,,,,,,,,,,,,,,,,,,,,,,,,,,,,,,,,,,,,,,,,,,,801.6071575996466,801.6071575996466,0.007688700221478939,0.09865240007638931,6.0,7.058467799797654,,,,,,,,,,,,,,,3684,Moral,2025-02-18_13h28.55.428,MoralCondition_v2,2022.2.5,29.936749627740127,
11,0,11,0,6,0,6,0,,,,,,,,,,,,,,,,,,,,,,,,,,,,,,,,,,,,,,,,,,,,,,,,,,,808.7072362997569,808.7072362997569,0.00724599976092577,0.09896529978141189,5.0,3.259453700389713,,,,,,,,,,,,,,,3684,Moral,2025-02-18_13h28.55.428,MoralCondition_v2,2022.2.5,29.936749627740127,
11,0,11,0,,,,,,,,,,,,,,,,,,,,,,,,,,,,,,,,,,,,,,,,,,,,,,,,,,,,,,,,,,,,,812.0070989998057,812.0070989998057,0.000526099931448698,0.09896390000358224,1.0,3.1664126003161073,,,,,,,,,3684,Moral,2025-02-18_13h28.55.428,MoralCondition_v2,2022.2.5,29.936749627740127,
12,0,12,0,0,0,0,0,,,,,,,,,,,,,,,,,,,,,815.2073625996709,0.00013459986075758934,0.09899700013920665,821.2239669999108,6.015907799825072,821.4572726995684,821.4572726995684,0.13528549997135997,0.24950799997895956,6.016010699793696,827.4905945998617,827.4905945998617,827.4905945998617,0.08274489967152476,0.1828077998943627,833.1906034997664,833.3904753997922,6.015757999848574,6.1161793996579945,839.3907751999795,12.016093499958515,839.5239166999236,839.5239166999236,0.016081299632787704,0.11579109961166978,down,0.7966848998330534,840.3572173998691,1.690024510025978e-05,0.0990241002291441,846.3737002997659,846.3737002997659,0.024287099950015545,0.11550169996917248,6.0,5.059136300347745,,,,,,,,,,839.4906319999136,839.4906319999136,,,,3684,Moral,2025-02-18_13h28.55.428,MoralCondition_v2,2022.2.5,29.936749627740127,
12,0,12,0,1,0,1,0,,,,,,,,,,,,,,,,,,,,,,,,,,,,,,,,,,,,,,,,,,,,,,,,,,,851.4739568997175,851.4739568997175,0.0073401001282036304,0.09779939986765385,5.0,1.95825030002743,,,,,,,,,,,,,,,3684,Moral,2025-02-18_13h28.55.428,MoralCondition_v2,2022.2.5,29.936749627740127,
12,0,12,0,2,0,2,0,,,,,,,,,,,,,,,,,,,,,,,,,,,,,,,,,,,,,,,,,,,,,,,,,,,853.4739196998999,853.4739196998999,0.007847200147807598,0.0977988000959158,6.0,3.7577253999188542,,,,,,,,,,,,,,,3684,Moral,2025-02-18_13h28.55.428,MoralCondition_v2,2022.2.5,29.936749627740127,
12,0,12,0,3,0,3,0,,,,,,,,,,,,,,,,,,,,,,,,,,,,,,,,,,,,,,,,,,,,,,,,,,,857.2904637996107,857.2904637996107,0.00918920012190938,0.11403070017695427,2.0,2.3058787998743355,,,,,,,,,,,,,,,3684,Moral,2025-02-18_13h28.55.428,MoralCondition_v2,2022.2.5,29.936749627740127,
12,0,12,0,4,0,4,0,,,,,,,,,,,,,,,,,,,,,,,,,,,,,,,,,,,,,,,,,,,,,,,,,,,859.6408103997819,859.6408103997819,0.00829590018838644,0.11429170006886125,5.0,5.573777600191534,,,,,,,,,,,,,,,3684,Moral,2025-02-18_13h28.55.428,MoralCondition_v2,2022.2.5,29.936749627740127,
12,0,12,0,5,0,5,0,,,,,,,,,,,,,,,,,,,,,,,,,,,,,,,,,,,,,,,,,,,,,,,,,,,865.257256699726,865.257256699726,0.007618299685418606,0.1140235997736454,3.0,3.9740483998320997,,,,,,,,,,,,,,,3684,Moral,2025-02-18_13h28.55.428,MoralCondition_v2,2022.2.5,29.936749627740127,
12,0,12,0,6,0,6,0,,,,,,,,,,,,,,,,,,,,,,,,,,,,,,,,,,,,,,,,,,,,,,,,,,,869.2740653995425,869.2740653995425,0.008328900206834078,0.11494520027190447,6.0,5.440640700049698,,,,,,,,,,,,,,,3684,Moral,2025-02-18_13h28.55.428,MoralCondition_v2,2022.2.5,29.936749627740127,
12,0,12,0,,,,,,,,,,,,,,,,,,,,,,,,,,,,,,,,,,,,,,,,,,,,,,,,,,,,,,,,,,,,,874.7404949995689,874.7404949995689,0.0015211999416351318,0.09762099990621209,2.0,2.9973542001098394,,,,,,,,,3684,Moral,2025-02-18_13h28.55.428,MoralCondition_v2,2022.2.5,29.936749627740127,
13,0,13,0,0,0,0,0,,,,,,,,,,,,,,,,,,,,,877.7740679997951,0.00026400014758110046,0.09808290004730225,883.790416599717,6.014675700105727,883.9572403999045,883.9572403999045,0.07484269980341196,0.18160020001232624,6.014671899843961,890.0570964999497,890.0570964999497,890.0570964999497,0.07481489982455969,0.18154469970613718,895.7569503998384,895.9570368998684,6.014680999796838,6.114654799923301,901.9571594996378,12.014812699984759,902.090395399835,902.090395399835,0.014962199609726667,0.11466179974377155,up,0.806704199872911,902.9403881998733,3.1299889087677e-05,0.09820739971473813,908.9402970997617,908.9402970997617,0.007020299788564444,0.09828579984605312,5.0,5.95873360009864,,,,,,,889.9571067998186,889.9571067998186,,902.0570576000027,902.0570576000027,,908.9402970997617,,3684,Moral,2025-02-18_13h28.55.428,MoralCondition_v2,2022.2.5,29.936749627740127,
13,0,13,0,1,0,1,0,,,,,,,,,,,,,,,,,,,,,,,,,,,,,,,,,,,,,,,,,,,,,,,,,,,914.9403764996678,914.9403764996678,0.007980199996381998,0.09730490017682314,5.0,2.9904145998880267,,,,,,,,,,,,,,,3684,Moral,2025-02-18_13h28.55.428,MoralCondition_v2,2022.2.5,29.936749627740127,
13,0,13,0,2,0,2,0,,,,,,,,,,,,,,,,,,,,,,,,,,,,,,,,,,,,,,,,,,,,,,,,,,,917.9736229996197,917.9736229996197,0.007387999910861254,0.09827119996771216,5.0,5.758522000163794,,,,,,,,,,,,,,,3684,Moral,2025-02-18_13h28.55.428,MoralCondition_v2,2022.2.5,29.936749627740127,
13,0,13,0,3,0,3,0,,,,,,,,,,,,,,,,,,,,,,,,,,,,,,,,,,,,,,,,,,,,,,,,,,,923.7735261996277,923.7735261996277,0.00752629991620779,0.09827560000121593,2.0,3.05839590029791,,,,,,,,,,,,,,,3684,Moral,2025-02-18_13h28.55.428,MoralCondition_v2,2022.2.5,29.936749627740127,
13,0,13,0,4,0,4,0,,,,,,,,,,,,,,,,,,,,,,,,,,,,,,,,,,,,,,,,,,,,,,,,,,,926.8736516996287,926.8736516996287,0.006617899984121323,0.0993193001486361,5.0,4.327077300287783,,,,,,,,,,,,,,,3684,Moral,2025-02-18_13h28.55.428,MoralCondition_v2,2022.2.5,29.936749627740127,
13,0,13,0,5,0,5,0,,,,,,,,,,,,,,,,,,,,,,,,,,,,,,,,,,,,,,,,,,,,,,,,,,,931.2403081995435,931.2403081995435,0.006829599849879742,0.09929820010438561,3.0,2.643822600133717,,,,,,,,,,,,,,,3684,Moral,2025-02-18_13h28.55.428,MoralCondition_v2,2022.2.5,29.936749627740127,
13,0,13,0,6,0,6,0,,,,,,,,,,,,,,,,,,,,,,,,,,,,,,,,,,,,,,,,,,,,,,,,,,,933.9235289995559,933.9235289995559,0.007920400239527225,0.09905300009995699,5.0,9.825338700320572,,,,,,,,,,,,,,,3684,Moral,2025-02-18_13h28.55.428,MoralCondition_v2,2022.2.5,29.936749627740127,
13,0,13,0,,,,,,,,,,,,,,,,,,,,,,,,,,,,,,,,,,,,,,,,,,,,,,,,,,,,,,,,,,,,,943.7903801999055,943.7903801999055,0.0007146997377276421,0.09932800009846687,4.0,3.93295479984954,,,,,,,,,3684,Moral,2025-02-18_13h28.55.428,MoralCondition_v2,2022.2.5,29.936749627740127,
14,0,14,0,0,0,0,0,,,,,,,,,,,,,,,,,,,,,947.7570004998706,0.00027559977024793625,0.0975039997138083,953.7735559996217,6.014194400049746,953.9402902997099,953.9402902997099,0.07443999964743853,0.18099529994651675,6.014152399729937,960.0401759999804,960.0401759999804,960.0401759999804,0.07246699975803494,0.18090169969946146,965.7401902996935,965.9401880996302,6.014177199918777,6.114246899727732,971.9401255999692,12.014111399650574,972.0734771997668,972.0734771997668,0.014342599548399448,0.11404899973422289,down,4.870966599788517,976.9901162995957,4.0699727833271027e-05,0.09799849987030029,983.0067617995664,983.0067617995664,0.025152800139039755,0.11469390010461211,5.0,2.7237859000451863,,,,,,,959.940183899831,959.940183899831,,972.0401288997382,972.0401288997382,,,,3684,Moral,2025-02-18_13h28.55.428,MoralCondition_v2,2022.2.5,29.936749627740127,
14,0,14,0,1,0,1,0,,,,,,,,,,,,,,,,,,,,,,,,,,,,,,,,,,,,,,,,,,,,,,,,,,,985.7734806998633,985.7734806998633,0.00848810002207756,0.09763129986822605,3.0,4.057089199777693,,,,,,,,,,,,,,,3684,Moral,2025-02-18_13h28.55.428,MoralCondition_v2,2022.2.5,29.936749627740127,
14,0,14,0,2,0,2,0,,,,,,,,,,,,,,,,,,,,,,,,,,,,,,,,,,,,,,,,,,,,,,,,,,,989.8732629995793,989.8732629995793,0.007375800050795078,0.09933610027655959,5.0,6.359598800074309,,,,,,,,,,,,,,,3684,Moral,2025-02-18_13h28.55.428,MoralCondition_v2,2022.2.5,29.936749627740127,
14,0,14,0,3,0,3,0,,,,,,,,,,,,,,,,,,,,,,,,,,,,,,,,,,,,,,,,,,,,,,,,,,,996.2733862996101,996.2733862996101,0.007026699837297201,0.09800150012597442,5.0,1.9920062003657222,,,,,,,,,,,,,,,3684,Moral,2025-02-18_13h28.55.428,MoralCondition_v2,2022.2.5,29.936749627740127,
14,0,14,0,4,0,4,0,,,,,,,,,,,,,,,,,,,,,,,,,,,,,,,,,,,,,,,,,,,,,,,,,,,998.3235598998144,998.3235598998144,0.008446599822491407,0.11400009971112013,5.0,2.5065346001647413,,,,,,,,,,,,,,,3684,Moral,2025-02-18_13h28.55.428,MoralCondition_v2,2022.2.5,29.936749627740127,
14,0,14,0,5,0,5,0,,,,,,,,,,,,,,,,,,,,,,,,,,,,,,,,,,,,,,,,,,,,,,,,,,,1000.856516899541,1000.856516899541,0.00912009971216321,0.09853419987484813,5.0,6.890248200390488,,,,,,,,,,,,,,,3684,Moral,2025-02-18_13h28.55.428,MoralCondition_v2,2022.2.5,29.936749627740127,
14,0,14,0,6,0,6,0,,,,,,,,,,,,,,,,,,,,,,,,,,,,,,,,,,,,,,,,,,,,,,,,,,,1007.8067072997801,1007.8067072997801,0.008288000244647264,0.11504509998485446,3.0,4.140943399630487,,,,,,,,,,,,,,,3684,Moral,2025-02-18_13h28.55.428,MoralCondition_v2,2022.2.5,29.936749627740127,
14,0,14,0,,,,,,,,,,,,,,,,,,,,,,,,,,,,,,,,,,,,,,,,,,,,,,,,,,,,,,,,,,,,,1011.9734415998682,1011.9734415998682,0.001414900179952383,0.0973077998496592,2.0,2.4308154000900686,,,,,,,,,3684,Moral,2025-02-18_13h28.55.428,MoralCondition_v2,2022.2.5,29.936749627740127,
15,0,15,0,0,0,0,0,,,,,,,,,,,,,,,,,,,,,1014.4402046999894,0.00014409981667995453,0.09946800023317337,1020.4399865996093,5.999048400204629,1020.6232221997343,1020.6232221997343,0.08064149972051382,0.1825000997632742,6.0156908999197185,1026.7234280998819,1026.7234280998819,1026.7234280998819,0.07077670004218817,0.18232270004227757,1032.4232589998282,1032.6232656999491,6.015700799878687,6.115644999779761,1038.6232397998683,12.015655799768865,1038.756591499783,1038.756591499783,0.01584529969841242,0.11580449994653463,down,0.6039154999889433,1039.423263499979,4.9800146371126175e-05,0.0980261997319758,1045.4401883999817,1045.4401883999817,0.00807589991018176,0.11473509995266795,5.0,5.040851199999452,,,,,,,1026.6233959998935,1026.6233959998935,,1038.7232632995583,1038.7232632995583,,1045.4401883999817,6.0990045000799,3684,Moral,2025-02-18_13h28.55.428,MoralCondition_v2,2022.2.5,29.936749627740127,
15,0,15,0,1,0,1,0,,,,,,,,,,,,,,,,,,,,,,,,,,,,,,,,,,,,,,,,,,,,,,,,,,,1050.5065053999424,1050.5065053999424,0.0069912998005747795,0.09941639984026551,6.0,3.2933018002659082,,,,,,,,,,,,,,,3684,Moral,2025-02-18_13h28.55.428,MoralCondition_v2,2022.2.5,29.936749627740127,
15,0,15,0,2,0,2,0,,,,,,,,,,,,,,,,,,,,,,,,,,,,,,,,,,,,,,,,,,,,,,,,,,,1053.857024199795,1053.857024199795,0.007330500055104494,0.11415310017764568,6.0,1.874323499854654,,,,,,,,,,,,,,,3684,Moral,2025-02-18_13h28.55.428,MoralCondition_v2,2022.2.5,29.936749627740127,
15,0,15,0,3,0,3,0,,,,,,,,,,,,,,,,,,,,,,,,,,,,,,,,,,,,,,,,,,,,,,,,,,,1055.7564477999695,1055.7564477999695,0.007508799899369478,0.09750790009275079,5.0,2.5241960999555886,,,,,,,,,,,,,,,3684,Moral,2025-02-18_13h28.55.428,MoralCondition_v2,2022.2.5,29.936749627740127,
15,0,15,0,4,0,4,0,,,,,,,,,,,,,,,,,,,,,,,,,,,,,,,,,,,,,,,,,,,,,,,,,,,1058.3231186997145,1058.3231186997145,0.007715099956840277,0.0977972000837326,5.0,3.191130999941379,,,,,,,,,,,,,,,3684,Moral,2025-02-18_13h28.55.428,MoralCondition_v2,2022.2.5,29.936749627740127,
15,0,15,0,5,0,5,0,,,,,,,,,,,,,,,,,,,,,,,,,,,,,,,,,,,,,,,,,,,,,,,,,,,1061.5566280996427,1061.5566280996427,0.005946800112724304,0.09932309994474053,2.0,3.360910899937153,,,,,,,,,,,,,,,3684,Moral,2025-02-18_13h28.55.428,MoralCondition_v2,2022.2.5,29.936749627740127,
15,0,15,0,6,0,6,0,,,,,,,,,,,,,,,,,,,,,,,,,,,,,,,,,,,,,,,,,,,,,,,,,,,1064.956478699576,1064.956478699576,0.00658530043438077,0.09933930030092597,5.0,4.927392200101167,,,,,,,,,,,,,,,3684,Moral,2025-02-18_13h28.55.428,MoralCondition_v2,2022.2.5,29.936749627740127,
15,0,15,0,,,,,,,,,,,,,,,,,,,,,,,,,,,,,,,,,,,,,,,,,,,,,,,,,,,,,,,,,,,,,1069.9230849999003,1069.9230849999003,0.0014049001038074493,0.09759719995781779,2.0,3.8309315997175872,,,,,,,,,3684,Moral,2025-02-18_13h28.55.428,MoralCondition_v2,2022.2.5,29.936749627740127,
16,0,16,0,0,0,0,0,,,,,,,,,,,,,,,,,,,,,1073.7900592996739,0.00021330034360289574,0.09893740015104413,1079.7896467996761,6.014950400218368,1079.989984399639,1079.989984399639,0.08623160002753139,0.19853230006992817,6.031759100034833,1086.0897627999075,1086.0897627999075,1086.0897627999075,0.09463310008868575,0.19843500014394522,1091.7897624997422,1091.9897310999222,6.03179519996047,6.131746099796146,1097.989799299743,12.031850799918175,1098.1230707997456,1098.1230707997456,0.03199189994484186,0.13169270008802414,up,0.5331108001992106,1098.6897001997568,3.169989213347435e-05,0.09689049981534481,1104.6896054996178,1104.6896054996178,0.003674000035971403,0.0969837000593543,5.0,3.760613199789077,,,,,,,1085.9897716999985,1085.9897716999985,,1098.089690899942,1098.089690899942,,1104.6896054996178,,3684,Moral,2025-02-18_13h28.55.428,MoralCondition_v2,2022.2.5,29.936749627740127,
16,0,16,0,1,0,1,0,,,,,,,,,,,,,,,,,,,,,,,,,,,,,,,,,,,,,,,,,,,,,,,,,,,1108.506329299882,1108.506329299882,0.012861699797213078,0.11420719977468252,6.0,2.9023070000112057,,,,,,,,,,,,,,,3684,Moral,2025-02-18_13h28.55.428,MoralCondition_v2,2022.2.5,29.936749627740127,
16,0,16,0,2,0,2,0,,,,,,,,,,,,,,,,,,,,,,,,,,,,,,,,,,,,,,,,,,,,,,,,,,,1111.4565586997196,1111.4565586997196,0.008295000065118074,0.11451760027557611,5.0,3.0074398000724614,,,,,,,,,,,,,,,3684,Moral,2025-02-18_13h28.55.428,MoralCondition_v2,2022.2.5,29.936749627740127,
16,0,16,0,3,0,3,0,,,,,,,,,,,,,,,,,,,,,,,,,,,,,,,,,,,,,,,,,,,,,,,,,,,1114.4897063998505,1114.4897063998505,0.006595199927687645,0.09926329972222447,4.0,2.56028199987486,,,,,,,,,,,,,,,3684,Moral,2025-02-18_13h28.55.428,MoralCondition_v2,2022.2.5,29.936749627740127,
16,0,16,0,4,0,4,0,,,,,,,,,,,,,,,,,,,,,,,,,,,,,,,,,,,,,,,,,,,,,,,,,,,1117.0896688997746,1117.0896688997746,0.007275000214576721,0.09795140009373426,2.0,3.3917245999909937,,,,,,,,,,,,,,,3684,Moral,2025-02-18_13h28.55.428,MoralCondition_v2,2022.2.5,29.936749627740127,
16,0,16,0,5,0,5,0,,,,,,,,,,,,,,,,,,,,,,,,,,,,,,,,,,,,,,,,,,,,,,,,,,,1120.523063799832,1120.523063799832,0.00765229994431138,0.09776580007746816,3.0,5.2245860998518765,,,,,,,,,,,,,,,3684,Moral,2025-02-18_13h28.55.428,MoralCondition_v2,2022.2.5,29.936749627740127,
16,0,16,0,6,0,6,0,,,,,,,,,,,,,,,,,,,,,,,,,,,,,,,,,,,,,,,,,,,,,,,,,,,1125.806464899797,1125.806464899797,0.007966399658471346,0.11436739983037114,3.0,2.640537300147116,,,,,,,,,,,,,,,3684,Moral,2025-02-18_13h28.55.428,MoralCondition_v2,2022.2.5,29.936749627740127,
16,0,16,0,,,,,,,,,,,,,,,,,,,,,,,,,,,,,,,,,,,,,,,,,,,,,,,,,,,,,,,,,,,,,1128.4730645995587,1128.4730645995587,0.0013271002098917961,0.09786810027435422,4.0,3.231039499863982,,,,,,,,,3684,Moral,2025-02-18_13h28.55.428,MoralCondition_v2,2022.2.5,29.936749627740127,
17,0,17,0,0,0,0,0,,,,,,,,,,,,,,,,,,,,,1131.739785999991,0.0001404997892677784,0.09927350003272295,1137.7561884997413,6.015756499953568,1137.9394667996094,1137.9394667996094,0.08457779977470636,0.19925619987770915,5.999162099789828,1144.0059976996854,1144.0059976996854,1144.0059976996854,0.06503219995647669,0.165707899723202,1149.7061818996444,1149.9062630999833,5.999179599806666,6.099111799616367,1155.9061470995657,11.999084699898958,1156.0394789995626,1156.0394789995626,-3.3000484108924866e-05,0.09899119986221194,down,0.5855529000982642,1156.6728308997117,3.100000321865082e-05,0.09833789989352226,1162.7061376995407,1162.7061376995407,0.026828200090676546,0.13167429994791746,5.0,6.305801699869335,,,,,,,1144.0059976996854,1144.0059976996854,6.099087900016457,1156.006158199627,1156.006158199627,12.099153799936175,,,3684,Moral,2025-02-18_13h28.55.428,MoralCondition_v2,2022.2.5,29.936749627740127,
17,0,17,0,1,0,1,0,,,,,,,,,,,,,,,,,,,,,,,,,,,,,,,,,,,,,,,,,,,,,,,,,,,1169.039584599901,1169.039584599901,0.005815600045025349,0.09909249981865287,2.0,3.1943681999109685,,,,,,,,,,,,,,,3684,Moral,2025-02-18_13h28.55.428,MoralCondition_v2,2022.2.5,29.936749627740127,
17,0,17,0,2,0,2,0,,,,,,,,,,,,,,,,,,,,,,,,,,,,,,,,,,,,,,,,,,,,,,,,,,,1172.2726649995893,1172.2726649995893,0.00682349968701601,0.09860539995133877,6.0,5.592564800288528,,,,,,,,,,,,,,,3684,Moral,2025-02-18_13h28.55.428,MoralCondition_v2,2022.2.5,29.936749627740127,
17,0,17,0,3,0,3,0,,,,,,,,,,,,,,,,,,,,,,,,,,,,,,,,,,,,,,,,,,,,,,,,,,,1177.9059715997428,1177.9059715997428,0.006625699810683727,0.0992815000936389,5.0,2.3270700997672975,,,,,,,,,,,,,,,3684,Moral,2025-02-18_13h28.55.428,MoralCondition_v2,2022.2.5,29.936749627740127,
17,0,17,0,4,0,4,0,,,,,,,,,,,,,,,,,,,,,,,,,,,,,,,,,,,,,,,,,,,,,,,,,,,1180.2727544996887,1180.2727544996887,0.008224999997764826,0.09794829972088337,5.0,2.6238310001790524,,,,,,,,,,,,,,,3684,Moral,2025-02-18_13h28.55.428,MoralCondition_v2,2022.2.5,29.936749627740127,
17,0,17,0,5,0,5,0,,,,,,,,,,,,,,,,,,,,,,,,,,,,,,,,,,,,,,,,,,,,,,,,,,,1182.9395991996862,1182.9395991996862,0.0064085000194609165,0.09896730026230216,3.0,3.4936559996567667,,,,,,,,,,,,,,,3684,Moral,2025-02-18_13h28.55.428,MoralCondition_v2,2022.2.5,29.936749627740127,
17,0,17,0,6,0,6,0,,,,,,,,,,,,,,,,,,,,,,,,,,,,,,,,,,,,,,,,,,,,,,,,,,,1186.472822099924,1186.472822099924,0.007962099742144346,0.09825900010764599,5.0,4.091215300373733,,,,,,,,,,,,,,,3684,Moral,2025-02-18_13h28.55.428,MoralCondition_v2,2022.2.5,29.936749627740127,
17,0,17,0,,,,,,,,,,,,,,,,,,,,,,,,,,,,,,,,,,,,,,,,,,,,,,,,,,,,,,,,,,,,,1190.606043599546,1190.606043599546,0.0012307995930314064,0.09800429968163371,1.0,2.731502200011164,,,,,,,,,3684,Moral,2025-02-18_13h28.55.428,MoralCondition_v2,2022.2.5,29.936749627740127,
18,0,18,0,0,0,0,0,,,,,,,,,,,,,,,,,,,,,1193.3728944999166,0.00032719969749450684,0.09804359963163733,1199.3892998998053,6.014613999985158,1199.5893116998486,1199.5893116998486,0.11294039990752935,0.21462449990212917,6.014613399747759,1205.6559208999388,1205.6559208999388,1205.6559208999388,0.06954729976132512,0.18150309938937426,1211.3559289998375,1211.5559284999035,6.014637999702245,6.114552099723369,1217.5559323998168,12.014621999580413,1217.6892363997176,1217.6892363997176,0.015015099663287401,0.11453899927437305,down,0.8390220999717712,1218.589250699617,4.279986023902893e-05,0.09796229982748628,1224.6058883997612,1224.6058883997612,0.009185399860143661,0.11461280006915331,5.0,5.53976249974221,,,,,,,,,,1217.6559330997989,1217.6559330997989,,1224.6058883997612,,3684,Moral,2025-02-18_13h28.55.428,MoralCondition_v2,2022.2.5,29.936749627740127,
18,0,18,0,1,0,1,0,,,,,,,,,,,,,,,,,,,,,,,,,,,,,,,,,,,,,,,,,,,,,,,,,,,1230.1724238996394,1230.1724238996394,0.0071480004116892815,0.09927060035988688,3.0,3.2932910001836717,,,,,,,,,,,,,,,3684,Moral,2025-02-18_13h28.55.428,MoralCondition_v2,2022.2.5,29.936749627740127,
18,0,18,0,2,0,2,0,,,,,,,,,,,,,,,,,,,,,,,,,,,,,,,,,,,,,,,,,,,,,,,,,,,1233.5226311995648,1233.5226311995648,0.00963070010766387,0.11573270009830594,6.0,5.474127599969506,,,,,,,,,,,,,,,3684,Moral,2025-02-18_13h28.55.428,MoralCondition_v2,2022.2.5,29.936749627740127,
18,0,18,0,3,0,3,0,,,,,,,,,,,,,,,,,,,,,,,,,,,,,,,,,,,,,,,,,,,,,,,,,,,1239.039126099553,1239.039126099553,0.0092140999622643,0.11388210020959377,6.0,5.2725653001107275,,,,,,,,,,,,,,,3684,Moral,2025-02-18_13h28.55.428,MoralCondition_v2,2022.2.5,29.936749627740127,
18,0,18,0,4,0,4,0,,,,,,,,,,,,,,,,,,,,,,,,,,,,,,,,,,,,,,,,,,,,,,,,,,,1244.3392207999714,1244.3392207999714,0.007159099914133549,0.09768129978328943,2.0,2.0581859000958502,,,,,,,,,,,,,,,3684,Moral,2025-02-18_13h28.55.428,MoralCondition_v2,2022.2.5,29.936749627740127,
18,0,18,0,5,0,5,0,,,,,,,,,,,,,,,,,,,,,,,,,,,,,,,,,,,,,,,,,,,,,,,,,,,1246.439028099645,1246.439028099645,0.007355900015681982,0.09770460007712245,6.0,3.8912910004146397,,,,,,,,,,,,,,,3684,Moral,2025-02-18_13h28.55.428,MoralCondition_v2,2022.2.5,29.936749627740127,
18,0,18,0,6,0,6,0,,,,,,,,,,,,,,,,,,,,,,,,,,,,,,,,,,,,,,,,,,,,,,,,,,,1250.3723032996058,1250.3723032996058,0.007729200180619955,0.09799049980938435,5.0,2.0913201002404094,,,,,,,,,,,,,,,3684,Moral,2025-02-18_13h28.55.428,MoralCondition_v2,2022.2.5,29.936749627740127,
18,0,18,0,,,,,,,,,,,,,,,,,,,,,,,,,,,,,,,,,,,,,,,,,,,,,,,,,,,,,,,,,,,,,1252.5059438999742,1252.5059438999742,0.001079500187188387,0.09803680004552007,1.0,2.231517500244081,,,,,,,,,3684,Moral,2025-02-18_13h28.55.428,MoralCondition_v2,2022.2.5,29.936749627740127,
19,0,19,0,0,0,0,0,,,,,,,,,,,,,,,,,,,,,1254.7728830999695,0.00013619987294077873,0.09922500001266599,1260.755629199557,6.015739199705422,1260.9391905996017,1260.9391905996017,0.06462599989026785,0.16620109975337982,5.999139199964702,1267.0390170998871,1267.0390170998871,1267.0390170998871,0.055956299882382154,0.16608559945598245,1272.7390094995499,1272.972511400003,5.999106599483639,6.099126499611884,1278.9723892998882,11.999195299576968,1279.0723011996597,1279.0723011996597,2.2699590772390366e-05,0.09886939963325858,down,0.8003330999054015,1279.922361199744,3.750016912817955e-05,0.11456190003082156,1285.9557080999948,1285.9557080999948,0.025585699826478958,0.1312338998541236,5.0,3.9398794998414814,,,,,,,1266.939171299804,1266.939171299804,6.099321299698204,1279.0390035999008,1279.0390035999008,12.099136699456722,,6.099023999646306,3684,Moral,2025-02-18_13h28.55.428,MoralCondition_v2,2022.2.5,29.936749627740127,
19,0,19,0,1,0,1,0,,,,,,,,,,,,,,,,,,,,,,,,,,,,,,,,,,,,,,,,,,,,,,,,,,,1289.922290199902,1289.922290199902,0.006567100062966347,0.09921419993042946,5.0,3.5607781000435352,,,,,,,,,,,,,,,3684,Moral,2025-02-18_13h28.55.428,MoralCondition_v2,2022.2.5,29.936749627740127,
19,0,19,0,2,0,2,0,,,,,,,,,,,,,,,,,,,,,,,,,,,,,,,,,,,,,,,,,,,,,,,,,,,1293.5223553995602,1293.5223553995602,0.007523799780756235,0.09791789995506406,6.0,2.9583295001648366,,,,,,,,,,,,,,,3684,Moral,2025-02-18_13h28.55.428,MoralCondition_v2,2022.2.5,29.936749627740127,
19,0,19,0,3,0,3,0,,,,,,,,,,,,,,,,,,,,,,,,,,,,,,,,,,,,,,,,,,,,,,,,,,,1296.5221823998727,1296.5221823998727,0.008307600393891335,0.09730330016463995,1.0,3.9568153000436723,,,,,,,,,,,,,,,3684,Moral,2025-02-18_13h28.55.428,MoralCondition_v2,2022.2.5,29.936749627740127,
19,0,19,0,4,0,4,0,,,,,,,,,,,,,,,,,,,,,,,,,,,,,,,,,,,,,,,,,,,,,,,,,,,1300.522165699862,1300.522165699862,0.0067032999359071255,0.0990178999491036,6.0,3.0267956000752747,,,,,,,,,,,,,,,3684,Moral,2025-02-18_13h28.55.428,MoralCondition_v2,2022.2.5,29.936749627740127,
19,0,19,0,5,0,5,0,,,,,,,,,,,,,,,,,,,,,,,,,,,,,,,,,,,,,,,,,,,,,,,,,,,1303.5889683999121,1303.5889683999121,0.0077887000516057014,0.09797460027039051,5.0,8.524482500273734,,,,,,,,,,,,,,,3684,Moral,2025-02-18_13h28.55.428,MoralCondition_v2,2022.2.5,29.936749627740127,
19,0,19,0,6,0,6,0,,,,,,,,,,,,,,,,,,,,,,,,,,,,,,,,,,,,,,,,,,,,,,,,,,,1312.155722899828,1312.155722899828,0.006767800077795982,0.09930030023679137,5.0,2.8931958000175655,,,,,,,,,,,,,,,3684,Moral,2025-02-18_13h28.55.428,MoralCondition_v2,2022.2.5,29.936749627740127,
19,0,19,0,,,,,,,,,,,,,,,,,,,,,,,,,,,,,,,,,,,,,,,,,,,,,,,,,,,,,,,,,,,,,1315.0890372996219,1315.0890372996219,0.001973299775272608,0.0972898998297751,1.0,3.7972591002471745,,,,,,,,,3684,Moral,2025-02-18_13h28.55.428,MoralCondition_v2,2022.2.5,29.936749627740127,
