loop.thisRepN,loop.thisTrialN,loop.thisN,loop.thisIndex,evaluate_all_emotions.thisRepN,evaluate_all_emotions.thisTrialN,evaluate_all_emotions.thisN,evaluate_all_emotions.thisIndex,sync_beep_1.started,p_port.started,p_port.stopped,sync_beep_2.started,sync_beep_3.started,sync_beep_4.started,sync_beep_4.stopped,baseline.started,p_port_2.started,p_port_2.stopped,baseline.stopped,p_port_3.started,p_port_3.stopped,Game_Start_Text.started,p_port_4.started,p_port_4.stopped,key_resp.started,key_resp.keys,key_resp.rt,fixation_cross.started,p_port_5.started,p_port_5.stopped,fixation_cross.stopped,p_port_6.started,p_port_6.stopped,player_image_intro.started,player_name_intro.started,p_port_7.started,p_port_7.stopped,p_port_8.started,player_image_offer.started,player_name_offer.started,proposed_split.started,p_port_9.started,p_port_9.stopped,proposed_split.stopped,accept_reject.started,p_port_15.started,p_port_15.stopped,accept_reject.stopped,p_port_10.started,arrow_instructions.started,offer_choice.started,p_port_11.started,p_port_11.stopped,offer_choice.keys,offer_choice.rt,Instructions_Affinity_Score.started,p_port_12.started,p_port_12.stopped,Emotion_Image.started,AffinityScore.started,p_port_13.started,p_port_13.stopped,AffinityScore.response,AffinityScore.rt,Instruction.started,Moral_Disgust_Score.started,p_port_14.started,p_port_14.stopped,Moral_Disgust_Score.response,Moral_Disgust_Score.rt,player_image_offer.stopped,player_name_offer.stopped,player_image_intro.stopped,player_name_intro.stopped,p_port_8.stopped,p_port_10.stopped,Instructions_Affinity_Score.stopped,participant,session,date,expName,psychopyVersion,frameRate,
,,,,,,,,23.736466099508107,0.0007845996879041195,0.11115279980003834,24.318227409943937,24.918333110027014,25.518231010157614,25.834833499975502,25.834833499975502,0.027734799776226282,0.12801749957725406,40.81814330024645,15.011048599611968,15.094416999723762,40.93492140015587,0.027873599901795387,0.1278058998286724,41.43491890002042,space,2.878985600080341,,,,,,,,,,,,,,,,,,,,,,,,,,,,,,,,,,,,,,,,,,,,,,,,,,,3777,Moral,2024-10-08_12h39.27.553,MoralCondition_v2,2022.2.5,30.016599172950084,
0,0,0,0,0,0,0,0,,,,,,,,,,,,,,,,,,,,44.35157479997724,0.0012662000954151154,0.09837350016459823,50.33466160017997,6.014694599900395,6.098160000052303,50.58487119991332,50.58487119991332,0.08939349977299571,0.23148670000955462,6.031667799688876,56.66822610003874,56.66822610003874,56.66822610003874,0.08850079961121082,0.21504919975996017,62.368263400159776,62.53495720028877,6.015090799890459,6.115036499686539,68.53490089997649,12.015029899775982,68.66825760016218,68.66825760016218,0.015246199443936348,0.11499799974262714,up,1.9657256002537906,70.68490990018472,0.00012770015746355057,0.09776439983397722,76.71815060032532,76.71815060032532,0.028712899889796972,0.13109140004962683,7.0,4.969886899925768,,,,,,,,,,,,,,3777,Moral,2024-10-08_12h39.27.553,MoralCondition_v2,2022.2.5,30.016599172950084,
0,0,0,0,1,0,1,0,,,,,,,,,,,,,,,,,,,,,,,,,,,,,,,,,,,,,,,,,,,,,,,,,,,81.71824169997126,81.71824169997126,0.008562400005757809,0.09933420037850738,2.0,3.5584364999085665,,,,,,,,,,,,,,3777,Moral,2024-10-08_12h39.27.553,MoralCondition_v2,2022.2.5,30.016599172950084,
0,0,0,0,2,0,2,0,,,,,,,,,,,,,,,,,,,,,,,,,,,,,,,,,,,,,,,,,,,,,,,,,,,85.3348719002679,85.3348719002679,0.01454540016129613,0.11459550028666854,2.0,1.2342389998957515,,,,,,,,,,,,,,3777,Moral,2024-10-08_12h39.27.553,MoralCondition_v2,2022.2.5,30.016599172950084,
0,0,0,0,3,0,3,0,,,,,,,,,,,,,,,,,,,,,,,,,,,,,,,,,,,,,,,,,,,,,,,,,,,86.61825980013236,86.61825980013236,0.010501100216060877,0.11600130004808307,7.0,1.4730891003273427,,,,,,,,,,,,,,3777,Moral,2024-10-08_12h39.27.553,MoralCondition_v2,2022.2.5,30.016599172950084,
0,0,0,0,4,0,4,0,,,,,,,,,,,,,,,,,,,,,,,,,,,,,,,,,,,,,,,,,,,,,,,,,,,88.13474090024829,88.13474090024829,0.014612399972975254,0.11417279997840524,4.0,3.1670230999588966,,,,,,,,,,,,,,3777,Moral,2024-10-08_12h39.27.553,MoralCondition_v2,2022.2.5,30.016599172950084,
0,0,0,0,5,0,5,0,,,,,,,,,,,,,,,,,,,,,,,,,,,,,,,,,,,,,,,,,,,,,,,,,,,91.35157239995897,91.35157239995897,0.011793299578130245,0.11414620000869036,2.0,1.7367302998900414,,,,,,,,,,,,,,3777,Moral,2024-10-08_12h39.27.553,MoralCondition_v2,2022.2.5,30.016599172950084,
0,0,0,0,6,0,6,0,,,,,,,,,,,,,,,,,,,,,,,,,,,,,,,,,,,,,,,,,,,,,,,,,,,93.13480579992756,93.13480579992756,0.009162100031971931,0.11577949998900294,1.0,1.7743732002563775,,,,,,,,,,,,,,3777,Moral,2024-10-08_12h39.27.553,MoralCondition_v2,2022.2.5,30.016599172950084,
0,0,0,0,,,,,,,,,,,,,,,,,,,,,,,,,,,,,,,,,,,,,,,,,,,,,,,,,,,,,,,,,,,,,94.9348553000018,94.9348553000018,0.0014553996734321117,0.09748649969696999,7.0,4.264104799833149,,,,,,,,3777,Moral,2024-10-08_12h39.27.553,MoralCondition_v2,2022.2.5,30.016599172950084,
1,0,1,0,0,0,0,0,,,,,,,,,,,,,,,,,,,,99.23516000015661,0.0003062998875975609,0.09766090009361506,105.23496349994093,6.031117799691856,,105.45139389997348,105.45139389997348,0.11158149968832731,0.21431179996579885,6.014594199601561,111.501438499894,111.501438499894,111.501438499894,0.06837009964510798,0.16451249970123172,117.20142390020192,117.43496329989284,6.0311461999081075,6.130943399854004,123.43488549999893,12.031067799776793,123.56815689988434,123.56815689988434,0.03109239973127842,0.13098259968683124,down,0.8253218997269869,124.43486190028489,4.369998350739479e-05,0.09787030005827546,130.468111500144,130.468111500144,0.028167900163680315,0.1312639000825584,6.0,3.3720778999850154,,,,,,,123.50151530001312,123.50151530001312,,,,,,3777,Moral,2024-10-08_12h39.27.553,MoralCondition_v2,2022.2.5,30.016599172950084,
1,0,1,0,1,0,1,0,,,,,,,,,,,,,,,,,,,,,,,,,,,,,,,,,,,,,,,,,,,,,,,,,,,133.8682150999084,133.8682150999084,0.006299099884927273,0.0984450001269579,2.0,1.4596285000443459,,,,,,,,,,,,,,3777,Moral,2024-10-08_12h39.27.553,MoralCondition_v2,2022.2.5,30.016599172950084,
1,0,1,0,2,0,2,0,,,,,,,,,,,,,,,,,,,,,,,,,,,,,,,,,,,,,,,,,,,,,,,,,,,135.36819220008329,135.36819220008329,0.007608199957758188,0.09751220000907779,1.0,1.1578478999435902,,,,,,,,,,,,,,3777,Moral,2024-10-08_12h39.27.553,MoralCondition_v2,2022.2.5,30.016599172950084,
1,0,1,0,3,0,3,0,,,,,,,,,,,,,,,,,,,,,,,,,,,,,,,,,,,,,,,,,,,,,,,,,,,136.56816560029984,136.56816560029984,0.006806300021708012,0.09849540004506707,3.0,1.1592112998478115,,,,,,,,,,,,,,3777,Moral,2024-10-08_12h39.27.553,MoralCondition_v2,2022.2.5,30.016599172950084,
1,0,1,0,4,0,4,0,,,,,,,,,,,,,,,,,,,,,,,,,,,,,,,,,,,,,,,,,,,,,,,,,,,137.7682378999889,137.7682378999889,0.00834239972755313,0.098299500066787,2.0,1.1573469997383654,,,,,,,,,,,,,,3777,Moral,2024-10-08_12h39.27.553,MoralCondition_v2,2022.2.5,30.016599172950084,
1,0,1,0,5,0,5,0,,,,,,,,,,,,,,,,,,,,,,,,,,,,,,,,,,,,,,,,,,,,,,,,,,,138.9851031000726,138.9851031000726,0.008251999970525503,0.1145192002877593,4.0,1.507261899765581,,,,,,,,,,,,,,3777,Moral,2024-10-08_12h39.27.553,MoralCondition_v2,2022.2.5,30.016599172950084,
1,0,1,0,6,0,6,0,,,,,,,,,,,,,,,,,,,,,,,,,,,,,,,,,,,,,,,,,,,,,,,,,,,140.5183942001313,140.5183942001313,0.006823900155723095,0.09925269987434149,3.0,1.093614799901843,,,,,,,,,,,,,,3777,Moral,2024-10-08_12h39.27.553,MoralCondition_v2,2022.2.5,30.016599172950084,
1,0,1,0,,,,,,,,,,,,,,,,,,,,,,,,,,,,,,,,,,,,,,,,,,,,,,,,,,,,,,,,,,,,,141.6516010002233,141.6516010002233,0.001297099981456995,0.09738919977098703,1.0,6.664036799687892,,,,,,,,3777,Moral,2024-10-08_12h39.27.553,MoralCondition_v2,2022.2.5,30.016599172950084,
2,0,2,0,0,0,0,0,,,,,,,,,,,,,,,,,,,,148.35166819998994,0.00013640010729432106,0.0996624999679625,154.35167980007827,5.999433100223541,6.099315600004047,154.51799400011078,154.51799400011078,0.05282530002295971,0.1658185999840498,5.999145899899304,160.61823760019615,160.61823760019615,160.61823760019615,0.05216330010443926,0.16613119980320334,166.31810040026903,166.51830090023577,5.999380600173026,6.099070500116795,172.51810600003228,11.999251499772072,172.6516093001701,172.6516093001701,8.270004764199257e-05,0.0992081998847425,down,0.6064034998416901,173.30144939990714,5.4200179874897e-05,0.098033900372684,179.31802160013467,179.31802160013467,0.02609529998153448,0.11458540009334683,3.0,0.2895202003419399,,,,,,,172.61812720028684,172.61812720028684,160.51823320006952,160.51823320006952,6.09934200020507,12.099214499816298,,3777,Moral,2024-10-08_12h39.27.553,MoralCondition_v2,2022.2.5,30.016599172950084,
2,0,2,0,1,0,1,0,,,,,,,,,,,,,,,,,,,,,,,,,,,,,,,,,,,,,,,,,,,,,,,,,,,179.65139190014452,179.65139190014452,0.008220000192523003,0.09752950025722384,6.0,3.623678599949926,,,,,,,,,,,,,,3777,Moral,2024-10-08_12h39.27.553,MoralCondition_v2,2022.2.5,30.016599172950084,
2,0,2,0,2,0,2,0,,,,,,,,,,,,,,,,,,,,,,,,,,,,,,,,,,,,,,,,,,,,,,,,,,,183.31797500001267,183.31797500001267,0.0077089001424610615,0.09752510022372007,5.0,1.7910143001936376,,,,,,,,,,,,,,3777,Moral,2024-10-08_12h39.27.553,MoralCondition_v2,2022.2.5,30.016599172950084,
2,0,2,0,3,0,3,0,,,,,,,,,,,,,,,,,,,,,,,,,,,,,,,,,,,,,,,,,,,,,,,,,,,185.1514461999759,185.1514461999759,0.0066176000982522964,0.09927730029448867,7.0,1.0268798000179231,,,,,,,,,,,,,,3777,Moral,2024-10-08_12h39.27.553,MoralCondition_v2,2022.2.5,30.016599172950084,
2,0,2,0,4,0,4,0,,,,,,,,,,,,,,,,,,,,,,,,,,,,,,,,,,,,,,,,,,,,,,,,,,,186.21816259995103,186.21816259995103,0.007396599743515253,0.09759299969300628,5.0,1.8911942997947335,,,,,,,,,,,,,,3777,Moral,2024-10-08_12h39.27.553,MoralCondition_v2,2022.2.5,30.016599172950084,
2,0,2,0,5,0,5,0,,,,,,,,,,,,,,,,,,,,,,,,,,,,,,,,,,,,,,,,,,,,,,,,,,,188.15129119995981,188.15129119995981,0.006559299770742655,0.09939400013536215,4.0,1.6939089996740222,,,,,,,,,,,,,,3777,Moral,2024-10-08_12h39.27.553,MoralCondition_v2,2022.2.5,30.016599172950084,
2,0,2,0,6,0,6,0,,,,,,,,,,,,,,,,,,,,,,,,,,,,,,,,,,,,,,,,,,,,,,,,,,,189.88476660009474,189.88476660009474,0.006382400169968605,0.09915050026029348,3.0,1.4267023000866175,,,,,,,,,,,,,,3777,Moral,2024-10-08_12h39.27.553,MoralCondition_v2,2022.2.5,30.016599172950084,
2,0,2,0,,,,,,,,,,,,,,,,,,,,,,,,,,,,,,,,,,,,,,,,,,,,,,,,,,,,,,,,,,,,,191.3514867001213,191.3514867001213,0.0012908000499010086,0.0977274002507329,1.0,2.331105399876833,,,,,,,,3777,Moral,2024-10-08_12h39.27.553,MoralCondition_v2,2022.2.5,30.016599172950084,
3,0,3,0,0,0,0,0,,,,,,,,,,,,,,,,,,,,193.71825870033354,0.00026059988886117935,0.09823670005425811,199.71802610019222,6.031553099863231,,199.88486350001767,199.88486350001767,0.0627136998809874,0.1649134997278452,6.031561299692839,206.00141050014645,206.00141050014645,206.00141050014645,0.06760039972141385,0.18159989966079593,211.70141760027036,211.90140630025417,6.014910999685526,6.114979899954051,217.90138739999384,12.014930299948901,218.03471489995718,218.03471489995718,0.01504989992827177,0.11472329962998629,up,0.5669427001848817,218.65138480020687,0.0001071002334356308,0.09805760020390153,224.65125619992614,224.65125619992614,0.00788420019671321,0.09814359992742538,4.0,2.757695300038904,,,,,,,218.00137409986928,218.00137409986928,205.8679438000545,205.8679438000545,,,224.65125619992614,3777,Moral,2024-10-08_12h39.27.553,MoralCondition_v2,2022.2.5,30.016599172950084,
3,0,3,0,1,0,1,0,,,,,,,,,,,,,,,,,,,,,,,,,,,,,,,,,,,,,,,,,,,,,,,,,,,227.45133790001273,227.45133790001273,0.006928900256752968,0.0989024001173675,3.0,1.0932196001522243,,,,,,,,,,,,,,3777,Moral,2024-10-08_12h39.27.553,MoralCondition_v2,2022.2.5,30.016599172950084,
3,0,3,0,2,0,2,0,,,,,,,,,,,,,,,,,,,,,,,,,,,,,,,,,,,,,,,,,,,,,,,,,,,228.58477680012584,228.58477680012584,0.007223799824714661,0.0980744999833405,4.0,1.1919513000175357,,,,,,,,,,,,,,3777,Moral,2024-10-08_12h39.27.553,MoralCondition_v2,2022.2.5,30.016599172950084,
3,0,3,0,3,0,3,0,,,,,,,,,,,,,,,,,,,,,,,,,,,,,,,,,,,,,,,,,,,,,,,,,,,229.83490499993786,229.83490499993786,0.007863500155508518,0.11446310020983219,2.0,1.0408665998838842,,,,,,,,,,,,,,3777,Moral,2024-10-08_12h39.27.553,MoralCondition_v2,2022.2.5,30.016599172950084,
3,0,3,0,4,0,4,0,,,,,,,,,,,,,,,,,,,,,,,,,,,,,,,,,,,,,,,,,,,,,,,,,,,230.91821769997478,230.91821769997478,0.00883009983226657,0.11469430010765791,3.0,1.1731585003435612,,,,,,,,,,,,,,3777,Moral,2024-10-08_12h39.27.553,MoralCondition_v2,2022.2.5,30.016599172950084,
3,0,3,0,5,0,5,0,,,,,,,,,,,,,,,,,,,,,,,,,,,,,,,,,,,,,,,,,,,,,,,,,,,232.13488190015778,232.13488190015778,0.007553900126367807,0.11401439970359206,7.0,1.6084030997008085,,,,,,,,,,,,,,3777,Moral,2024-10-08_12h39.27.553,MoralCondition_v2,2022.2.5,30.016599172950084,
3,0,3,0,6,0,6,0,,,,,,,,,,,,,,,,,,,,,,,,,,,,,,,,,,,,,,,,,,,,,,,,,,,233.76797290006652,233.76797290006652,0.007760999724268913,0.0980744999833405,1.0,1.4245084999129176,,,,,,,,,,,,,,3777,Moral,2024-10-08_12h39.27.553,MoralCondition_v2,2022.2.5,30.016599172950084,
3,0,3,0,,,,,,,,,,,,,,,,,,,,,,,,,,,,,,,,,,,,,,,,,,,,,,,,,,,,,,,,,,,,,235.2346990001388,235.2346990001388,0.0020173997618258,0.09747959999367595,7.0,3.9965637996792793,,,,,,,,3777,Moral,2024-10-08_12h39.27.553,MoralCondition_v2,2022.2.5,30.016599172950084,
4,0,4,0,0,0,0,0,,,,,,,,,,,,,,,,,,,,239.26802950026467,0.0004365001805126667,0.09732830012217164,245.26801180001348,6.0307380999438465,,245.46806479990482,245.46806479990482,0.08585770009085536,0.19760610023513436,6.0306792999617755,251.5678449999541,251.5678449999541,251.5678449999541,0.0856874999590218,0.1973044998012483,257.26797030027956,257.4679902000353,6.030795999802649,6.130643399897963,263.4679938000627,12.030703499913216,263.6014081002213,263.6014081002213,0.031049999874085188,0.1306344997137785,down,0.9041415001265705,264.5679441001266,5.8399979025125504e-05,0.09794319979846478,270.58459650026634,270.58459650026634,0.010525699704885483,0.1147902999073267,4.0,2.6053756000474095,,,,,,,263.5680794999935,263.5680794999935,251.46802029991522,251.46802029991522,,,270.58459650026634,3777,Moral,2024-10-08_12h39.27.553,MoralCondition_v2,2022.2.5,30.016599172950084,
4,0,4,0,1,0,1,0,,,,,,,,,,,,,,,,,,,,,,,,,,,,,,,,,,,,,,,,,,,,,,,,,,,273.2179594999179,273.2179594999179,0.00715319998562336,0.09742530016228557,1.0,1.7245884998701513,,,,,,,,,,,,,,3777,Moral,2024-10-08_12h39.27.553,MoralCondition_v2,2022.2.5,30.016599172950084,
4,0,4,0,2,0,2,0,,,,,,,,,,,,,,,,,,,,,,,,,,,,,,,,,,,,,,,,,,,,,,,,,,,274.98455619998276,274.98455619998276,0.007482599932700396,0.0983572001568973,3.0,1.1584415002726018,,,,,,,,,,,,,,3777,Moral,2024-10-08_12h39.27.553,MoralCondition_v2,2022.2.5,30.016599172950084,
4,0,4,0,3,0,3,0,,,,,,,,,,,,,,,,,,,,,,,,,,,,,,,,,,,,,,,,,,,,,,,,,,,276.1844422998838,276.1844422998838,0.006065600086003542,0.09879419999197125,5.0,1.393738199956715,,,,,,,,,,,,,,3777,Moral,2024-10-08_12h39.27.553,MoralCondition_v2,2022.2.5,30.016599172950084,
4,0,4,0,4,0,4,0,,,,,,,,,,,,,,,,,,,,,,,,,,,,,,,,,,,,,,,,,,,,,,,,,,,277.6178311002441,277.6178311002441,0.007017999887466431,0.09807129995897412,6.0,2.158692799974233,,,,,,,,,,,,,,3777,Moral,2024-10-08_12h39.27.553,MoralCondition_v2,2022.2.5,30.016599172950084,
4,0,4,0,5,0,5,0,,,,,,,,,,,,,,,,,,,,,,,,,,,,,,,,,,,,,,,,,,,,,,,,,,,279.81797889992595,279.81797889992595,0.006894899997860193,0.09828799962997437,4.0,2.2254325998947024,,,,,,,,,,,,,,3777,Moral,2024-10-08_12h39.27.553,MoralCondition_v2,2022.2.5,30.016599172950084,
4,0,4,0,6,0,6,0,,,,,,,,,,,,,,,,,,,,,,,,,,,,,,,,,,,,,,,,,,,,,,,,,,,282.10132860019803,282.10132860019803,0.00931580038741231,0.11429170006886125,7.0,1.13983070012182,,,,,,,,,,,,,,3777,Moral,2024-10-08_12h39.27.553,MoralCondition_v2,2022.2.5,30.016599172950084,
4,0,4,0,,,,,,,,,,,,,,,,,,,,,,,,,,,,,,,,,,,,,,,,,,,,,,,,,,,,,,,,,,,,,283.2679922003299,283.2679922003299,0.0012411000207066536,0.09785179980099201,1.0,2.231243399903178,,,,,,,,3777,Moral,2024-10-08_12h39.27.553,MoralCondition_v2,2022.2.5,30.016599172950084,
5,0,5,0,0,0,0,0,,,,,,,,,,,,,,,,,,,,285.5347851999104,0.00015259999781847,0.09932579984888434,291.534472099971,6.015768399927765,,291.76779100019485,291.76779100019485,0.11977649992331862,0.2324971999041736,5.999367000069469,297.8344199000858,297.8344199000858,297.8344199000858,0.09325010003522038,0.1992770000360906,303.5345316003077,303.70115670002997,5.999202999752015,6.099152700044215,309.70117440028116,11.999196500051767,309.83452140027657,309.83452140027657,0.00011129956692457199,0.09911239985376596,up,0.4472238998860121,310.3344829999842,4.009995609521866e-05,0.0981255997903645,316.3513719001785,316.3513719001785,0.008419400081038475,0.11477999994531274,7.0,2.6072576995939016,,,,,,,309.83452140027657,309.83452140027657,,,6.099172699730843,12.099107899703085,316.3513719001785,3777,Moral,2024-10-08_12h39.27.553,MoralCondition_v2,2022.2.5,30.016599172950084,
5,0,5,0,1,0,1,0,,,,,,,,,,,,,,,,,,,,,,,,,,,,,,,,,,,,,,,,,,,,,,,,,,,318.98439759993926,318.98439759993926,0.007004600018262863,0.09928319975733757,4.0,1.2599362996406853,,,,,,,,,,,,,,3777,Moral,2024-10-08_12h39.27.553,MoralCondition_v2,2022.2.5,30.016599172950084,
5,0,5,0,2,0,2,0,,,,,,,,,,,,,,,,,,,,,,,,,,,,,,,,,,,,,,,,,,,,,,,,,,,320.30122460005805,320.30122460005805,0.010468400083482265,0.11381130013614893,3.0,1.0709485998377204,,,,,,,,,,,,,,3777,Moral,2024-10-08_12h39.27.553,MoralCondition_v2,2022.2.5,30.016599172950084,
5,0,5,0,3,0,3,0,,,,,,,,,,,,,,,,,,,,,,,,,,,,,,,,,,,,,,,,,,,,,,,,,,,321.40116479992867,321.40116479992867,0.008544699754565954,0.09784979978576303,3.0,1.190082499757409,,,,,,,,,,,,,,3777,Moral,2024-10-08_12h39.27.553,MoralCondition_v2,2022.2.5,30.016599172950084,
5,0,5,0,4,0,4,0,,,,,,,,,,,,,,,,,,,,,,,,,,,,,,,,,,,,,,,,,,,,,,,,,,,322.6513930000365,322.6513930000365,0.008512699976563454,0.11400010017678142,3.0,0.9730388997122645,,,,,,,,,,,,,,3777,Moral,2024-10-08_12h39.27.553,MoralCondition_v2,2022.2.5,30.016599172950084,
5,0,5,0,5,0,5,0,,,,,,,,,,,,,,,,,,,,,,,,,,,,,,,,,,,,,,,,,,,,,,,,,,,323.6512372000143,323.6512372000143,0.007010799832642078,0.09800260001793504,2.0,0.9586868002079427,,,,,,,,,,,,,,3777,Moral,2024-10-08_12h39.27.553,MoralCondition_v2,2022.2.5,30.016599172950084,
5,0,5,0,6,0,6,0,,,,,,,,,,,,,,,,,,,,,,,,,,,,,,,,,,,,,,,,,,,,,,,,,,,324.6680322000757,324.6680322000757,0.009279099758714437,0.1142575996927917,2.0,1.5394262997433543,,,,,,,,,,,,,,3777,Moral,2024-10-08_12h39.27.553,MoralCondition_v2,2022.2.5,30.016599172950084,
5,0,5,0,,,,,,,,,,,,,,,,,,,,,,,,,,,,,,,,,,,,,,,,,,,,,,,,,,,,,,,,,,,,,326.23455649986863,326.23455649986863,0.0012249001301825047,0.09783390024676919,7.0,10.73084620013833,,,,,,,,3777,Moral,2024-10-08_12h39.27.553,MoralCondition_v2,2022.2.5,30.016599172950084,
6,0,6,0,0,0,0,0,,,,,,,,,,,,,,,,,,,,337.0013574003242,0.0002691000699996948,0.09748109988868237,343.00114740012214,6.0310996999032795,,343.2343995999545,343.2343995999545,0.12178659997880459,0.2312356997281313,6.030948499683291,349.30126450024545,349.30126450024545,349.30126450024545,0.08625019993633032,0.19763709977269173,355.0010830000974,355.20123769994825,6.0311733996495605,6.130977099761367,361.201021600049,12.031085799913853,361.3008038001135,361.3008038001135,0.014128399547189474,0.09735519951209426,up,1.797010799869895,363.1509925001301,5.5499840527772903e-05,0.09767200006172061,369.15127089992166,369.15127089992166,0.006851600017398596,0.09773370018228889,7.0,2.891950700432062,,,,,,,361.2842335999012,361.2842335999012,,,,,369.15127089992166,3777,Moral,2024-10-08_12h39.27.553,MoralCondition_v2,2022.2.5,30.016599172950084,
6,0,6,0,1,0,1,0,,,,,,,,,,,,,,,,,,,,,,,,,,,,,,,,,,,,,,,,,,,,,,,,,,,372.08447950007394,372.08447950007394,0.006444899830967188,0.09935809997841716,3.0,1.3610551999881864,,,,,,,,,,,,,,3777,Moral,2024-10-08_12h39.27.553,MoralCondition_v2,2022.2.5,30.016599172950084,
6,0,6,0,2,0,2,0,,,,,,,,,,,,,,,,,,,,,,,,,,,,,,,,,,,,,,,,,,,,,,,,,,,373.48459260025993,373.48459260025993,0.0074038999155163765,0.09799280017614365,3.0,1.2580495001748204,,,,,,,,,,,,,,3777,Moral,2024-10-08_12h39.27.553,MoralCondition_v2,2022.2.5,30.016599172950084,
6,0,6,0,3,0,3,0,,,,,,,,,,,,,,,,,,,,,,,,,,,,,,,,,,,,,,,,,,,,,,,,,,,374.7842230000533,374.7842230000533,0.00784670002758503,0.09790070028975606,2.0,0.8246120000258088,,,,,,,,,,,,,,3777,Moral,2024-10-08_12h39.27.553,MoralCondition_v2,2022.2.5,30.016599172950084,
6,0,6,0,4,0,4,0,,,,,,,,,,,,,,,,,,,,,,,,,,,,,,,,,,,,,,,,,,,,,,,,,,,375.66783880023286,375.66783880023286,0.007539300248026848,0.11410810006782413,3.0,0.8742244001477957,,,,,,,,,,,,,,3777,Moral,2024-10-08_12h39.27.553,MoralCondition_v2,2022.2.5,30.016599172950084,
6,0,6,0,5,0,5,0,,,,,,,,,,,,,,,,,,,,,,,,,,,,,,,,,,,,,,,,,,,,,,,,,,,376.56748649990186,376.56748649990186,0.007132499944418669,0.09838580014184117,1.0,1.459082799963653,,,,,,,,,,,,,,3777,Moral,2024-10-08_12h39.27.553,MoralCondition_v2,2022.2.5,30.016599172950084,
6,0,6,0,6,0,6,0,,,,,,,,,,,,,,,,,,,,,,,,,,,,,,,,,,,,,,,,,,,,,,,,,,,378.0849526999518,378.0849526999518,0.009142499882727861,0.11404139967635274,3.0,1.1725432998500764,,,,,,,,,,,,,,3777,Moral,2024-10-08_12h39.27.553,MoralCondition_v2,2022.2.5,30.016599172950084,
6,0,6,0,,,,,,,,,,,,,,,,,,,,,,,,,,,,,,,,,,,,,,,,,,,,,,,,,,,,,,,,,,,,,379.28431840008125,379.28431840008125,0.0012888000346720219,0.09757919982075691,7.0,4.130731400102377,,,,,,,,3777,Moral,2024-10-08_12h39.27.553,MoralCondition_v2,2022.2.5,30.016599172950084,
7,0,7,0,0,0,0,0,,,,,,,,,,,,,,,,,,,,383.45100919995457,0.0005243998020887375,0.0973280998878181,389.4676799001172,6.014039499685168,,389.6513431998901,389.6513431998901,0.0870793997310102,0.19739039987325668,6.030678699724376,395.7508259001188,395.7508259001188,395.7508259001188,0.09103089990094304,0.19737989967688918,401.45106940018013,401.65098300017416,6.03069659974426,6.13066599983722,407.65093720005825,12.030670499894768,407.78427760023624,407.78427760023624,0.030936799477785826,0.1305677997879684,up,0.5141003001481295,408.35094220004976,3.8899946957826614e-05,0.09777599992230535,414.38438780000433,414.38438780000433,0.025646100286394358,0.1311301002278924,3.0,2.0729861999861896,,,,,,,407.75097989989445,407.75097989989445,395.6509648999199,395.6509648999199,,,,3777,Moral,2024-10-08_12h39.27.553,MoralCondition_v2,2022.2.5,30.016599172950084,
7,0,7,0,1,0,1,0,,,,,,,,,,,,,,,,,,,,,,,,,,,,,,,,,,,,,,,,,,,,,,,,,,,416.4842651002109,416.4842651002109,0.006656200159341097,0.09942509979009628,7.0,1.2939398996531963,,,,,,,,,,,,,,3777,Moral,2024-10-08_12h39.27.553,MoralCondition_v2,2022.2.5,30.016599172950084,
7,0,7,0,2,0,2,0,,,,,,,,,,,,,,,,,,,,,,,,,,,,,,,,,,,,,,,,,,,,,,,,,,,417.8179465001449,417.8179465001449,0.006976500153541565,0.09729619976133108,3.0,0.9911352996714413,,,,,,,,,,,,,,3777,Moral,2024-10-08_12h39.27.553,MoralCondition_v2,2022.2.5,30.016599172950084,
7,0,7,0,3,0,3,0,,,,,,,,,,,,,,,,,,,,,,,,,,,,,,,,,,,,,,,,,,,,,,,,,,,418.8678628001362,418.8678628001362,0.007885799743235111,0.11438649985939264,4.0,1.2407748997211456,,,,,,,,,,,,,,3777,Moral,2024-10-08_12h39.27.553,MoralCondition_v2,2022.2.5,30.016599172950084,
7,0,7,0,4,0,4,0,,,,,,,,,,,,,,,,,,,,,,,,,,,,,,,,,,,,,,,,,,,,,,,,,,,420.13422679994255,420.13422679994255,0.00711239967495203,0.09735419973731041,1.0,1.257982900366187,,,,,,,,,,,,,,3777,Moral,2024-10-08_12h39.27.553,MoralCondition_v2,2022.2.5,30.016599172950084,
7,0,7,0,5,0,5,0,,,,,,,,,,,,,,,,,,,,,,,,,,,,,,,,,,,,,,,,,,,,,,,,,,,421.4341005999595,421.4341005999595,0.007060700096189976,0.09918820019811392,3.0,0.9597197999246418,,,,,,,,,,,,,,3777,Moral,2024-10-08_12h39.27.553,MoralCondition_v2,2022.2.5,30.016599172950084,
7,0,7,0,6,0,6,0,,,,,,,,,,,,,,,,,,,,,,,,,,,,,,,,,,,,,,,,,,,,,,,,,,,422.43430020008236,422.43430020008236,0.007946199737489223,0.09762679971754551,2.0,1.390895999968052,,,,,,,,,,,,,,3777,Moral,2024-10-08_12h39.27.553,MoralCondition_v2,2022.2.5,30.016599172950084,
7,0,7,0,,,,,,,,,,,,,,,,,,,,,,,,,,,,,,,,,,,,,,,,,,,,,,,,,,,,,,,,,,,,,423.86748210014775,423.86748210014775,0.0012826998718082905,0.09784719999879599,7.0,8.73094730032608,,,,,,,,3777,Moral,2024-10-08_12h39.27.553,MoralCondition_v2,2022.2.5,30.016599172950084,
8,0,8,0,0,0,0,0,,,,,,,,,,,,,,,,,,,,432.63423930015415,0.0003114999271929264,0.09853889979422092,438.6508859000169,6.015242699999362,,438.8175373999402,438.8175373999402,0.06992859952151775,0.18191379960626364,6.015216199681163,444.90086519997567,444.90086519997567,444.90086519997567,0.0700133997015655,0.16524239955469966,450.6008335002698,450.8341728001833,6.031898099463433,6.131848499644548,456.83411910012364,12.031838299706578,456.96748480014503,456.96748480014503,0.03202309971675277,0.13185019977390766,down,0.43462800001725554,457.4673782000318,4.630023613572121e-05,0.09775560023263097,463.5011114999652,463.5011114999652,0.025767900049686432,0.1310844998806715,2.0,2.073135499842465,,,,,,,456.90078590018675,456.90078590018675,444.81752210017294,444.81752210017294,,,,3777,Moral,2024-10-08_12h39.27.553,MoralCondition_v2,2022.2.5,30.016599172950084,
8,0,8,0,1,0,1,0,,,,,,,,,,,,,,,,,,,,,,,,,,,,,,,,,,,,,,,,,,,,,,,,,,,465.6006292998791,465.6006292998791,0.006628999952226877,0.09932120004668832,5.0,1.6267621000297368,,,,,,,,,,,,,,3777,Moral,2024-10-08_12h39.27.553,MoralCondition_v2,2022.2.5,30.016599172950084,
8,0,8,0,2,0,2,0,,,,,,,,,,,,,,,,,,,,,,,,,,,,,,,,,,,,,,,,,,,,,,,,,,,467.2673065001145,467.2673065001145,0.006459999829530716,0.09923959989100695,5.0,0.9602982997894287,,,,,,,,,,,,,,3777,Moral,2024-10-08_12h39.27.553,MoralCondition_v2,2022.2.5,30.016599172950084,
8,0,8,0,3,0,3,0,,,,,,,,,,,,,,,,,,,,,,,,,,,,,,,,,,,,,,,,,,,,,,,,,,,468.26738259987906,468.26738259987906,0.007106800097972155,0.0990014998242259,7.0,1.2267780001275241,,,,,,,,,,,,,,3777,Moral,2024-10-08_12h39.27.553,MoralCondition_v2,2022.2.5,30.016599172950084,
8,0,8,0,4,0,4,0,,,,,,,,,,,,,,,,,,,,,,,,,,,,,,,,,,,,,,,,,,,,,,,,,,,469.5341342003085,469.5341342003085,0.007818900048732758,0.09905159985646605,5.0,1.458620199933648,,,,,,,,,,,,,,3777,Moral,2024-10-08_12h39.27.553,MoralCondition_v2,2022.2.5,30.016599172950084,
8,0,8,0,5,0,5,0,,,,,,,,,,,,,,,,,,,,,,,,,,,,,,,,,,,,,,,,,,,,,,,,,,,471.0341509003192,471.0341509003192,0.008113199844956398,0.09866699995473027,5.0,0.9582008998841047,,,,,,,,,,,,,,3777,Moral,2024-10-08_12h39.27.553,MoralCondition_v2,2022.2.5,30.016599172950084,
8,0,8,0,6,0,6,0,,,,,,,,,,,,,,,,,,,,,,,,,,,,,,,,,,,,,,,,,,,,,,,,,,,472.034517200198,472.034517200198,0.007527200039476156,0.09858819982036948,6.0,1.3917480004020035,,,,,,,,,,,,,,3777,Moral,2024-10-08_12h39.27.553,MoralCondition_v2,2022.2.5,30.016599172950084,
8,0,8,0,,,,,,,,,,,,,,,,,,,,,,,,,,,,,,,,,,,,,,,,,,,,,,,,,,,,,,,,,,,,,473.4675346999429,473.4675346999429,0.0012558996677398682,0.0981922997161746,2.0,2.964441700372845,,,,,,,,3777,Moral,2024-10-08_12h39.27.553,MoralCondition_v2,2022.2.5,30.016599172950084,
9,0,9,0,0,0,0,0,,,,,,,,,,,,,,,,,,,,476.46765680005774,0.00027059996500611305,0.09797010011970997,482.46732950024307,6.0310609000734985,,482.65077940002084,482.65077940002084,0.07288149977102876,0.18137659970670938,6.014332300052047,488.751457599923,488.751457599923,488.751457599923,0.07786289975047112,0.1813043998554349,494.4507225002162,494.650712300092,6.014459099620581,6.114436799660325,500.6507927002385,12.014581399969757,500.78399500017986,500.78399500017986,0.014589999802410603,0.1143928999081254,up,1.0819570003077388,501.9173476002179,5.119992420077324e-05,0.0981041002087295,507.9341818001121,507.9341818001121,0.008850600104779005,0.11466439999639988,1.0,2.940532899927348,,,,,,,500.7506709001027,500.7506709001027,488.65070210024714,488.65070210024714,,,507.9341818001121,3777,Moral,2024-10-08_12h39.27.553,MoralCondition_v2,2022.2.5,30.016599172950084,
9,0,9,0,1,0,1,0,,,,,,,,,,,,,,,,,,,,,,,,,,,,,,,,,,,,,,,,,,,,,,,,,,,510.9007227001712,510.9007227001712,0.007912300061434507,0.09910780005156994,7.0,1.3590544001199305,,,,,,,,,,,,,,3777,Moral,2024-10-08_12h39.27.553,MoralCondition_v2,2022.2.5,30.016599172950084,
9,0,9,0,2,0,2,0,,,,,,,,,,,,,,,,,,,,,,,,,,,,,,,,,,,,,,,,,,,,,,,,,,,512.3174986001104,512.3174986001104,0.007916700094938278,0.11427679983898997,3.0,1.1074324999935925,,,,,,,,,,,,,,3777,Moral,2024-10-08_12h39.27.553,MoralCondition_v2,2022.2.5,30.016599172950084,
9,0,9,0,3,0,3,0,,,,,,,,,,,,,,,,,,,,,,,,,,,,,,,,,,,,,,,,,,,,,,,,,,,513.4506767001003,513.4506767001003,0.006534299813210964,0.09925560001283884,3.0,1.360335800331086,,,,,,,,,,,,,,3777,Moral,2024-10-08_12h39.27.553,MoralCondition_v2,2022.2.5,30.016599172950084,
9,0,9,0,4,0,4,0,,,,,,,,,,,,,,,,,,,,,,,,,,,,,,,,,,,,,,,,,,,,,,,,,,,514.8506606998853,514.8506606998853,0.007611500099301338,0.09774390002712607,3.0,0.9581772000528872,,,,,,,,,,,,,,3777,Moral,2024-10-08_12h39.27.553,MoralCondition_v2,2022.2.5,30.016599172950084,
9,0,9,0,5,0,5,0,,,,,,,,,,,,,,,,,,,,,,,,,,,,,,,,,,,,,,,,,,,,,,,,,,,515.8504274003208,515.8504274003208,0.0065076001919806,0.09930310025811195,4.0,1.5103608998470008,,,,,,,,,,,,,,3777,Moral,2024-10-08_12h39.27.553,MoralCondition_v2,2022.2.5,30.016599172950084,
9,0,9,0,6,0,6,0,,,,,,,,,,,,,,,,,,,,,,,,,,,,,,,,,,,,,,,,,,,,,,,,,,,517.4005638002418,517.4005638002418,0.007392800413072109,0.09783049998804927,3.0,1.0579770999029279,,,,,,,,,,,,,,3777,Moral,2024-10-08_12h39.27.553,MoralCondition_v2,2022.2.5,30.016599172950084,
9,0,9,0,,,,,,,,,,,,,,,,,,,,,,,,,,,,,,,,,,,,,,,,,,,,,,,,,,,,,,,,,,,,,518.5006915000267,518.5006915000267,0.001079800073057413,0.09827739978209138,7.0,8.698409200180322,,,,,,,,3777,Moral,2024-10-08_12h39.27.553,MoralCondition_v2,2022.2.5,30.016599172950084,
10,0,10,0,0,0,0,0,,,,,,,,,,,,,,,,,,,,527.2341895001009,0.0002405000850558281,0.09762350004166365,533.250598799903,6.01445039967075,,533.4173449999653,533.4173449999653,0.06932759983465075,0.18094769958406687,6.014232899993658,539.5171890002675,539.5171890002675,539.5171890002675,0.06727329967543483,0.18090399960055947,545.2172341002151,545.4174327999353,6.014473899733275,6.114244899712503,551.4172415002249,12.014320899732411,551.5505353002809,551.5505353002809,0.014485199470072985,0.1144810994155705,down,1.0995872002094984,552.7003909000196,4.7099776566028595e-05,0.11458239983767271,558.7173758000135,558.7173758000135,0.024879199918359518,0.11443759966641665,5.0,2.8910000999458134,,,,,,,551.5171917001717,551.5171917001717,539.4173345998861,539.4173345998861,,,,3777,Moral,2024-10-08_12h39.27.553,MoralCondition_v2,2022.2.5,30.016599172950084,
10,0,10,0,1,0,1,0,,,,,,,,,,,,,,,,,,,,,,,,,,,,,,,,,,,,,,,,,,,,,,,,,,,561.6504343003035,561.6504343003035,0.006395100150257349,0.09823720017448068,5.0,0.7260616002604365,,,,,,,,,,,,,,3777,Moral,2024-10-08_12h39.27.553,MoralCondition_v2,2022.2.5,30.016599172950084,
10,0,10,0,2,0,2,0,,,,,,,,,,,,,,,,,,,,,,,,,,,,,,,,,,,,,,,,,,,,,,,,,,,562.4172383002006,562.4172383002006,0.008108299691230059,0.09785639960318804,2.0,1.5904945000074804,,,,,,,,,,,,,,3777,Moral,2024-10-08_12h39.27.553,MoralCondition_v2,2022.2.5,30.016599172950084,
10,0,10,0,3,0,3,0,,,,,,,,,,,,,,,,,,,,,,,,,,,,,,,,,,,,,,,,,,,,,,,,,,,564.050345600117,564.050345600117,0.007775200065225363,0.0975983003154397,5.0,1.0241823000833392,,,,,,,,,,,,,,3777,Moral,2024-10-08_12h39.27.553,MoralCondition_v2,2022.2.5,30.016599172950084,
10,0,10,0,4,0,4,0,,,,,,,,,,,,,,,,,,,,,,,,,,,,,,,,,,,,,,,,,,,,,,,,,,,565.1342549002729,565.1342549002729,0.007478100247681141,0.11426760023459792,4.0,1.4410882000811398,,,,,,,,,,,,,,3777,Moral,2024-10-08_12h39.27.553,MoralCondition_v2,2022.2.5,30.016599172950084,
10,0,10,0,5,0,5,0,,,,,,,,,,,,,,,,,,,,,,,,,,,,,,,,,,,,,,,,,,,,,,,,,,,566.6003950000741,566.6003950000741,0.00695070018991828,0.09953910019248724,7.0,1.526607200037688,,,,,,,,,,,,,,3777,Moral,2024-10-08_12h39.27.553,MoralCondition_v2,2022.2.5,30.016599172950084,
10,0,10,0,6,0,6,0,,,,,,,,,,,,,,,,,,,,,,,,,,,,,,,,,,,,,,,,,,,,,,,,,,,568.1670772000216,568.1670772000216,0.006732900161296129,0.09927539993077517,6.0,1.8602289999835193,,,,,,,,,,,,,,3777,Moral,2024-10-08_12h39.27.553,MoralCondition_v2,2022.2.5,30.016599172950084,
10,0,10,0,,,,,,,,,,,,,,,,,,,,,,,,,,,,,,,,,,,,,,,,,,,,,,,,,,,,,,,,,,,,,570.0672514000908,570.0672514000908,0.0014198003336787224,0.09772170009091496,2.0,8.830676099751145,,,,,,,,3777,Moral,2024-10-08_12h39.27.553,MoralCondition_v2,2022.2.5,30.016599172950084,
11,0,11,0,0,0,0,0,,,,,,,,,,,,,,,,,,,,578.93376610009,0.00021190010011196136,0.09832549979910254,584.9337315000594,6.031596899963915,,585.133612500038,585.133612500038,0.09533629985526204,0.19840569980442524,6.031656499952078,591.2335850000381,591.2335850000381,591.2335850000381,0.0962302996776998,0.19844079995527864,596.9337328001857,597.1337501001544,6.031608499586582,6.13137219985947,603.1336706001312,12.031539699994028,603.2670272001997,603.2670272001997,0.03172909980639815,0.13150169979780912,up,0.4385602995753288,603.7670264001936,4.610000178217888e-05,0.09786369977518916,609.7839802000672,609.7839802000672,0.009133299812674522,0.11467480007559061,3.0,2.9400251996703446,,,,,,,603.2337179002352,603.2337179002352,591.1337224002928,591.1337224002928,,,609.7839802000672,3777,Moral,2024-10-08_12h39.27.553,MoralCondition_v2,2022.2.5,30.016599172950084,
11,0,11,0,1,0,1,0,,,,,,,,,,,,,,,,,,,,,,,,,,,,,,,,,,,,,,,,,,,,,,,,,,,612.7503007003106,612.7503007003106,0.006908799987286329,0.09911529999226332,2.0,1.0930963000282645,,,,,,,,,,,,,,3777,Moral,2024-10-08_12h39.27.553,MoralCondition_v2,2022.2.5,30.016599172950084,
11,0,11,0,2,0,2,0,,,,,,,,,,,,,,,,,,,,,,,,,,,,,,,,,,,,,,,,,,,,,,,,,,,613.8836133000441,613.8836133000441,0.007576300296932459,0.09805739996954799,3.0,1.424647499807179,,,,,,,,,,,,,,3777,Moral,2024-10-08_12h39.27.553,MoralCondition_v2,2022.2.5,30.016599172950084,
11,0,11,0,3,0,3,0,,,,,,,,,,,,,,,,,,,,,,,,,,,,,,,,,,,,,,,,,,,,,,,,,,,615.3504488002509,615.3504488002509,0.0080917002633214,0.0976120000705123,3.0,0.8907813997939229,,,,,,,,,,,,,,3777,Moral,2024-10-08_12h39.27.553,MoralCondition_v2,2022.2.5,30.016599172950084,
11,0,11,0,4,0,4,0,,,,,,,,,,,,,,,,,,,,,,,,,,,,,,,,,,,,,,,,,,,,,,,,,,,616.2834596000612,616.2834596000612,0.00733570009469986,0.09799520019441843,6.0,1.3585691000334918,,,,,,,,,,,,,,3777,Moral,2024-10-08_12h39.27.553,MoralCondition_v2,2022.2.5,30.016599172950084,
11,0,11,0,5,0,5,0,,,,,,,,,,,,,,,,,,,,,,,,,,,,,,,,,,,,,,,,,,,,,,,,,,,617.6835223999806,617.6835223999806,0.00738069973886013,0.09814479993656278,7.0,0.9584718002006412,,,,,,,,,,,,,,3777,Moral,2024-10-08_12h39.27.553,MoralCondition_v2,2022.2.5,30.016599172950084,
11,0,11,0,6,0,6,0,,,,,,,,,,,,,,,,,,,,,,,,,,,,,,,,,,,,,,,,,,,,,,,,,,,618.6835612999275,618.6835612999275,0.005846700165420771,0.09907680004835129,3.0,2.227595599833876,,,,,,,,,,,,,,3777,Moral,2024-10-08_12h39.27.553,MoralCondition_v2,2022.2.5,30.016599172950084,
11,0,11,0,,,,,,,,,,,,,,,,,,,,,,,,,,,,,,,,,,,,,,,,,,,,,,,,,,,,,,,,,,,,,620.9505086001009,620.9505086001009,0.0011440999805927277,0.09805230004712939,7.0,3.3315036999993026,,,,,,,,3777,Moral,2024-10-08_12h39.27.553,MoralCondition_v2,2022.2.5,30.016599172950084,
12,0,12,0,0,0,0,0,,,,,,,,,,,,,,,,,,,,624.317260700278,0.0003331000916659832,0.09808210004121065,630.3170640002936,6.031451200135052,,630.5001953002065,630.5001953002065,0.06837880006060004,0.18124089995399117,6.014691600110382,636.6002544001676,636.6002544001676,636.6002544001676,0.07027770020067692,0.18123600026592612,642.3001971002668,642.5002212999389,6.014592799823731,6.114536100067198,648.5002143001184,12.014579600188881,648.6165869999677,648.6165869999677,0.014317899942398071,0.09758649999275804,down,0.4972439999692142,649.1332727000117,1.4100223779678345e-05,0.0826316000893712,655.1673726001754,655.1673726001754,0.011047200299799442,0.11639939993619919,6.0,1.6395207000896335,,,,,,,648.5832456001081,648.5832456001081,636.500368299894,636.500368299894,,,655.1673726001754,3777,Moral,2024-10-08_12h39.27.553,MoralCondition_v2,2022.2.5,30.016599172950084,
12,0,12,0,1,0,1,0,,,,,,,,,,,,,,,,,,,,,,,,,,,,,,,,,,,,,,,,,,,,,,,,,,,656.8502612002194,656.8502612002194,0.0076166000217199326,0.11402609990909696,5.0,1.3075649002566934,,,,,,,,,,,,,,3777,Moral,2024-10-08_12h39.27.553,MoralCondition_v2,2022.2.5,30.016599172950084,
12,0,12,0,2,0,2,0,,,,,,,,,,,,,,,,,,,,,,,,,,,,,,,,,,,,,,,,,,,,,,,,,,,658.1834863000549,658.1834863000549,0.006458800286054611,0.09921040013432503,1.0,1.793843699619174,,,,,,,,,,,,,,3777,Moral,2024-10-08_12h39.27.553,MoralCondition_v2,2022.2.5,30.016599172950084,
12,0,12,0,3,0,3,0,,,,,,,,,,,,,,,,,,,,,,,,,,,,,,,,,,,,,,,,,,,,,,,,,,,660.0166299003176,660.0166299003176,0.00703589990735054,0.09727019956335425,5.0,1.2581493998877704,,,,,,,,,,,,,,3777,Moral,2024-10-08_12h39.27.553,MoralCondition_v2,2022.2.5,30.016599172950084,
12,0,12,0,4,0,4,0,,,,,,,,,,,,,,,,,,,,,,,,,,,,,,,,,,,,,,,,,,,,,,,,,,,661.3168648001738,661.3168648001738,0.006508999969810247,0.09923419961705804,5.0,0.7940131998620927,,,,,,,,,,,,,,3777,Moral,2024-10-08_12h39.27.553,MoralCondition_v2,2022.2.5,30.016599172950084,
12,0,12,0,5,0,5,0,,,,,,,,,,,,,,,,,,,,,,,,,,,,,,,,,,,,,,,,,,,,,,,,,,,662.150077899918,662.150077899918,0.006503600161522627,0.09937949990853667,7.0,2.4272946999408305,,,,,,,,,,,,,,3777,Moral,2024-10-08_12h39.27.553,MoralCondition_v2,2022.2.5,30.016599172950084,
12,0,12,0,6,0,6,0,,,,,,,,,,,,,,,,,,,,,,,,,,,,,,,,,,,,,,,,,,,,,,,,,,,664.6166874002665,664.6166874002665,0.00801829993724823,0.09775369986891747,5.0,1.2575245997868478,,,,,,,,,,,,,,3777,Moral,2024-10-08_12h39.27.553,MoralCondition_v2,2022.2.5,30.016599172950084,
12,0,12,0,,,,,,,,,,,,,,,,,,,,,,,,,,,,,,,,,,,,,,,,,,,,,,,,,,,,,,,,,,,,,665.9169692001306,665.9169692001306,0.0013446998782455921,0.09787240019068122,2.0,4.664215200114995,,,,,,,,3777,Moral,2024-10-08_12h39.27.553,MoralCondition_v2,2022.2.5,30.016599172950084,
13,0,13,0,0,0,0,0,,,,,,,,,,,,,,,,,,,,670.6167589998804,0.00016140006482601166,0.09916289988905191,676.6167764002457,5.999160899780691,6.099414899945259,676.8500049002469,676.8500049002469,0.12531489972025156,0.23252719966694713,5.999152000062168,682.9167188000865,682.9167188000865,682.9167188000865,0.08900909963995218,0.19940249994397163,688.6167325000279,688.7833495000377,5.99915669998154,6.09898279979825,694.7833728003316,11.999186699744314,694.9167214999907,694.9167214999907,3.569945693016052e-05,0.0991001995280385,up,0.8209933997131884,695.7833591001108,3.950018435716629e-05,0.09793650032952428,701.7833986002952,701.7833986002952,0.008245599921792746,0.09788150014355779,3.0,3.823892000131309,,,,,,,694.9167214999907,694.9167214999907,,,6.099283999763429,12.099146099761128,701.7833986002952,3777,Moral,2024-10-08_12h39.27.553,MoralCondition_v2,2022.2.5,30.016599172950084,
13,0,13,0,1,0,1,0,,,,,,,,,,,,,,,,,,,,,,,,,,,,,,,,,,,,,,,,,,,,,,,,,,,705.6499645998701,705.6499645998701,0.0067759002558887005,0.09915950009599328,3.0,1.0266613001003861,,,,,,,,,,,,,,3777,Moral,2024-10-08_12h39.27.553,MoralCondition_v2,2022.2.5,30.016599172950084,
13,0,13,0,2,0,2,0,,,,,,,,,,,,,,,,,,,,,,,,,,,,,,,,,,,,,,,,,,,,,,,,,,,706.7335494998842,706.7335494998842,0.008904399815946817,0.1139950999058783,5.0,2.1063025002367795,,,,,,,,,,,,,,3777,Moral,2024-10-08_12h39.27.553,MoralCondition_v2,2022.2.5,30.016599172950084,
13,0,13,0,3,0,3,0,,,,,,,,,,,,,,,,,,,,,,,,,,,,,,,,,,,,,,,,,,,,,,,,,,,708.8665904998779,708.8665904998779,0.006571600213646889,0.09916340000927448,5.0,1.6937032998539507,,,,,,,,,,,,,,3777,Moral,2024-10-08_12h39.27.553,MoralCondition_v2,2022.2.5,30.016599172950084,
13,0,13,0,4,0,4,0,,,,,,,,,,,,,,,,,,,,,,,,,,,,,,,,,,,,,,,,,,,,,,,,,,,710.6001316001639,710.6001316001639,0.007009199820458889,0.09913219977170229,3.0,1.7929500001482666,,,,,,,,,,,,,,3777,Moral,2024-10-08_12h39.27.553,MoralCondition_v2,2022.2.5,30.016599172950084,
13,0,13,0,5,0,5,0,,,,,,,,,,,,,,,,,,,,,,,,,,,,,,,,,,,,,,,,,,,,,,,,,,,712.4333346001804,712.4333346001804,0.006917600054293871,0.09915600018575788,3.0,1.5601323996670544,,,,,,,,,,,,,,3777,Moral,2024-10-08_12h39.27.553,MoralCondition_v2,2022.2.5,30.016599172950084,
13,0,13,0,6,0,6,0,,,,,,,,,,,,,,,,,,,,,,,,,,,,,,,,,,,,,,,,,,,,,,,,,,,714.0333084999584,714.0333084999584,0.007242899853736162,0.09924740018323064,3.0,0.8929232000373304,,,,,,,,,,,,,,3777,Moral,2024-10-08_12h39.27.553,MoralCondition_v2,2022.2.5,30.016599172950084,
13,0,13,0,,,,,,,,,,,,,,,,,,,,,,,,,,,,,,,,,,,,,,,,,,,,,,,,,,,,,,,,,,,,,714.9667573999614,714.9667573999614,0.001918900292366743,0.09748200001195073,4.0,4.496754999738187,,,,,,,,3777,Moral,2024-10-08_12h39.27.553,MoralCondition_v2,2022.2.5,30.016599172950084,
14,0,14,0,0,0,0,0,,,,,,,,,,,,,,,,,,,,719.5002335999161,0.00035400036722421646,0.09768150001764297,725.5165742998943,6.014309800229967,,725.6835205000825,725.6835205000825,0.06801320007070899,0.18129860004410148,6.01430070027709,731.7831089003012,731.7831089003012,731.7831089003012,0.06927129998803139,0.18101679999381304,737.4832162000239,737.6832523001358,6.014329300262034,6.114511200226843,743.683444400318,12.014516800176352,743.8165627000853,743.8165627000853,0.014407100155949593,0.11422500014305115,up,0.09678700007498264,743.9498993000016,4.4199638068675995e-05,0.09792849980294704,749.9667362999171,749.9667362999171,0.02593549992889166,0.11454409966245294,4.0,1.289558700285852,,,,,,,743.7831871001981,743.7831871001981,731.6832574000582,731.6832574000582,,,,3777,Moral,2024-10-08_12h39.27.553,MoralCondition_v2,2022.2.5,30.016599172950084,
14,0,14,0,1,0,1,0,,,,,,,,,,,,,,,,,,,,,,,,,,,,,,,,,,,,,,,,,,,,,,,,,,,751.3168182000518,751.3168182000518,0.007596100214868784,0.11419390002265573,4.0,0.8075659000314772,,,,,,,,,,,,,,3777,Moral,2024-10-08_12h39.27.553,MoralCondition_v2,2022.2.5,30.016599172950084,
14,0,14,0,2,0,2,0,,,,,,,,,,,,,,,,,,,,,,,,,,,,,,,,,,,,,,,,,,,,,,,,,,,752.1498243003152,752.1498243003152,0.006835100241005421,0.09920490020886064,4.0,1.6267166999168694,,,,,,,,,,,,,,3777,Moral,2024-10-08_12h39.27.553,MoralCondition_v2,2022.2.5,30.016599172950084,
14,0,14,0,3,0,3,0,,,,,,,,,,,,,,,,,,,,,,,,,,,,,,,,,,,,,,,,,,,,,,,,,,,753.8333073998801,753.8333073998801,0.007697700057178736,0.11428000032901764,4.0,1.1742138001136482,,,,,,,,,,,,,,3777,Moral,2024-10-08_12h39.27.553,MoralCondition_v2,2022.2.5,30.016599172950084,
14,0,14,0,4,0,4,0,,,,,,,,,,,,,,,,,,,,,,,,,,,,,,,,,,,,,,,,,,,,,,,,,,,755.0331699000672,755.0331699000672,0.008901400025933981,0.0973366997204721,5.0,1.4560723998583853,,,,,,,,,,,,,,3777,Moral,2024-10-08_12h39.27.553,MoralCondition_v2,2022.2.5,30.016599172950084,
14,0,14,0,5,0,5,0,,,,,,,,,,,,,,,,,,,,,,,,,,,,,,,,,,,,,,,,,,,,,,,,,,,756.5332520999946,756.5332520999946,0.006712999660521746,0.09830780001357198,3.0,1.0927099999971688,,,,,,,,,,,,,,3777,Moral,2024-10-08_12h39.27.553,MoralCondition_v2,2022.2.5,30.016599172950084,
14,0,14,0,6,0,6,0,,,,,,,,,,,,,,,,,,,,,,,,,,,,,,,,,,,,,,,,,,,,,,,,,,,757.6666429000907,757.6666429000907,0.00750069972127676,0.09821779979392886,3.0,1.324643800035119,,,,,,,,,,,,,,3777,Moral,2024-10-08_12h39.27.553,MoralCondition_v2,2022.2.5,30.016599172950084,
14,0,14,0,,,,,,,,,,,,,,,,,,,,,,,,,,,,,,,,,,,,,,,,,,,,,,,,,,,,,,,,,,,,,759.0332412002608,759.0332412002608,0.001406900119036436,0.09741659974679351,3.0,7.297032299917191,,,,,,,,3777,Moral,2024-10-08_12h39.27.553,MoralCondition_v2,2022.2.5,30.016599172950084,
15,0,15,0,0,0,0,0,,,,,,,,,,,,,,,,,,,,766.3667945000343,0.0002847001887857914,0.09790280042216182,772.3664536001161,6.031127800233662,,772.5497254002839,772.5497254002839,0.07068430026993155,0.18107650009915233,6.014407600276172,778.6498591001146,778.6498591001146,778.6498591001146,0.06841460010036826,0.18124529998749495,784.3497391999699,784.5498783001676,6.014556299895048,6.114569299854338,790.5497118001804,12.014374500140548,790.6830461001955,790.6830461001955,0.014655699953436852,0.1143261999823153,down,0.5104414997622371,791.2497207000852,4.510022699832916e-05,0.0979539998807013,797.266364000272,797.266364000272,0.02612130017951131,0.11454509990289807,3.0,2.2560719000175595,,,,,,,790.6498447000049,790.6498447000049,778.5498037002981,778.5498037002981,,,,3777,Moral,2024-10-08_12h39.27.553,MoralCondition_v2,2022.2.5,30.016599172950084,
15,0,15,0,1,0,1,0,,,,,,,,,,,,,,,,,,,,,,,,,,,,,,,,,,,,,,,,,,,,,,,,,,,799.5664893998764,799.5664893998764,0.007833299692720175,0.09783169999718666,3.0,1.0573526001535356,,,,,,,,,,,,,,3777,Moral,2024-10-08_12h39.27.553,MoralCondition_v2,2022.2.5,30.016599172950084,
15,0,15,0,2,0,2,0,,,,,,,,,,,,,,,,,,,,,,,,,,,,,,,,,,,,,,,,,,,,,,,,,,,800.6662347000092,800.6662347000092,0.006812199950218201,0.09695869963616133,3.0,1.1576588000170887,,,,,,,,,,,,,,3777,Moral,2024-10-08_12h39.27.553,MoralCondition_v2,2022.2.5,30.016599172950084,
15,0,15,0,3,0,3,0,,,,,,,,,,,,,,,,,,,,,,,,,,,,,,,,,,,,,,,,,,,,,,,,,,,801.86653140001,801.86653140001,0.00656080013141036,0.09917480032891035,4.0,1.227156300097704,,,,,,,,,,,,,,3777,Moral,2024-10-08_12h39.27.553,MoralCondition_v2,2022.2.5,30.016599172950084,
15,0,15,0,4,0,4,0,,,,,,,,,,,,,,,,,,,,,,,,,,,,,,,,,,,,,,,,,,,,,,,,,,,803.1329649998806,803.1329649998806,0.007434099912643433,0.09828809974715114,3.0,1.1250609001144767,,,,,,,,,,,,,,3777,Moral,2024-10-08_12h39.27.553,MoralCondition_v2,2022.2.5,30.016599172950084,
15,0,15,0,5,0,5,0,,,,,,,,,,,,,,,,,,,,,,,,,,,,,,,,,,,,,,,,,,,,,,,,,,,804.2997461003251,804.2997461003251,0.0065252999775111675,0.09901569969952106,3.0,0.8268882995471358,,,,,,,,,,,,,,3777,Moral,2024-10-08_12h39.27.553,MoralCondition_v2,2022.2.5,30.016599172950084,
15,0,15,0,6,0,6,0,,,,,,,,,,,,,,,,,,,,,,,,,,,,,,,,,,,,,,,,,,,,,,,,,,,805.1664220001549,805.1664220001549,0.0068802000023424625,0.09927979996427894,5.0,0.9267571996897459,,,,,,,,,,,,,,3777,Moral,2024-10-08_12h39.27.553,MoralCondition_v2,2022.2.5,30.016599172950084,
15,0,15,0,,,,,,,,,,,,,,,,,,,,,,,,,,,,,,,,,,,,,,,,,,,,,,,,,,,,,,,,,,,,,806.1331787002273,806.1331787002273,0.0012528998777270317,0.09814770007506013,7.0,4.031274399720132,,,,,,,,3777,Moral,2024-10-08_12h39.27.553,MoralCondition_v2,2022.2.5,30.016599172950084,
16,0,16,0,0,0,0,0,,,,,,,,,,,,,,,,,,,,810.1999967000447,0.0002986001782119274,0.09793950011953712,816.1996438000351,6.031234499998391,,816.3830094998702,816.3830094998702,0.06750279990956187,0.18114829994738102,6.014531100168824,822.4830726003274,822.4830726003274,822.4830726003274,0.06793699972331524,0.18134790007025003,828.1829777001403,828.3829692001455,6.01454469980672,6.114291199948639,834.3829240002669,12.014505499973893,834.5162919000722,834.5162919000722,0.014732199721038342,0.11443599965423346,up,0.533995300065726,835.1162581001408,5.010003224015236e-05,0.0978182996623218,841.1495201000944,841.1495201000944,0.02540279971435666,0.13103749975562096,3.0,2.240067500155419,,,,,,,834.4829420000315,834.4829420000315,822.3828962999396,822.3828962999396,,,,3777,Moral,2024-10-08_12h39.27.553,MoralCondition_v2,2022.2.5,30.016599172950084,
16,0,16,0,1,0,1,0,,,,,,,,,,,,,,,,,,,,,,,,,,,,,,,,,,,,,,,,,,,,,,,,,,,843.4162512002513,843.4162512002513,0.006432199850678444,0.09939270000904799,3.0,1.0605289000086486,,,,,,,,,,,,,,3777,Moral,2024-10-08_12h39.27.553,MoralCondition_v2,2022.2.5,30.016599172950084,
16,0,16,0,2,0,2,0,,,,,,,,,,,,,,,,,,,,,,,,,,,,,,,,,,,,,,,,,,,,,,,,,,,844.5330059002154,844.5330059002154,0.007273500319570303,0.1141070001758635,3.0,0.6081634000875056,,,,,,,,,,,,,,3777,Moral,2024-10-08_12h39.27.553,MoralCondition_v2,2022.2.5,30.016599172950084,
16,0,16,0,3,0,3,0,,,,,,,,,,,,,,,,,,,,,,,,,,,,,,,,,,,,,,,,,,,,,,,,,,,845.1661534002051,845.1661534002051,0.006816500332206488,0.0985448001883924,3.0,0.6590875997208059,,,,,,,,,,,,,,3777,Moral,2024-10-08_12h39.27.553,MoralCondition_v2,2022.2.5,30.016599172950084,
16,0,16,0,4,0,4,0,,,,,,,,,,,,,,,,,,,,,,,,,,,,,,,,,,,,,,,,,,,,,,,,,,,845.8662459999323,845.8662459999323,0.006092000287026167,0.09906279994174838,3.0,0.6271768999285996,,,,,,,,,,,,,,3777,Moral,2024-10-08_12h39.27.553,MoralCondition_v2,2022.2.5,30.016599172950084,
16,0,16,0,5,0,5,0,,,,,,,,,,,,,,,,,,,,,,,,,,,,,,,,,,,,,,,,,,,,,,,,,,,846.5329026002437,846.5329026002437,0.006895300000905991,0.09928729990497231,6.0,1.8268440999090672,,,,,,,,,,,,,,3777,Moral,2024-10-08_12h39.27.553,MoralCondition_v2,2022.2.5,30.016599172950084,
16,0,16,0,6,0,6,0,,,,,,,,,,,,,,,,,,,,,,,,,,,,,,,,,,,,,,,,,,,,,,,,,,,848.3995938003063,848.3995938003063,0.006569799967110157,0.09920509997755289,3.0,1.5601759999990463,,,,,,,,,,,,,,3777,Moral,2024-10-08_12h39.27.553,MoralCondition_v2,2022.2.5,30.016599172950084,
16,0,16,0,,,,,,,,,,,,,,,,,,,,,,,,,,,,,,,,,,,,,,,,,,,,,,,,,,,,,,,,,,,,,849.9996770001017,849.9996770001017,0.0020770998671650887,0.09749950002878904,4.0,10.996300800237805,,,,,,,,3777,Moral,2024-10-08_12h39.27.553,MoralCondition_v2,2022.2.5,30.016599172950084,
17,0,17,0,0,0,0,0,,,,,,,,,,,,,,,,,,,,861.0330630000681,0.0001529003493487835,0.09925410011783242,867.0327964001335,5.999305000063032,6.098992000333965,867.182736699935,867.182736699935,0.04767000023275614,0.1493816999718547,6.015781200025231,873.3162414999679,873.3162414999679,873.3162414999679,0.06754489988088608,0.18246500007808208,879.0162196001038,879.2161368001252,6.015890100039542,6.1157820001244545,885.216086700093,12.015789899975061,885.3496234999038,885.3496234999038,0.015988700091838837,0.11572209978476167,up,0.48419849993661046,885.8827444002964,4.1600316762924194e-05,0.09797180024906993,891.8998849000782,891.8998849000782,0.025977100245654583,0.1146300002001226,3.0,1.5564015000127256,,,,,,,885.3161578001454,885.3161578001454,873.1829126998782,873.1829126998782,,,,3777,Moral,2024-10-08_12h39.27.553,MoralCondition_v2,2022.2.5,30.016599172950084,
17,0,17,0,1,0,1,0,,,,,,,,,,,,,,,,,,,,,,,,,,,,,,,,,,,,,,,,,,,,,,,,,,,893.4993746001273,893.4993746001273,0.007937999907881021,0.09808780020102859,6.0,1.4244245998561382,,,,,,,,,,,,,,3777,Moral,2024-10-08_12h39.27.553,MoralCondition_v2,2022.2.5,30.016599172950084,
17,0,17,0,2,0,2,0,,,,,,,,,,,,,,,,,,,,,,,,,,,,,,,,,,,,,,,,,,,,,,,,,,,894.9661461003125,894.9661461003125,0.007346500176936388,0.09792440012097359,3.0,1.2247349000535905,,,,,,,,,,,,,,3777,Moral,2024-10-08_12h39.27.553,MoralCondition_v2,2022.2.5,30.016599172950084,
17,0,17,0,3,0,3,0,,,,,,,,,,,,,,,,,,,,,,,,,,,,,,,,,,,,,,,,,,,,,,,,,,,896.2495011002757,896.2495011002757,0.007952699903398752,0.11406870000064373,3.0,0.7738339998759329,,,,,,,,,,,,,,3777,Moral,2024-10-08_12h39.27.553,MoralCondition_v2,2022.2.5,30.016599172950084,
17,0,17,0,4,0,4,0,,,,,,,,,,,,,,,,,,,,,,,,,,,,,,,,,,,,,,,,,,,,,,,,,,,897.0494619002566,897.0494619002566,0.006645900197327137,0.0993961002677679,3.0,0.6268269997090101,,,,,,,,,,,,,,3777,Moral,2024-10-08_12h39.27.553,MoralCondition_v2,2022.2.5,30.016599172950084,
17,0,17,0,5,0,5,0,,,,,,,,,,,,,,,,,,,,,,,,,,,,,,,,,,,,,,,,,,,,,,,,,,,897.7327447002754,897.7327447002754,0.007823999971151352,0.11393720004707575,3.0,0.6738209002651274,,,,,,,,,,,,,,3777,Moral,2024-10-08_12h39.27.553,MoralCondition_v2,2022.2.5,30.016599172950084,
17,0,17,0,6,0,6,0,,,,,,,,,,,,,,,,,,,,,,,,,,,,,,,,,,,,,,,,,,,,,,,,,,,898.4327006000094,898.4327006000094,0.007132799830287695,0.09811579994857311,3.0,0.7586515001021326,,,,,,,,,,,,,,3777,Moral,2024-10-08_12h39.27.553,MoralCondition_v2,2022.2.5,30.016599172950084,
17,0,17,0,,,,,,,,,,,,,,,,,,,,,,,,,,,,,,,,,,,,,,,,,,,,,,,,,,,,,,,,,,,,,899.2328538000584,899.2328538000584,0.001505000051110983,0.09704870032146573,4.0,4.963417999912053,,,,,,,,3777,Moral,2024-10-08_12h39.27.553,MoralCondition_v2,2022.2.5,30.016599172950084,
18,0,18,0,0,0,0,0,,,,,,,,,,,,,,,,,,,,904.2329548001289,0.00013149995356798172,0.09939659992232919,910.2326686000451,5.999293899629265,6.099418199621141,910.3992147999816,910.3992147999816,0.061978799756616354,0.16616209968924522,5.999293499626219,916.499235900119,916.499235900119,916.499235900119,0.061637299600988626,0.16614959947764874,922.1992477001622,922.3992796000093,5.999366799835116,6.099242999684066,928.3992575001903,11.999268199782819,928.5325895003043,928.5325895003043,0.00019919965416193008,0.09935629973188043,up,0.18133739987388253,928.7658013999462,3.9999838918447495e-05,0.0979883000254631,934.7993292002939,934.7993292002939,0.02612570021301508,0.13140279985964298,4.0,2.872801700141281,,,,,,,928.4992490001023,928.4992490001023,916.399303200189,916.399303200189,6.099328599870205,12.09926739986986,,3777,Moral,2024-10-08_12h39.27.553,MoralCondition_v2,2022.2.5,30.016599172950084,
18,0,18,0,1,0,1,0,,,,,,,,,,,,,,,,,,,,,,,,,,,,,,,,,,,,,,,,,,,,,,,,,,,937.6990491002798,937.6990491002798,0.0065576001070439816,0.09828029992058873,4.0,1.0260793999768794,,,,,,,,,,,,,,3777,Moral,2024-10-08_12h39.27.553,MoralCondition_v2,2022.2.5,30.016599172950084,
18,0,18,0,2,0,2,0,,,,,,,,,,,,,,,,,,,,,,,,,,,,,,,,,,,,,,,,,,,,,,,,,,,938.7661036001518,938.7661036001518,0.007906599901616573,0.09849520027637482,5.0,1.4248449997976422,,,,,,,,,,,,,,3777,Moral,2024-10-08_12h39.27.553,MoralCondition_v2,2022.2.5,30.016599172950084,
18,0,18,0,3,0,3,0,,,,,,,,,,,,,,,,,,,,,,,,,,,,,,,,,,,,,,,,,,,,,,,,,,,940.2326243002899,940.2326243002899,0.007225099951028824,0.09923049993813038,3.0,1.2600889997556806,,,,,,,,,,,,,,3777,Moral,2024-10-08_12h39.27.553,MoralCondition_v2,2022.2.5,30.016599172950084,
18,0,18,0,4,0,4,0,,,,,,,,,,,,,,,,,,,,,,,,,,,,,,,,,,,,,,,,,,,,,,,,,,,941.5324436998926,941.5324436998926,0.0061818999238312244,0.09950050013139844,3.0,0.9942728001624346,,,,,,,,,,,,,,3777,Moral,2024-10-08_12h39.27.553,MoralCondition_v2,2022.2.5,30.016599172950084,
18,0,18,0,5,0,5,0,,,,,,,,,,,,,,,,,,,,,,,,,,,,,,,,,,,,,,,,,,,,,,,,,,,942.565939700231,942.565939700231,0.007834499701857567,0.09791829995810986,3.0,0.7244814997538924,,,,,,,,,,,,,,3777,Moral,2024-10-08_12h39.27.553,MoralCondition_v2,2022.2.5,30.016599172950084,
18,0,18,0,6,0,6,0,,,,,,,,,,,,,,,,,,,,,,,,,,,,,,,,,,,,,,,,,,,,,,,,,,,943.3325646999292,943.3325646999292,0.007788300048559904,0.09754780028015375,5.0,1.3909197999164462,,,,,,,,,,,,,,3777,Moral,2024-10-08_12h39.27.553,MoralCondition_v2,2022.2.5,30.016599172950084,
18,0,18,0,,,,,,,,,,,,,,,,,,,,,,,,,,,,,,,,,,,,,,,,,,,,,,,,,,,,,,,,,,,,,944.7660252000205,944.7660252000205,0.0016836998984217644,0.09790659975260496,4.0,2.430555200204253,,,,,,,,3777,Moral,2024-10-08_12h39.27.553,MoralCondition_v2,2022.2.5,30.016599172950084,
19,0,19,0,0,0,0,0,,,,,,,,,,,,,,,,,,,,947.2327775000595,0.00018989993259310722,0.09849519981071353,953.2156231999397,6.014889500103891,6.098302700091153,953.399165800307,953.399165800307,0.057531300000846386,0.1654387996532023,6.031801699660718,959.515910600312,959.515910600312,959.515910600312,0.07473069988191128,0.18206629948690534,965.2158071999438,965.4158263001591,6.0151946996338665,6.115222499705851,971.4157767002471,12.015121199656278,971.5490951002575,971.5490951002575,0.01524739945307374,0.11519179958850145,up,2.220570200122893,973.8157518003136,4.479987546801567e-05,0.09801690001040697,979.8325407002121,979.8325407002121,0.009761500172317028,0.11454480001702905,3.0,1.4058151999488473,,,,,,,971.5157480002381,971.5157480002381,959.3823015000671,959.3823015000671,,,979.8325407002121,3777,Moral,2024-10-08_12h39.27.553,MoralCondition_v2,2022.2.5,30.016599172950084,
19,0,19,0,1,0,1,0,,,,,,,,,,,,,,,,,,,,,,,,,,,,,,,,,,,,,,,,,,,,,,,,,,,981.2656784001738,981.2656784001738,0.007513400167226791,0.09801110019907355,3.0,0.8244186001829803,,,,,,,,,,,,,,3777,Moral,2024-10-08_12h39.27.553,MoralCondition_v2,2022.2.5,30.016599172950084,
19,0,19,0,2,0,2,0,,,,,,,,,,,,,,,,,,,,,,,,,,,,,,,,,,,,,,,,,,,,,,,,,,,982.1324273003265,982.1324273003265,0.006619799882173538,0.09904159978032112,3.0,0.6600265000015497,,,,,,,,,,,,,,3777,Moral,2024-10-08_12h39.27.553,MoralCondition_v2,2022.2.5,30.016599172950084,
19,0,19,0,3,0,3,0,,,,,,,,,,,,,,,,,,,,,,,,,,,,,,,,,,,,,,,,,,,,,,,,,,,982.8324293000624,982.8324293000624,0.008177499752491713,0.09913600003346801,5.0,1.3921359004452825,,,,,,,,,,,,,,3777,Moral,2024-10-08_12h39.27.553,MoralCondition_v2,2022.2.5,30.016599172950084,
19,0,19,0,4,0,4,0,,,,,,,,,,,,,,,,,,,,,,,,,,,,,,,,,,,,,,,,,,,,,,,,,,,984.265809699893,984.265809699893,0.006729000248014927,0.09915170026943088,4.0,1.3267049002461135,,,,,,,,,,,,,,3777,Moral,2024-10-08_12h39.27.553,MoralCondition_v2,2022.2.5,30.016599172950084,
19,0,19,0,5,0,5,0,,,,,,,,,,,,,,,,,,,,,,,,,,,,,,,,,,,,,,,,,,,,,,,,,,,985.6492890999652,985.6492890999652,0.008684400003403425,0.11401590006425977,3.0,0.9397745002061129,,,,,,,,,,,,,,3777,Moral,2024-10-08_12h39.27.553,MoralCondition_v2,2022.2.5,30.016599172950084,
19,0,19,0,6,0,6,0,,,,,,,,,,,,,,,,,,,,,,,,,,,,,,,,,,,,,,,,,,,,,,,,,,,986.6157748000696,986.6157748000696,0.007305299863219261,0.09859809977933764,3.0,0.8919208999723196,,,,,,,,,,,,,,3777,Moral,2024-10-08_12h39.27.553,MoralCondition_v2,2022.2.5,30.016599172950084,
19,0,19,0,,,,,,,,,,,,,,,,,,,,,,,,,,,,,,,,,,,,,,,,,,,,,,,,,,,,,,,,,,,,,987.548821200151,987.548821200151,0.0021718000061810017,0.09750910010188818,4.0,7.962883499916643,,,,,,,,3777,Moral,2024-10-08_12h39.27.553,MoralCondition_v2,2022.2.5,30.016599172950084,
