loop.thisRepN,loop.thisTrialN,loop.thisN,loop.thisIndex,evaluate_all_emotions.thisRepN,evaluate_all_emotions.thisTrialN,evaluate_all_emotions.thisN,evaluate_all_emotions.thisIndex,sync_beep_1.started,p_port.started,p_port.stopped,sync_beep_1.stopped,sync_beep_2.started,sync_beep_2.stopped,sync_beep_3.started,sync_beep_3.stopped,sync_beep_4.started,sync_beep_4.stopped,baseline.started,p_port_2.started,p_port_2.stopped,baseline.stopped,p_port_3.started,Game_Start_Text.started,p_port_4.started,p_port_4.stopped,key_resp.started,key_resp.keys,key_resp.rt,fixation_cross.started,p_port_5.started,p_port_5.stopped,fixation_cross.stopped,p_port_6.started,player_image_intro.started,player_name_intro.started,p_port_7.started,p_port_7.stopped,p_port_8.started,player_image_offer.started,player_name_offer.started,proposed_split.started,p_port_9.started,p_port_9.stopped,proposed_split.stopped,accept_reject.started,p_port_15.started,p_port_15.stopped,accept_reject.stopped,p_port_10.started,arrow_instructions.started,offer_choice.started,p_port_11.started,p_port_11.stopped,offer_choice.keys,offer_choice.rt,Instructions_Affinity_Score.started,p_port_12.started,p_port_12.stopped,Instructions_Affinity_Score.stopped,Emotion_Image.started,AffinityScore.started,p_port_13.started,p_port_13.stopped,AffinityScore.response,AffinityScore.rt,Instruction.started,Moral_Disgust_Score.started,p_port_14.started,p_port_14.stopped,Moral_Disgust_Score.response,Moral_Disgust_Score.rt,player_image_intro.stopped,player_name_intro.stopped,player_image_offer.stopped,player_name_offer.stopped,p_port_6.stopped,p_port_8.stopped,participant,session,date,expName,psychopyVersion,frameRate,
,,,,,,,,20.959559896960855,0.0007773004472255707,0.11016909964382648,21.276344500482082,21.55974489133805,21.876407301053405,22.17656219061464,22.49304860085249,22.759752691350876,23.07636170089245,23.07636170089245,0.006443900987505913,0.09338640049099922,38.076303601264954,15.009970501065254,38.193245301023126,0.010285401716828346,0.10994020104408264,38.67641110159457,space,0.8212596997618675,,,,,,,,,,,,,,,,,,,,,,,,,,,,,,,,,,,,,,,,,,,,,,,,,,3874,Moral,2024-07-15_19h12.18.384,MoralCondition_v2,2022.2.5,29.911515783642187,
0,0,0,0,0,0,0,0,,,,,,,,,,,,,,,,,,,,,,39.54308570176363,0.0015491005033254623,0.09843190014362335,45.55976300127804,6.015053300186992,45.826327200978994,45.826327200978994,0.14429590106010437,0.2818504013121128,6.015075501054525,51.859727300703526,51.859727300703526,51.859727300703526,0.08158470131456852,0.2150965016335249,57.55970340035856,57.726386500522494,6.0151017010211945,6.115041201934218,63.72633490152657,12.01504660025239,63.85969169996679,63.85969169996679,0.01534310169517994,0.11497490108013153,up,2.789189198985696,66.69300550036132,5.169957876205444e-05,0.0975859984755516,72.70965570025146,72.70965570025146,72.70965570025146,0.019154999405145645,0.11430429853498936,5.0,5.012813400477171,,,,,,,,,,,,,3874,Moral,2024-07-15_19h12.18.384,MoralCondition_v2,2022.2.5,29.911515783642187,
0,0,0,0,1,0,1,0,,,,,,,,,,,,,,,,,,,,,,,,,,,,,,,,,,,,,,,,,,,,,,,,,,,,,77.77638600021601,77.77638600021601,0.011651100590825081,0.11586660146713257,3.0,3.471723699942231,,,,,,,,,,,,,3874,Moral,2024-07-15_19h12.18.384,MoralCondition_v2,2022.2.5,29.911515783642187,
0,0,0,0,2,0,2,0,,,,,,,,,,,,,,,,,,,,,,,,,,,,,,,,,,,,,,,,,,,,,,,,,,,,,81.29326940141618,81.29326940141618,0.011285200715065002,0.11419190093874931,2.0,2.8707311004400253,,,,,,,,,,,,,3874,Moral,2024-07-15_19h12.18.384,MoralCondition_v2,2022.2.5,29.911515783642187,
0,0,0,0,3,0,3,0,,,,,,,,,,,,,,,,,,,,,,,,,,,,,,,,,,,,,,,,,,,,,,,,,,,,,84.20981760136783,84.20981760136783,0.009633101522922516,0.11431620083749294,1.0,2.705802299082279,,,,,,,,,,,,,3874,Moral,2024-07-15_19h12.18.384,MoralCondition_v2,2022.2.5,29.911515783642187,
0,0,0,0,4,0,4,0,,,,,,,,,,,,,,,,,,,,,,,,,,,,,,,,,,,,,,,,,,,,,,,,,,,,,86.94306930154562,86.94306930154562,0.01164339855313301,0.0990022998303175,3.0,5.25507939979434,,,,,,,,,,,,,3874,Moral,2024-07-15_19h12.18.384,MoralCondition_v2,2022.2.5,29.911515783642187,
0,0,0,0,5,0,5,0,,,,,,,,,,,,,,,,,,,,,,,,,,,,,,,,,,,,,,,,,,,,,,,,,,,,,92.25984279997647,92.25984279997647,0.009392200037837029,0.1143978014588356,4.0,5.706147100776434,,,,,,,,,,,,,3874,Moral,2024-07-15_19h12.18.384,MoralCondition_v2,2022.2.5,29.911515783642187,
0,0,0,0,6,0,6,0,,,,,,,,,,,,,,,,,,,,,,,,,,,,,,,,,,,,,,,,,,,,,,,,,,,,,98.00963260047138,98.00963260047138,0.008752100169658661,0.11463069915771484,3.0,2.2405930999666452,,,,,,,,,,,,,3874,Moral,2024-07-15_19h12.18.384,MoralCondition_v2,2022.2.5,29.911515783642187,
0,0,0,0,,,,,,,,,,,,,,,,,,,,,,,,,,,,,,,,,,,,,,,,,,,,,,,,,,,,,,,,,,,,,,,100.27635370008647,100.27635370008647,0.0013410001993179321,0.0977207999676466,2.0,5.1309737004339695,,,,,,,3874,Moral,2024-07-15_19h12.18.384,MoralCondition_v2,2022.2.5,29.911515783642187,
1,0,1,0,0,0,0,0,,,,,,,,,,,,,,,,,,,,,,105.4431482013315,0.0002661999315023422,0.09787319973111153,111.4594360999763,6.014736399054527,111.62616800144315,111.62616800144315,0.07681839913129807,0.18146139942109585,6.014530500397086,117.72634480148554,117.72634480148554,117.72634480148554,0.07849990017712116,0.18145469948649406,123.42626920156181,123.62621180154383,6.014541400596499,6.114622900262475,129.62618880160153,12.014516800642014,129.7595320008695,129.7595320008695,0.014784300699830055,0.11461289972066879,up,1.5133433993905783,131.3095117006451,2.540089190006256e-05,0.09881780110299587,,137.3260599002242,137.3260599002242,0.024567000567913055,0.1152453999966383,2.0,2.558620300143957,,,,,,,117.62621440179646,117.62621440179646,129.72623920068145,129.72623920068145,,,3874,Moral,2024-07-15_19h12.18.384,MoralCondition_v2,2022.2.5,29.911515783642187,
1,0,1,0,1,0,1,0,,,,,,,,,,,,,,,,,,,,,,,,,,,,,,,,,,,,,,,,,,,,,,,,,,,,,139.94306210055947,139.94306210055947,0.007732801139354706,0.11374340020120144,3.0,1.9736192002892494,,,,,,,,,,,,,3874,Moral,2024-07-15_19h12.18.384,MoralCondition_v2,2022.2.5,29.911515783642187,
1,0,1,0,2,0,2,0,,,,,,,,,,,,,,,,,,,,,,,,,,,,,,,,,,,,,,,,,,,,,,,,,,,,,141.94273940101266,141.94273940101266,0.007456198334693909,0.09803039953112602,5.0,3.7581666987389326,,,,,,,,,,,,,3874,Moral,2024-07-15_19h12.18.384,MoralCondition_v2,2022.2.5,29.911515783642187,
1,0,1,0,3,0,3,0,,,,,,,,,,,,,,,,,,,,,,,,,,,,,,,,,,,,,,,,,,,,,,,,,,,,,145.7428639009595,145.7428639009595,0.008268000558018684,0.09742210060358047,3.0,8.25699589960277,,,,,,,,,,,,,3874,Moral,2024-07-15_19h12.18.384,MoralCondition_v2,2022.2.5,29.911515783642187,
1,0,1,0,4,0,4,0,,,,,,,,,,,,,,,,,,,,,,,,,,,,,,,,,,,,,,,,,,,,,,,,,,,,,154.04292470030487,154.04292470030487,0.006635800004005432,0.09922099858522415,3.0,4.793560000136495,,,,,,,,,,,,,3874,Moral,2024-07-15_19h12.18.384,MoralCondition_v2,2022.2.5,29.911515783642187,
1,0,1,0,5,0,5,0,,,,,,,,,,,,,,,,,,,,,,,,,,,,,,,,,,,,,,,,,,,,,,,,,,,,,158.87614560127258,158.87614560127258,0.006997300311923027,0.09905659966170788,3.0,2.1931928005069494,,,,,,,,,,,,,3874,Moral,2024-07-15_19h12.18.384,MoralCondition_v2,2022.2.5,29.911515783642187,
1,0,1,0,6,0,6,0,,,,,,,,,,,,,,,,,,,,,,,,,,,,,,,,,,,,,,,,,,,,,,,,,,,,,161.10923520103097,161.10923520103097,0.005942698568105698,0.0991606991738081,2.0,4.227706199511886,,,,,,,,,,,,,3874,Moral,2024-07-15_19h12.18.384,MoralCondition_v2,2022.2.5,29.911515783642187,
1,0,1,0,,,,,,,,,,,,,,,,,,,,,,,,,,,,,,,,,,,,,,,,,,,,,,,,,,,,,,,,,,,,,,,165.3760668002069,165.3760668002069,0.0006511993706226349,0.09868009947240353,2.0,3.099685499444604,,,,,,,3874,Moral,2024-07-15_19h12.18.384,MoralCondition_v2,2022.2.5,29.911515783642187,
2,0,2,0,0,0,0,0,,,,,,,,,,,,,,,,,,,,,,168.50968400016427,0.00013799965381622314,0.099074000492692,174.492548301816,6.015340199694037,174.68907540105283,174.68907540105283,0.07298320159316063,0.182081900537014,6.015656800940633,180.7928746007383,180.7928746007383,180.7928746007383,0.07298950105905533,0.18218530155718327,186.4928443003446,186.69276850111783,6.015677200630307,6.115481501445174,192.6927529014647,12.015658101066947,192.82608270086348,192.82608270086348,0.015746701508760452,0.11553100124001503,down,1.43107970058918,194.2927321009338,2.7399510145187378e-05,0.09845730103552341,,200.30926030129194,200.30926030129194,0.02682330086827278,0.11522000096738338,2.0,8.555940700694919,,,,,,,180.69279300048947,180.69279300048947,192.79270020127296,192.79270020127296,6.098652200773358,,3874,Moral,2024-07-15_19h12.18.384,MoralCondition_v2,2022.2.5,29.911515783642187,
2,0,2,0,1,0,1,0,,,,,,,,,,,,,,,,,,,,,,,,,,,,,,,,,,,,,,,,,,,,,,,,,,,,,208.9093387015164,208.9093387015164,0.006958900019526482,0.09917270019650459,2.0,2.3599493000656366,,,,,,,,,,,,,3874,Moral,2024-07-15_19h12.18.384,MoralCondition_v2,2022.2.5,29.911515783642187,
2,0,2,0,2,0,2,0,,,,,,,,,,,,,,,,,,,,,,,,,,,,,,,,,,,,,,,,,,,,,,,,,,,,,211.3093788009137,211.3093788009137,0.00672449916601181,0.09908809885382652,4.0,8.093461498618126,,,,,,,,,,,,,3874,Moral,2024-07-15_19h12.18.384,MoralCondition_v2,2022.2.5,29.911515783642187,
2,0,2,0,3,0,3,0,,,,,,,,,,,,,,,,,,,,,,,,,,,,,,,,,,,,,,,,,,,,,,,,,,,,,219.44268540106714,219.44268540106714,0.007630599662661552,0.09768969938158989,1.0,1.8910434003919363,,,,,,,,,,,,,3874,Moral,2024-07-15_19h12.18.384,MoralCondition_v2,2022.2.5,29.911515783642187,
2,0,2,0,4,0,4,0,,,,,,,,,,,,,,,,,,,,,,,,,,,,,,,,,,,,,,,,,,,,,,,,,,,,,221.37610260024667,221.37610260024667,0.006917500868439674,0.0970476008951664,5.0,3.891193099319935,,,,,,,,,,,,,3874,Moral,2024-07-15_19h12.18.384,MoralCondition_v2,2022.2.5,29.911515783642187,
2,0,2,0,5,0,5,0,,,,,,,,,,,,,,,,,,,,,,,,,,,,,,,,,,,,,,,,,,,,,,,,,,,,,225.30935230106115,225.30935230106115,0.0073767006397247314,0.097944600507617,4.0,5.558340100571513,,,,,,,,,,,,,3874,Moral,2024-07-15_19h12.18.384,MoralCondition_v2,2022.2.5,29.911515783642187,
2,0,2,0,6,0,6,0,,,,,,,,,,,,,,,,,,,,,,,,,,,,,,,,,,,,,,,,,,,,,,,,,,,,,230.9259307011962,230.9259307011962,0.011987399309873581,0.11514130048453808,5.0,3.0375730004161596,,,,,,,,,,,,,3874,Moral,2024-07-15_19h12.18.384,MoralCondition_v2,2022.2.5,29.911515783642187,
2,0,2,0,,,,,,,,,,,,,,,,,,,,,,,,,,,,,,,,,,,,,,,,,,,,,,,,,,,,,,,,,,,,,,,233.9929593000561,233.9929593000561,0.000713299959897995,0.09904500097036362,1.0,9.166395798325539,,,,,,,3874,Moral,2024-07-15_19h12.18.384,MoralCondition_v2,2022.2.5,29.911515783642187,
3,0,3,0,0,0,0,0,,,,,,,,,,,,,,,,,,,,,,243.19266200065613,0.00032869912683963776,0.0975445993244648,249.17575300112367,6.014052700251341,249.42575370147824,249.42575370147824,0.12409830093383789,0.23090500012040138,6.030876601114869,255.49244910106063,255.49244910106063,255.49244910106063,0.09039270132780075,0.1975255012512207,261.1925303004682,261.3925502002239,6.030886400490999,6.130952600389719,267.39279390126467,12.031148001551628,267.5258464012295,267.5258464012295,0.031040500849485397,0.13078900054097176,down,1.2910101003944874,268.8422937002033,1.749955117702484e-05,0.09971199929714203,274.85901870019734,274.85901870019734,274.85901870019734,0.010808199644088745,0.09964199922978878,2.0,4.889869298785925,,,,,,,,,267.4925371017307,267.4925371017307,6.0973128993064165,,3874,Moral,2024-07-15_19h12.18.384,MoralCondition_v2,2022.2.5,29.911515783642187,
3,0,3,0,1,0,1,0,,,,,,,,,,,,,,,,,,,,,,,,,,,,,,,,,,,,,,,,,,,,,,,,,,,,,279.7923857010901,279.7923857010901,0.007394799962639809,0.09788360074162483,2.0,2.0248950999230146,,,,,,,,,,,,,3874,Moral,2024-07-15_19h12.18.384,MoralCondition_v2,2022.2.5,29.911515783642187,
3,0,3,0,2,0,2,0,,,,,,,,,,,,,,,,,,,,,,,,,,,,,,,,,,,,,,,,,,,,,,,,,,,,,281.85929950140417,281.85929950140417,0.0074693989008665085,0.09795570001006126,4.0,2.7916969005018473,,,,,,,,,,,,,3874,Moral,2024-07-15_19h12.18.384,MoralCondition_v2,2022.2.5,29.911515783642187,
3,0,3,0,3,0,3,0,,,,,,,,,,,,,,,,,,,,,,,,,,,,,,,,,,,,,,,,,,,,,,,,,,,,,284.7093169,284.7093169,0.00814410112798214,0.11459469981491566,3.0,2.8739687986671925,,,,,,,,,,,,,3874,Moral,2024-07-15_19h12.18.384,MoralCondition_v2,2022.2.5,29.911515783642187,
3,0,3,0,4,0,4,0,,,,,,,,,,,,,,,,,,,,,,,,,,,,,,,,,,,,,,,,,,,,,,,,,,,,,287.60934830084443,287.60934830084443,0.0068870000541210175,0.09929429925978184,5.0,2.160292999818921,,,,,,,,,,,,,3874,Moral,2024-07-15_19h12.18.384,MoralCondition_v2,2022.2.5,29.911515783642187,
3,0,3,0,5,0,5,0,,,,,,,,,,,,,,,,,,,,,,,,,,,,,,,,,,,,,,,,,,,,,,,,,,,,,289.8092310000211,289.8092310000211,0.008155601099133492,0.09796320088207722,1.0,1.85741369985044,,,,,,,,,,,,,3874,Moral,2024-07-15_19h12.18.384,MoralCondition_v2,2022.2.5,29.911515783642187,
3,0,3,0,6,0,6,0,,,,,,,,,,,,,,,,,,,,,,,,,,,,,,,,,,,,,,,,,,,,,,,,,,,,,291.7092464007437,291.7092464007437,0.00694119930267334,0.09821569919586182,4.0,2.0924285985529423,,,,,,,,,,,,,3874,Moral,2024-07-15_19h12.18.384,MoralCondition_v2,2022.2.5,29.911515783642187,
3,0,3,0,,,,,,,,,,,,,,,,,,,,,,,,,,,,,,,,,,,,,,,,,,,,,,,,,,,,,,,,,,,,,,,293.84248610027134,293.84248610027134,0.0012359991669654846,0.09807749837636948,2.0,5.865834601223469,,,,,,,3874,Moral,2024-07-15_19h12.18.384,MoralCondition_v2,2022.2.5,29.911515783642187,
4,0,4,0,0,0,0,0,,,,,,,,,,,,,,,,,,,,,,299.74271580018103,0.00024170055985450745,0.09791780076920986,305.7591899000108,6.0145837012678385,305.9255694001913,305.9255694001913,0.06947530061006546,0.18124120123684406,6.014588000252843,312.009405400604,312.009405400604,312.009405400604,0.06919100135564804,0.1647690013051033,317.70899000018835,317.94245690107346,6.031446101143956,6.1311851013451815,323.94231449998915,12.031338902190328,324.07579090073705,324.07579090073705,0.03138580173254013,0.13116280175745487,up,1.5737712997943163,325.70897900126874,4.700012505054474e-05,0.0977024994790554,331.70889890007675,331.70889890007675,331.70889890007675,0.008685100823640823,0.09780419990420341,5.0,2.2901225984096527,,,,,,,311.92567360028625,311.92567360028625,324.008974801749,324.008974801749,,,3874,Moral,2024-07-15_19h12.18.384,MoralCondition_v2,2022.2.5,29.911515783642187,
4,0,4,0,1,0,1,0,,,,,,,,,,,,,,,,,,,,,,,,,,,,,,,,,,,,,,,,,,,,,,,,,,,,,334.0421045012772,334.0421045012772,0.007626699283719063,0.09764360077679157,5.0,1.891142999753356,,,,,,,,,,,,,3874,Moral,2024-07-15_19h12.18.384,MoralCondition_v2,2022.2.5,29.911515783642187,
4,0,4,0,2,0,2,0,,,,,,,,,,,,,,,,,,,,,,,,,,,,,,,,,,,,,,,,,,,,,,,,,,,,,335.9757597018033,335.9757597018033,0.007490498945116997,0.0977207999676466,3.0,1.6579758003354073,,,,,,,,,,,,,3874,Moral,2024-07-15_19h12.18.384,MoralCondition_v2,2022.2.5,29.911515783642187,
4,0,4,0,3,0,3,0,,,,,,,,,,,,,,,,,,,,,,,,,,,,,,,,,,,,,,,,,,,,,,,,,,,,,337.6756354011595,337.6756354011595,0.0062753986567258835,0.09860130026936531,4.0,1.5269001014530659,,,,,,,,,,,,,3874,Moral,2024-07-15_19h12.18.384,MoralCondition_v2,2022.2.5,29.911515783642187,
4,0,4,0,4,0,4,0,,,,,,,,,,,,,,,,,,,,,,,,,,,,,,,,,,,,,,,,,,,,,,,,,,,,,339.24243880063295,339.24243880063295,0.007022099569439888,0.0991344004869461,5.0,3.159895299002528,,,,,,,,,,,,,3874,Moral,2024-07-15_19h12.18.384,MoralCondition_v2,2022.2.5,29.911515783642187,
4,0,4,0,5,0,5,0,,,,,,,,,,,,,,,,,,,,,,,,,,,,,,,,,,,,,,,,,,,,,,,,,,,,,342.44220590032637,342.44220590032637,0.007269499823451042,0.09760480001568794,4.0,5.491095300763845,,,,,,,,,,,,,3874,Moral,2024-07-15_19h12.18.384,MoralCondition_v2,2022.2.5,29.911515783642187,
4,0,4,0,6,0,6,0,,,,,,,,,,,,,,,,,,,,,,,,,,,,,,,,,,,,,,,,,,,,,,,,,,,,,347.9755930006504,347.9755930006504,0.007457800209522247,0.0980324987322092,5.0,2.5915889982134104,,,,,,,,,,,,,3874,Moral,2024-07-15_19h12.18.384,MoralCondition_v2,2022.2.5,29.911515783642187,
4,0,4,0,,,,,,,,,,,,,,,,,,,,,,,,,,,,,,,,,,,,,,,,,,,,,,,,,,,,,,,,,,,,,,,350.6088663004339,350.6088663004339,0.001729099079966545,0.09731439873576164,7.0,2.5968108996748924,,,,,,,3874,Moral,2024-07-15_19h12.18.384,MoralCondition_v2,2022.2.5,29.911515783642187,
5,0,5,0,0,0,0,0,,,,,,,,,,,,,,,,,,,,,,353.2424159012735,0.0001356992870569229,0.09934910014271736,359.2422122005373,5.999043799936771,359.49235300160944,359.49235300160944,0.13334770128130913,0.24900880083441734,6.01569340005517,365.52558210119605,365.52558210119605,365.52558210119605,0.08123280107975006,0.18265580013394356,371.2254742011428,371.4254439007491,6.015666600316763,6.115663301199675,377.42564560100436,12.015866201370955,377.5587756000459,377.5587756000459,0.015839900821447372,0.1156184021383524,up,1.4590916987508535,379.07549380138516,4.259869456291199e-05,0.09812219999730587,,385.0920696016401,385.0920696016401,0.02401129901409149,0.11463500000536442,4.0,6.224986799061298,,,,,,,,,377.52542180009186,377.52542180009186,6.099016999825835,,3874,Moral,2024-07-15_19h12.18.384,MoralCondition_v2,2022.2.5,29.911515783642187,
5,0,5,0,1,0,1,0,,,,,,,,,,,,,,,,,,,,,,,,,,,,,,,,,,,,,,,,,,,,,,,,,,,,,391.358861701563,391.358861701563,0.007870400324463844,0.09753650054335594,5.0,1.6577343996614218,,,,,,,,,,,,,3874,Moral,2024-07-15_19h12.18.384,MoralCondition_v2,2022.2.5,29.911515783642187,
5,0,5,0,2,0,2,0,,,,,,,,,,,,,,,,,,,,,,,,,,,,,,,,,,,,,,,,,,,,,,,,,,,,,393.07544790022075,393.07544790022075,0.00968090072274208,0.11406250111758709,4.0,2.2051743995398283,,,,,,,,,,,,,3874,Moral,2024-07-15_19h12.18.384,MoralCondition_v2,2022.2.5,29.911515783642187,
5,0,5,0,3,0,3,0,,,,,,,,,,,,,,,,,,,,,,,,,,,,,,,,,,,,,,,,,,,,,,,,,,,,,395.30883490107954,395.30883490107954,0.007541600614786148,0.09748779982328415,3.0,2.3578431997448206,,,,,,,,,,,,,3874,Moral,2024-07-15_19h12.18.384,MoralCondition_v2,2022.2.5,29.911515783642187,
5,0,5,0,4,0,4,0,,,,,,,,,,,,,,,,,,,,,,,,,,,,,,,,,,,,,,,,,,,,,,,,,,,,,397.70870280079544,397.70870280079544,0.006687100976705551,0.09920130111277103,1.0,2.9937350004911423,,,,,,,,,,,,,3874,Moral,2024-07-15_19h12.18.384,MoralCondition_v2,2022.2.5,29.911515783642187,
5,0,5,0,5,0,5,0,,,,,,,,,,,,,,,,,,,,,,,,,,,,,,,,,,,,,,,,,,,,,,,,,,,,,400.74213490076363,400.74213490076363,0.007007500156760216,0.09924080036580563,5.0,2.193247400224209,,,,,,,,,,,,,3874,Moral,2024-07-15_19h12.18.384,MoralCondition_v2,2022.2.5,29.911515783642187,
5,0,5,0,6,0,6,0,,,,,,,,,,,,,,,,,,,,,,,,,,,,,,,,,,,,,,,,,,,,,,,,,,,,,402.97532320022583,402.97532320022583,0.007418999448418617,0.09785629995167255,5.0,1.49156610108912,,,,,,,,,,,,,3874,Moral,2024-07-15_19h12.18.384,MoralCondition_v2,2022.2.5,29.911515783642187,
5,0,5,0,,,,,,,,,,,,,,,,,,,,,,,,,,,,,,,,,,,,,,,,,,,,,,,,,,,,,,,,,,,,,,,404.50880770012736,404.50880770012736,0.0015281997621059418,0.09810099937021732,2.0,9.364208800718188,,,,,,,3874,Moral,2024-07-15_19h12.18.384,MoralCondition_v2,2022.2.5,29.911515783642187,
6,0,6,0,0,0,0,0,,,,,,,,,,,,,,,,,,,,,,413.9089263007045,0.00032299943268299103,0.09755090065300465,419.90865460038185,6.030918799340725,420.10875240154564,420.10875240154564,0.0859179999679327,0.19732180051505566,6.030924500897527,426.2087866012007,426.2087866012007,426.2087866012007,0.08802850171923637,0.19775890186429024,431.90858060121536,432.10866550169885,6.030859600752592,6.130941400304437,438.1085333004594,12.030799901112914,438.2418786007911,438.2418786007911,0.03094160184264183,0.13101990148425102,down,1.2877271994948387,439.59181990101933,3.82009893655777e-05,0.09813999943435192,445.5921132005751,445.5921132005751,445.5921132005751,0.009200600907206535,0.097961300984025,1.0,6.189990401268005,,,,,,,426.10864410176873,426.10864410176873,438.20851980149746,438.20851980149746,,,3874,Moral,2024-07-15_19h12.18.384,MoralCondition_v2,2022.2.5,29.911515783642187,
6,0,6,0,1,0,1,0,,,,,,,,,,,,,,,,,,,,,,,,,,,,,,,,,,,,,,,,,,,,,,,,,,,,,451.841952200979,451.841952200979,0.009908599779009819,0.11334170028567314,2.0,3.837975800037384,,,,,,,,,,,,,3874,Moral,2024-07-15_19h12.18.384,MoralCondition_v2,2022.2.5,29.911515783642187,
6,0,6,0,2,0,2,0,,,,,,,,,,,,,,,,,,,,,,,,,,,,,,,,,,,,,,,,,,,,,,,,,,,,,455.7084568012506,455.7084568012506,0.008202699944376945,0.09851229935884476,5.0,1.824506901204586,,,,,,,,,,,,,3874,Moral,2024-07-15_19h12.18.384,MoralCondition_v2,2022.2.5,29.911515783642187,
6,0,6,0,3,0,3,0,,,,,,,,,,,,,,,,,,,,,,,,,,,,,,,,,,,,,,,,,,,,,,,,,,,,,457.5752128008753,457.5752128008753,0.006607800722122192,0.09938790090382099,5.0,1.3950624987483025,,,,,,,,,,,,,3874,Moral,2024-07-15_19h12.18.384,MoralCondition_v2,2022.2.5,29.911515783642187,
6,0,6,0,4,0,4,0,,,,,,,,,,,,,,,,,,,,,,,,,,,,,,,,,,,,,,,,,,,,,,,,,,,,,459.0084154009819,459.0084154009819,0.0076624006032943726,0.09769990108907223,6.0,3.324515899643302,,,,,,,,,,,,,3874,Moral,2024-07-15_19h12.18.384,MoralCondition_v2,2022.2.5,29.911515783642187,
6,0,6,0,5,0,5,0,,,,,,,,,,,,,,,,,,,,,,,,,,,,,,,,,,,,,,,,,,,,,,,,,,,,,462.3752324003726,462.3752324003726,0.008473901078104973,0.09739690087735653,4.0,1.9566690009087324,,,,,,,,,,,,,3874,Moral,2024-07-15_19h12.18.384,MoralCondition_v2,2022.2.5,29.911515783642187,
6,0,6,0,6,0,6,0,,,,,,,,,,,,,,,,,,,,,,,,,,,,,,,,,,,,,,,,,,,,,,,,,,,,,464.39188280142844,464.39188280142844,0.008331099525094032,0.11446299962699413,4.0,1.9071273002773523,,,,,,,,,,,,,3874,Moral,2024-07-15_19h12.18.384,MoralCondition_v2,2022.2.5,29.911515783642187,
6,0,6,0,,,,,,,,,,,,,,,,,,,,,,,,,,,,,,,,,,,,,,,,,,,,,,,,,,,,,,,,,,,,,,,466.32516870088875,466.32516870088875,0.001388799399137497,0.09787539951503277,1.0,2.731081899255514,,,,,,,3874,Moral,2024-07-15_19h12.18.384,MoralCondition_v2,2022.2.5,29.911515783642187,
7,0,7,0,0,0,0,0,,,,,,,,,,,,,,,,,,,,,,469.0917467009276,0.00020089931786060333,0.09854470007121563,475.10841030068696,6.015186799690127,475.27489610016346,475.27489610016346,0.07834520004689693,0.1818682011216879,6.015148900449276,481.3921535015106,481.3921535015106,481.3921535015106,0.08320010080933571,0.19889560155570507,487.0917043015361,487.2917602006346,6.032081201672554,6.131929801777005,493.29163410142064,12.031791301444173,493.425037400797,493.425037400797,0.031958600506186485,0.13175410218536854,up,1.696323100477457,495.1750352010131,5.3899362683296204e-05,0.09791290014982224,,501.20868960022926,501.20868960022926,0.025909800082445145,0.13126049935817719,5.0,2.839604001492262,,,,,,,481.2750699017197,481.2750699017197,493.3916466012597,493.3916466012597,,,3874,Moral,2024-07-15_19h12.18.384,MoralCondition_v2,2022.2.5,29.911515783642187,
7,0,7,0,1,0,1,0,,,,,,,,,,,,,,,,,,,,,,,,,,,,,,,,,,,,,,,,,,,,,,,,,,,,,504.09206280112267,504.09206280112267,0.0074768997728824615,0.11470570042729378,5.0,1.7079015001654625,,,,,,,,,,,,,3874,Moral,2024-07-15_19h12.18.384,MoralCondition_v2,2022.2.5,29.911515783642187,
7,0,7,0,2,0,2,0,,,,,,,,,,,,,,,,,,,,,,,,,,,,,,,,,,,,,,,,,,,,,,,,,,,,,505.82489420101047,505.82489420101047,0.006710300222039223,0.0990717988461256,3.0,5.5601105988025665,,,,,,,,,,,,,3874,Moral,2024-07-15_19h12.18.384,MoralCondition_v2,2022.2.5,29.911515783642187,
7,0,7,0,3,0,3,0,,,,,,,,,,,,,,,,,,,,,,,,,,,,,,,,,,,,,,,,,,,,,,,,,,,,,511.4250290002674,511.4250290002674,0.008526600897312164,0.09686009958386421,4.0,1.4560656007379293,,,,,,,,,,,,,3874,Moral,2024-07-15_19h12.18.384,MoralCondition_v2,2022.2.5,29.911515783642187,
7,0,7,0,4,0,4,0,,,,,,,,,,,,,,,,,,,,,,,,,,,,,,,,,,,,,,,,,,,,,,,,,,,,,512.9250816013664,512.9250816013664,0.006656300276517868,0.0992904994636774,3.0,1.8267775997519493,,,,,,,,,,,,,3874,Moral,2024-07-15_19h12.18.384,MoralCondition_v2,2022.2.5,29.911515783642187,
7,0,7,0,5,0,5,0,,,,,,,,,,,,,,,,,,,,,,,,,,,,,,,,,,,,,,,,,,,,,,,,,,,,,514.7915401011705,514.7915401011705,0.006513601168990135,0.09932669997215271,1.0,3.1275284998118877,,,,,,,,,,,,,3874,Moral,2024-07-15_19h12.18.384,MoralCondition_v2,2022.2.5,29.911515783642187,
7,0,7,0,6,0,6,0,,,,,,,,,,,,,,,,,,,,,,,,,,,,,,,,,,,,,,,,,,,,,,,,,,,,,517.958228001371,517.958228001371,0.0074773989617824554,0.09765180014073849,5.0,1.8244943004101515,,,,,,,,,,,,,3874,Moral,2024-07-15_19h12.18.384,MoralCondition_v2,2022.2.5,29.911515783642187,
7,0,7,0,,,,,,,,,,,,,,,,,,,,,,,,,,,,,,,,,,,,,,,,,,,,,,,,,,,,,,,,,,,,,,,519.8250677008182,519.8250677008182,0.0012341998517513275,0.09779530018568039,7.0,2.7645504008978605,,,,,,,3874,Moral,2024-07-15_19h12.18.384,MoralCondition_v2,2022.2.5,29.911515783642187,
8,0,8,0,0,0,0,0,,,,,,,,,,,,,,,,,,,,,,522.6250014007092,0.0002755001187324524,0.09793779999017715,528.6415256001055,6.01436709985137,528.8082236014307,528.8082236014307,0.0679199006408453,0.18141419999301434,6.014212299138308,534.9082867000252,534.9082867000252,534.9082867000252,0.0695204995572567,0.1812130007892847,540.6081022005528,540.808123100549,6.014362500980496,6.114396199584007,546.8080613017082,12.014314200729132,546.9414383005351,546.9414383005351,0.014484699815511703,0.11425380036234856,up,1.2515383008867502,548.2414164002985,8.700042963027954e-05,0.0980514008551836,554.2582089006901,554.2582089006901,554.2582089006901,0.009748799726366997,0.11475740000605583,6.0,3.1393462996929884,,,,,,,534.8081727009267,534.8081727009267,546.9080852009356,546.9080852009356,,,3874,Moral,2024-07-15_19h12.18.384,MoralCondition_v2,2022.2.5,29.911515783642187,
8,0,8,0,1,0,1,0,,,,,,,,,,,,,,,,,,,,,,,,,,,,,,,,,,,,,,,,,,,,,,,,,,,,,557.4414199013263,557.4414199013263,0.009189100936055183,0.1138578001409769,5.0,1.372153401374817,,,,,,,,,,,,,3874,Moral,2024-07-15_19h12.18.384,MoralCondition_v2,2022.2.5,29.911515783642187,
8,0,8,0,2,0,2,0,,,,,,,,,,,,,,,,,,,,,,,,,,,,,,,,,,,,,,,,,,,,,,,,,,,,,558.8413995001465,558.8413995001465,0.007309099659323692,0.09819619916379452,2.0,1.991872601211071,,,,,,,,,,,,,3874,Moral,2024-07-15_19h12.18.384,MoralCondition_v2,2022.2.5,29.911515783642187,
8,0,8,0,3,0,3,0,,,,,,,,,,,,,,,,,,,,,,,,,,,,,,,,,,,,,,,,,,,,,,,,,,,,,560.8748651016504,560.8748651016504,0.00726659968495369,0.09802519902586937,6.0,1.491745101287961,,,,,,,,,,,,,3874,Moral,2024-07-15_19h12.18.384,MoralCondition_v2,2022.2.5,29.911515783642187,
8,0,8,0,4,0,4,0,,,,,,,,,,,,,,,,,,,,,,,,,,,,,,,,,,,,,,,,,,,,,,,,,,,,,562.4082861002535,562.4082861002535,0.006950801238417625,0.09918089956045151,3.0,4.6599994990974665,,,,,,,,,,,,,3874,Moral,2024-07-15_19h12.18.384,MoralCondition_v2,2022.2.5,29.911515783642187,
8,0,8,0,5,0,5,0,,,,,,,,,,,,,,,,,,,,,,,,,,,,,,,,,,,,,,,,,,,,,,,,,,,,,567.1082342006266,567.1082342006266,0.007891099900007248,0.0976037997752428,4.0,1.457506999373436,,,,,,,,,,,,,3874,Moral,2024-07-15_19h12.18.384,MoralCondition_v2,2022.2.5,29.911515783642187,
8,0,8,0,6,0,6,0,,,,,,,,,,,,,,,,,,,,,,,,,,,,,,,,,,,,,,,,,,,,,,,,,,,,,568.6249771006405,568.6249771006405,0.008597498759627342,0.11439349874854088,4.0,1.740148600190878,,,,,,,,,,,,,3874,Moral,2024-07-15_19h12.18.384,MoralCondition_v2,2022.2.5,29.911515783642187,
8,0,8,0,,,,,,,,,,,,,,,,,,,,,,,,,,,,,,,,,,,,,,,,,,,,,,,,,,,,,,,,,,,,,,,570.3911830000579,570.3911830000579,0.0012637004256248474,0.0978178009390831,7.0,4.864521399140358,,,,,,,3874,Moral,2024-07-15_19h12.18.384,MoralCondition_v2,2022.2.5,29.911515783642187,
9,0,9,0,0,0,0,0,,,,,,,,,,,,,,,,,,,,,,575.2917104009539,0.0002843998372554779,0.09800069965422153,581.3079201001674,6.0146200992167,581.4748504012823,581.4748504012823,0.067255400121212,0.18158669956028461,6.014589900150895,587.5744969006628,587.5744969006628,587.5744969006628,0.0667835995554924,0.18131249956786633,593.2747708000243,593.4743438009173,6.014311200007796,6.114640599116683,599.4747948013246,12.014903899282217,599.6078637000173,599.6078637000173,0.014626801013946533,0.11456190049648285,up,0.8173197004944086,600.4745307005942,7.270090281963348e-05,0.09778990037739277,,606.5077707003802,606.5077707003802,0.025040701031684875,0.13104220107197762,6.0,2.3735768999904394,,,,,,,587.474582400173,587.474582400173,599.557863401249,599.557863401249,,,3874,Moral,2024-07-15_19h12.18.384,MoralCondition_v2,2022.2.5,29.911515783642187,
9,0,9,0,1,0,1,0,,,,,,,,,,,,,,,,,,,,,,,,,,,,,,,,,,,,,,,,,,,,,,,,,,,,,608.9077651016414,608.9077651016414,0.006607700139284134,0.09926369972527027,5.0,3.1601076014339924,,,,,,,,,,,,,3874,Moral,2024-07-15_19h12.18.384,MoralCondition_v2,2022.2.5,29.911515783642187,
9,0,9,0,2,0,2,0,,,,,,,,,,,,,,,,,,,,,,,,,,,,,,,,,,,,,,,,,,,,,,,,,,,,,612.1246992014349,612.1246992014349,0.008727800101041794,0.11418860033154488,6.0,1.673267800360918,,,,,,,,,,,,,3874,Moral,2024-07-15_19h12.18.384,MoralCondition_v2,2022.2.5,29.911515783642187,
9,0,9,0,3,0,3,0,,,,,,,,,,,,,,,,,,,,,,,,,,,,,,,,,,,,,,,,,,,,,,,,,,,,,613.82440030016,613.82440030016,0.006855001673102379,0.09924210049211979,3.0,6.159921299666166,,,,,,,,,,,,,3874,Moral,2024-07-15_19h12.18.384,MoralCondition_v2,2022.2.5,29.911515783642187,
9,0,9,0,4,0,4,0,,,,,,,,,,,,,,,,,,,,,,,,,,,,,,,,,,,,,,,,,,,,,,,,,,,,,620.0244709011167,620.0244709011167,0.007372099906206131,0.09803210012614727,2.0,1.458287300541997,,,,,,,,,,,,,3874,Moral,2024-07-15_19h12.18.384,MoralCondition_v2,2022.2.5,29.911515783642187,
9,0,9,0,5,0,5,0,,,,,,,,,,,,,,,,,,,,,,,,,,,,,,,,,,,,,,,,,,,,,,,,,,,,,621.5245080012828,621.5245080012828,0.007291799411177635,0.09811210073530674,4.0,1.8250925987958908,,,,,,,,,,,,,3874,Moral,2024-07-15_19h12.18.384,MoralCondition_v2,2022.2.5,29.911515783642187,
9,0,9,0,6,0,6,0,,,,,,,,,,,,,,,,,,,,,,,,,,,,,,,,,,,,,,,,,,,,,,,,,,,,,623.4081441015005,623.4081441015005,0.008884700015187263,0.11447259970009327,4.0,0.8065406996756792,,,,,,,,,,,,,3874,Moral,2024-07-15_19h12.18.384,MoralCondition_v2,2022.2.5,29.911515783642187,
9,0,9,0,,,,,,,,,,,,,,,,,,,,,,,,,,,,,,,,,,,,,,,,,,,,,,,,,,,,,,,,,,,,,,,624.2410345003009,624.2410345003009,0.0007245000451803207,0.09919529967010021,7.0,2.4663153998553753,,,,,,,3874,Moral,2024-07-15_19h12.18.384,MoralCondition_v2,2022.2.5,29.911515783642187,
10,0,10,0,0,0,0,0,,,,,,,,,,,,,,,,,,,,,,626.7412417009473,0.0004079006612300873,0.09724790044128895,632.7242436017841,6.013823000714183,632.9077773001045,632.9077773001045,0.05523870140314102,0.16387679986655712,6.03052220121026,639.040969800204,639.040969800204,639.040969800204,0.08844050019979477,0.19747240096330643,644.7412664014846,644.9409802015871,6.030573200434446,6.13057860173285,650.9409734010696,12.03054659999907,651.0743044000119,651.0743044000119,0.03069320134818554,0.1306616012006998,up,7.718641299754381,658.8411581013352,4.759989678859711e-05,0.09783169999718666,,664.8574637006968,664.8574637006968,0.02378789894282818,0.11432649940252304,3.0,2.1248352006077766,,,,,,,638.907693201676,638.907693201676,651.0409617014229,651.0409617014229,6.097185000777245,,3874,Moral,2024-07-15_19h12.18.384,MoralCondition_v2,2022.2.5,29.911515783642187,
10,0,10,0,1,0,1,0,,,,,,,,,,,,,,,,,,,,,,,,,,,,,,,,,,,,,,,,,,,,,,,,,,,,,667.0242093000561,667.0242093000561,0.008820200338959694,0.099278399720788,6.0,2.0579121001064777,,,,,,,,,,,,,3874,Moral,2024-07-15_19h12.18.384,MoralCondition_v2,2022.2.5,29.911515783642187,
10,0,10,0,2,0,2,0,,,,,,,,,,,,,,,,,,,,,,,,,,,,,,,,,,,,,,,,,,,,,,,,,,,,,669.1242404002696,669.1242404002696,0.007889999076724052,0.09734150022268295,2.0,2.6901984997093678,,,,,,,,,,,,,3874,Moral,2024-07-15_19h12.18.384,MoralCondition_v2,2022.2.5,29.911515783642187,
10,0,10,0,3,0,3,0,,,,,,,,,,,,,,,,,,,,,,,,,,,,,,,,,,,,,,,,,,,,,,,,,,,,,671.8576301001012,671.8576301001012,0.006975898519158363,0.09811599925160408,2.0,1.8258433993905783,,,,,,,,,,,,,3874,Moral,2024-07-15_19h12.18.384,MoralCondition_v2,2022.2.5,29.911515783642187,
10,0,10,0,4,0,4,0,,,,,,,,,,,,,,,,,,,,,,,,,,,,,,,,,,,,,,,,,,,,,,,,,,,,,673.7241270001978,673.7241270001978,0.0074188001453876495,0.09826070070266724,5.0,1.958406500518322,,,,,,,,,,,,,3874,Moral,2024-07-15_19h12.18.384,MoralCondition_v2,2022.2.5,29.911515783642187,
10,0,10,0,5,0,5,0,,,,,,,,,,,,,,,,,,,,,,,,,,,,,,,,,,,,,,,,,,,,,,,,,,,,,675.7411372009665,675.7411372009665,0.00942469947040081,0.11587139964103699,5.0,2.473973700776696,,,,,,,,,,,,,3874,Moral,2024-07-15_19h12.18.384,MoralCondition_v2,2022.2.5,29.911515783642187,
10,0,10,0,6,0,6,0,,,,,,,,,,,,,,,,,,,,,,,,,,,,,,,,,,,,,,,,,,,,,,,,,,,,,678.2408393006772,678.2408393006772,0.006501000374555588,0.09904300048947334,3.0,2.5936362985521555,,,,,,,,,,,,,3874,Moral,2024-07-15_19h12.18.384,MoralCondition_v2,2022.2.5,29.911515783642187,
10,0,10,0,,,,,,,,,,,,,,,,,,,,,,,,,,,,,,,,,,,,,,,,,,,,,,,,,,,,,,,,,,,,,,,680.8743595015258,680.8743595015258,0.000674201175570488,0.09913270175457001,2.0,7.1663770992308855,,,,,,,3874,Moral,2024-07-15_19h12.18.384,MoralCondition_v2,2022.2.5,29.911515783642187,
11,0,11,0,0,0,0,0,,,,,,,,,,,,,,,,,,,,,,688.0743735004216,0.0002937000244855881,0.0975331012159586,694.0741111002862,6.030937001109123,694.2739788014442,694.2739788014442,0.09316250123083591,0.19752180017530918,6.030836701393127,700.3578034006059,700.3578034006059,700.3578034006059,0.07376760058104992,0.1811022013425827,706.0573555007577,706.2574005015194,6.014268701896071,6.1141674015671015,712.2573554012924,12.014188701286912,712.3906605001539,712.3906605001539,0.014181401580572128,0.11407820135354996,up,0.642350198701024,713.0906728003174,4.29004430770874e-05,0.09795399941504002,,719.1239232011139,719.1239232011139,0.02545830048620701,0.1312853004783392,6.0,5.673497300595045,,,,,,,700.2572343014181,700.2572343014181,712.3405360002071,712.3405360002071,,,3874,Moral,2024-07-15_19h12.18.384,MoralCondition_v2,2022.2.5,29.911515783642187,
11,0,11,0,1,0,1,0,,,,,,,,,,,,,,,,,,,,,,,,,,,,,,,,,,,,,,,,,,,,,,,,,,,,,724.8406869005412,724.8406869005412,0.007983699440956116,0.11456380039453506,6.0,1.107693500816822,,,,,,,,,,,,,3874,Moral,2024-07-15_19h12.18.384,MoralCondition_v2,2022.2.5,29.911515783642187,
11,0,11,0,2,0,2,0,,,,,,,,,,,,,,,,,,,,,,,,,,,,,,,,,,,,,,,,,,,,,,,,,,,,,725.9738206006587,725.9738206006587,0.006196299567818642,0.09909730032086372,3.0,6.227309800684452,,,,,,,,,,,,,3874,Moral,2024-07-15_19h12.18.384,MoralCondition_v2,2022.2.5,29.911515783642187,
11,0,11,0,3,0,3,0,,,,,,,,,,,,,,,,,,,,,,,,,,,,,,,,,,,,,,,,,,,,,,,,,,,,,732.2405793014914,732.2405793014914,0.0068932995200157166,0.0990194994956255,2.0,1.493069600313902,,,,,,,,,,,,,3874,Moral,2024-07-15_19h12.18.384,MoralCondition_v2,2022.2.5,29.911515783642187,
11,0,11,0,4,0,4,0,,,,,,,,,,,,,,,,,,,,,,,,,,,,,,,,,,,,,,,,,,,,,,,,,,,,,733.7905527018011,733.7905527018011,0.009687099605798721,0.11603149957954884,3.0,2.073963200673461,,,,,,,,,,,,,3874,Moral,2024-07-15_19h12.18.384,MoralCondition_v2,2022.2.5,29.911515783642187,
11,0,11,0,5,0,5,0,,,,,,,,,,,,,,,,,,,,,,,,,,,,,,,,,,,,,,,,,,,,,,,,,,,,,735.8905437011272,735.8905437011272,0.008369900286197662,0.09844259917736053,2.0,4.35777759924531,,,,,,,,,,,,,3874,Moral,2024-07-15_19h12.18.384,MoralCondition_v2,2022.2.5,29.911515783642187,
11,0,11,0,6,0,6,0,,,,,,,,,,,,,,,,,,,,,,,,,,,,,,,,,,,,,,,,,,,,,,,,,,,,,740.2905682008713,740.2905682008713,0.007707100361585617,0.0980284009128809,5.0,3.8242490012198687,,,,,,,,,,,,,3874,Moral,2024-07-15_19h12.18.384,MoralCondition_v2,2022.2.5,29.911515783642187,
11,0,11,0,,,,,,,,,,,,,,,,,,,,,,,,,,,,,,,,,,,,,,,,,,,,,,,,,,,,,,,,,,,,,,,744.1577872000635,744.1577872000635,0.0020260997116565704,0.09728909842669964,7.0,2.5298439990729094,,,,,,,3874,Moral,2024-07-15_19h12.18.384,MoralCondition_v2,2022.2.5,29.911515783642187,
12,0,12,0,0,0,0,0,,,,,,,,,,,,,,,,,,,,,,746.7238781005144,0.00014869868755340576,0.0991864986717701,752.7406235001981,6.015899499878287,752.9071947000921,752.9071947000921,0.0705637987703085,0.18259510025382042,6.015925899147987,759.0072224009782,759.0072224009782,759.0072224009782,0.06986160017549992,0.18281600065529346,764.7070465013385,764.9072870016098,6.016032300889492,6.115809900686145,770.9072292000055,12.016035599634051,771.0403692014515,771.0403692014515,0.01597299985587597,0.11571920104324818,up,1.44053940102458,772.5403576008976,4.990026354789734e-05,0.09744879975914955,778.540362900123,778.540362900123,778.540362900123,0.004696201533079147,0.09716640040278435,2.0,1.7272207997739315,,,,,,,758.907113801688,758.907113801688,771.0070728007704,771.0070728007704,,,3874,Moral,2024-07-15_19h12.18.384,MoralCondition_v2,2022.2.5,29.911515783642187,
12,0,12,0,1,0,1,0,,,,,,,,,,,,,,,,,,,,,,,,,,,,,,,,,,,,,,,,,,,,,,,,,,,,,780.3068994004279,780.3068994004279,0.006063399836421013,0.09917769953608513,6.0,1.0277741998434067,,,,,,,,,,,,,3874,Moral,2024-07-15_19h12.18.384,MoralCondition_v2,2022.2.5,29.911515783642187,
12,0,12,0,2,0,2,0,,,,,,,,,,,,,,,,,,,,,,,,,,,,,,,,,,,,,,,,,,,,,,,,,,,,,781.3735393006355,781.3735393006355,0.005936099216341972,0.09904840029776096,6.0,1.3276019990444183,,,,,,,,,,,,,3874,Moral,2024-07-15_19h12.18.384,MoralCondition_v2,2022.2.5,29.911515783642187,
12,0,12,0,3,0,3,0,,,,,,,,,,,,,,,,,,,,,,,,,,,,,,,,,,,,,,,,,,,,,,,,,,,,,782.7401255015284,782.7401255015284,0.0061055999249219894,0.0991750005632639,3.0,2.660776300355792,,,,,,,,,,,,,3874,Moral,2024-07-15_19h12.18.384,MoralCondition_v2,2022.2.5,29.911515783642187,
12,0,12,0,4,0,4,0,,,,,,,,,,,,,,,,,,,,,,,,,,,,,,,,,,,,,,,,,,,,,,,,,,,,,785.4403006006032,785.4403006006032,0.005822399631142616,0.09940109960734844,5.0,1.3611898999661207,,,,,,,,,,,,,3874,Moral,2024-07-15_19h12.18.384,MoralCondition_v2,2022.2.5,29.911515783642187,
12,0,12,0,5,0,5,0,,,,,,,,,,,,,,,,,,,,,,,,,,,,,,,,,,,,,,,,,,,,,,,,,,,,,786.8404683005065,786.8404683005065,0.007686501368880272,0.09769280068576336,3.0,1.5911707002669573,,,,,,,,,,,,,3874,Moral,2024-07-15_19h12.18.384,MoralCondition_v2,2022.2.5,29.911515783642187,
12,0,12,0,6,0,6,0,,,,,,,,,,,,,,,,,,,,,,,,,,,,,,,,,,,,,,,,,,,,,,,,,,,,,788.4737603999674,788.4737603999674,0.0074961986392736435,0.09808849915862083,3.0,1.1246310006827116,,,,,,,,,,,,,3874,Moral,2024-07-15_19h12.18.384,MoralCondition_v2,2022.2.5,29.911515783642187,
12,0,12,0,,,,,,,,,,,,,,,,,,,,,,,,,,,,,,,,,,,,,,,,,,,,,,,,,,,,,,,,,,,,,,,789.6404739003628,789.6404739003628,0.000934898853302002,0.0985597986727953,7.0,1.49873480014503,,,,,,,3874,Moral,2024-07-15_19h12.18.384,MoralCondition_v2,2022.2.5,29.911515783642187,
13,0,13,0,0,0,0,0,,,,,,,,,,,,,,,,,,,,,,791.1737374011427,0.0003869999200105667,0.09732040017843246,797.1902833003551,6.013946499675512,797.3901556003839,797.3901556003839,0.10929829999804497,0.21416320092976093,6.013992501422763,803.4567856006324,803.4567856006324,803.4567856006324,0.06609750166535378,0.18062370084226131,809.1570901013911,809.3568954002112,6.013978000730276,6.113966301083565,815.3568344004452,12.013990400359035,815.4901604000479,815.4901604000479,0.014081601053476334,0.11386480182409286,down,9.871744399890304,825.4068014007062,5.21000474691391e-05,0.09785000048577785,831.4237259011716,831.4237259011716,831.4237259011716,0.009025000035762787,0.11447890102863312,3.0,4.039817400276661,,,,,,,,,815.4568154010922,815.4568154010922,,,3874,Moral,2024-07-15_19h12.18.384,MoralCondition_v2,2022.2.5,29.911515783642187,
13,0,13,0,1,0,1,0,,,,,,,,,,,,,,,,,,,,,,,,,,,,,,,,,,,,,,,,,,,,,,,,,,,,,835.4899674002081,835.4899674002081,0.006904000416398048,0.09922789968550205,6.0,1.8934336006641388,,,,,,,,,,,,,3874,Moral,2024-07-15_19h12.18.384,MoralCondition_v2,2022.2.5,29.911515783642187,
13,0,13,0,2,0,2,0,,,,,,,,,,,,,,,,,,,,,,,,,,,,,,,,,,,,,,,,,,,,,,,,,,,,,837.4234350007027,837.4234350007027,0.0077432990074157715,0.0988657996058464,6.0,3.8254371006041765,,,,,,,,,,,,,3874,Moral,2024-07-15_19h12.18.384,MoralCondition_v2,2022.2.5,29.911515783642187,
13,0,13,0,3,0,3,0,,,,,,,,,,,,,,,,,,,,,,,,,,,,,,,,,,,,,,,,,,,,,,,,,,,,,841.2900456003845,841.2900456003845,0.006584899500012398,0.09931709989905357,5.0,3.227218199521303,,,,,,,,,,,,,3874,Moral,2024-07-15_19h12.18.384,MoralCondition_v2,2022.2.5,29.911515783642187,
13,0,13,0,4,0,4,0,,,,,,,,,,,,,,,,,,,,,,,,,,,,,,,,,,,,,,,,,,,,,,,,,,,,,844.5566726010293,844.5566726010293,0.00635409913957119,0.09912030026316643,5.0,2.227342600002885,,,,,,,,,,,,,3874,Moral,2024-07-15_19h12.18.384,MoralCondition_v2,2022.2.5,29.911515783642187,
13,0,13,0,5,0,5,0,,,,,,,,,,,,,,,,,,,,,,,,,,,,,,,,,,,,,,,,,,,,,,,,,,,,,846.8402735013515,846.8402735013515,0.009683700278401375,0.11401529982686043,3.0,1.6722104996442795,,,,,,,,,,,,,3874,Moral,2024-07-15_19h12.18.384,MoralCondition_v2,2022.2.5,29.911515783642187,
13,0,13,0,6,0,6,0,,,,,,,,,,,,,,,,,,,,,,,,,,,,,,,,,,,,,,,,,,,,,,,,,,,,,848.5402292013168,848.5402292013168,0.006801499053835869,0.09913549944758415,3.0,2.1266540996730328,,,,,,,,,,,,,3874,Moral,2024-07-15_19h12.18.384,MoralCondition_v2,2022.2.5,29.911515783642187,
13,0,13,0,,,,,,,,,,,,,,,,,,,,,,,,,,,,,,,,,,,,,,,,,,,,,,,,,,,,,,,,,,,,,,,850.7068622000515,850.7068622000515,0.0016397982835769653,0.09785189852118492,2.0,4.23054469935596,,,,,,,3874,Moral,2024-07-15_19h12.18.384,MoralCondition_v2,2022.2.5,29.911515783642187,
14,0,14,0,0,0,0,0,,,,,,,,,,,,,,,,,,,,,,854.9733320008963,0.0004259999841451645,0.09744090028107166,860.9900056011975,6.014075001701713,861.1565860006958,861.1565860006958,0.06732410192489624,0.18075000122189522,6.014032701030374,867.2566485013813,867.2566485013813,867.2566485013813,0.06798860244452953,0.18093810230493546,872.9565961007029,873.1565581001341,6.014040300622582,6.114140901714563,879.1565682012588,12.014048602432013,879.2898840010166,879.2898840010166,0.014241501688957214,0.11395120248198509,up,0.6556259002536535,880.006525401026,4.33996319770813e-05,0.09797709994018078,886.0234768018126,886.0234768018126,886.0234768018126,0.009809600189328194,0.11474690027534962,3.0,2.605747800320387,,,,,,,867.1565633006394,867.1565633006394,879.2565100006759,879.2565100006759,,,3874,Moral,2024-07-15_19h12.18.384,MoralCondition_v2,2022.2.5,29.911515783642187,
14,0,14,0,1,0,1,0,,,,,,,,,,,,,,,,,,,,,,,,,,,,,,,,,,,,,,,,,,,,,,,,,,,,,888.6565209012479,888.6565209012479,0.007436500862240791,0.09794350154697895,5.0,4.457964399829507,,,,,,,,,,,,,3874,Moral,2024-07-15_19h12.18.384,MoralCondition_v2,2022.2.5,29.911515783642187,
14,0,14,0,2,0,2,0,,,,,,,,,,,,,,,,,,,,,,,,,,,,,,,,,,,,,,,,,,,,,,,,,,,,,893.1565231010318,893.1565231010318,0.006615599617362022,0.09907200001180172,3.0,7.126730099320412,,,,,,,,,,,,,3874,Moral,2024-07-15_19h12.18.384,MoralCondition_v2,2022.2.5,29.911515783642187,
14,0,14,0,3,0,3,0,,,,,,,,,,,,,,,,,,,,,,,,,,,,,,,,,,,,,,,,,,,,,,,,,,,,,900.3401077017188,900.3401077017188,0.007801499217748642,0.11434909887611866,3.0,1.6073470003902912,,,,,,,,,,,,,3874,Moral,2024-07-15_19h12.18.384,MoralCondition_v2,2022.2.5,29.911515783642187,
14,0,14,0,4,0,4,0,,,,,,,,,,,,,,,,,,,,,,,,,,,,,,,,,,,,,,,,,,,,,,,,,,,,,901.9732354003936,901.9732354003936,0.006780000403523445,0.09910150058567524,6.0,1.126833999529481,,,,,,,,,,,,,3874,Moral,2024-07-15_19h12.18.384,MoralCondition_v2,2022.2.5,29.911515783642187,
14,0,14,0,5,0,5,0,,,,,,,,,,,,,,,,,,,,,,,,,,,,,,,,,,,,,,,,,,,,,,,,,,,,,903.1399791017175,903.1399791017175,0.00727429986000061,0.09782449901103973,5.0,1.1583631001412868,,,,,,,,,,,,,3874,Moral,2024-07-15_19h12.18.384,MoralCondition_v2,2022.2.5,29.911515783642187,
14,0,14,0,6,0,6,0,,,,,,,,,,,,,,,,,,,,,,,,,,,,,,,,,,,,,,,,,,,,,,,,,,,,,904.3566689006984,904.3566689006984,0.008042600005865097,0.1142601016908884,2.0,2.807286800816655,,,,,,,,,,,,,3874,Moral,2024-07-15_19h12.18.384,MoralCondition_v2,2022.2.5,29.911515783642187,
14,0,14,0,,,,,,,,,,,,,,,,,,,,,,,,,,,,,,,,,,,,,,,,,,,,,,,,,,,,,,,,,,,,,,,907.1900376006961,907.1900376006961,0.0014707986265420914,0.09749629907310009,7.0,1.7304660007357597,,,,,,,3874,Moral,2024-07-15_19h12.18.384,MoralCondition_v2,2022.2.5,29.911515783642187,
15,0,15,0,0,0,0,0,,,,,,,,,,,,,,,,,,,,,,908.9566905014217,0.0003686007112264633,0.09735560044646263,914.9395376015455,6.013729099184275,915.1232452001423,915.1232452001423,0.05453520081937313,0.16414670087397099,6.030572099611163,921.2563002016395,921.2563002016395,921.2563002016395,0.08475160039961338,0.19723120145499706,926.9563416000456,927.1563048008829,6.0305295009166,6.130669999867678,933.156279399991,12.030632100999355,933.2896404005587,933.2896404005587,0.030685901641845703,0.13054050132632256,up,0.9673280995339155,934.2893506009132,1.7700716853141785e-05,0.08317209966480732,940.3229612000287,940.3229612000287,940.3229612000287,0.01218700036406517,0.11643840000033379,3.0,1.939012199640274,,,,,,,921.1230891011655,921.1230891011655,933.2562509011477,933.2562509011477,6.0973889995366335,,3874,Moral,2024-07-15_19h12.18.384,MoralCondition_v2,2022.2.5,29.911515783642187,
15,0,15,0,1,0,1,0,,,,,,,,,,,,,,,,,,,,,,,,,,,,,,,,,,,,,,,,,,,,,,,,,,,,,942.2895721010864,942.2895721010864,0.0072700995951890945,0.09802010096609592,6.0,1.5582762993872166,,,,,,,,,,,,,3874,Moral,2024-07-15_19h12.18.384,MoralCondition_v2,2022.2.5,29.911515783642187,
15,0,15,0,2,0,2,0,,,,,,,,,,,,,,,,,,,,,,,,,,,,,,,,,,,,,,,,,,,,,,,,,,,,,943.8896027002484,943.8896027002484,0.00681070052087307,0.09914319962263107,2.0,1.926623499020934,,,,,,,,,,,,,3874,Moral,2024-07-15_19h12.18.384,MoralCondition_v2,2022.2.5,29.911515783642187,
15,0,15,0,3,0,3,0,,,,,,,,,,,,,,,,,,,,,,,,,,,,,,,,,,,,,,,,,,,,,,,,,,,,,945.8562246002257,945.8562246002257,0.0070397984236478806,0.09730280004441738,5.0,1.3581256996840239,,,,,,,,,,,,,3874,Moral,2024-07-15_19h12.18.384,MoralCondition_v2,2022.2.5,29.911515783642187,
15,0,15,0,4,0,4,0,,,,,,,,,,,,,,,,,,,,,,,,,,,,,,,,,,,,,,,,,,,,,,,,,,,,,947.2560056000948,947.2560056000948,0.007487799972295761,0.09736020117998123,6.0,1.957592099905014,,,,,,,,,,,,,3874,Moral,2024-07-15_19h12.18.384,MoralCondition_v2,2022.2.5,29.911515783642187,
15,0,15,0,5,0,5,0,,,,,,,,,,,,,,,,,,,,,,,,,,,,,,,,,,,,,,,,,,,,,,,,,,,,,949.256105100736,949.256105100736,0.008017299696803093,0.09788419865071774,2.0,1.5575363989919424,,,,,,,,,,,,,3874,Moral,2024-07-15_19h12.18.384,MoralCondition_v2,2022.2.5,29.911515783642187,
15,0,15,0,6,0,6,0,,,,,,,,,,,,,,,,,,,,,,,,,,,,,,,,,,,,,,,,,,,,,,,,,,,,,950.8562599010766,950.8562599010766,0.007547300308942795,0.09790719859302044,3.0,1.7579294983297586,,,,,,,,,,,,,3874,Moral,2024-07-15_19h12.18.384,MoralCondition_v2,2022.2.5,29.911515783642187,
15,0,15,0,,,,,,,,,,,,,,,,,,,,,,,,,,,,,,,,,,,,,,,,,,,,,,,,,,,,,,,,,,,,,,,952.6562366001308,952.6562366001308,0.001199299469590187,0.09789679944515228,7.0,1.6314667984843254,,,,,,,3874,Moral,2024-07-15_19h12.18.384,MoralCondition_v2,2022.2.5,29.911515783642187,
16,0,16,0,0,0,0,0,,,,,,,,,,,,,,,,,,,,,,954.3228582013398,0.000242600217461586,0.09790419973433018,960.339549601078,6.014645799994469,960.506221299991,960.506221299991,0.0759504996240139,0.18144560046494007,6.014520300552249,966.6061174999923,966.6061174999923,966.6061174999923,0.07651510089635849,0.1813305001705885,972.3063338007778,972.506101500243,6.014506600797176,6.1145339999347925,978.5060970000923,12.014504600316286,978.6393992006779,978.6393992006779,0.014707500115036964,0.11440630070865154,down,1.3142114989459515,980.0060493014753,4.7400593757629395e-05,0.09774439968168736,986.0061219017953,986.0061219017953,986.0061219017953,0.007294001057744026,0.0976209007203579,2.0,2.424678599461913,,,,,,,966.5061020012945,966.5061020012945,978.6060609016567,978.6060609016567,,,3874,Moral,2024-07-15_19h12.18.384,MoralCondition_v2,2022.2.5,29.911515783642187,
16,0,16,0,1,0,1,0,,,,,,,,,,,,,,,,,,,,,,,,,,,,,,,,,,,,,,,,,,,,,,,,,,,,,988.4728397000581,988.4728397000581,0.006662299856543541,0.099150400608778,5.0,1.8602047003805637,,,,,,,,,,,,,3874,Moral,2024-07-15_19h12.18.384,MoralCondition_v2,2022.2.5,29.911515783642187,
16,0,16,0,2,0,2,0,,,,,,,,,,,,,,,,,,,,,,,,,,,,,,,,,,,,,,,,,,,,,,,,,,,,,990.3728972002864,990.3728972002864,0.006791999563574791,0.09915710054337978,5.0,1.7601449992507696,,,,,,,,,,,,,3874,Moral,2024-07-15_19h12.18.384,MoralCondition_v2,2022.2.5,29.911515783642187,
16,0,16,0,3,0,3,0,,,,,,,,,,,,,,,,,,,,,,,,,,,,,,,,,,,,,,,,,,,,,,,,,,,,,992.1726524010301,992.1726524010301,0.0071606989949941635,0.09849769994616508,2.0,1.6925390996038914,,,,,,,,,,,,,3874,Moral,2024-07-15_19h12.18.384,MoralCondition_v2,2022.2.5,29.911515783642187,
16,0,16,0,4,0,4,0,,,,,,,,,,,,,,,,,,,,,,,,,,,,,,,,,,,,,,,,,,,,,,,,,,,,,993.9060538001359,993.9060538001359,0.007156699895858765,0.09824320115149021,5.0,5.858576500788331,,,,,,,,,,,,,3874,Moral,2024-07-15_19h12.18.384,MoralCondition_v2,2022.2.5,29.911515783642187,
16,0,16,0,5,0,5,0,,,,,,,,,,,,,,,,,,,,,,,,,,,,,,,,,,,,,,,,,,,,,,,,,,,,,999.8059094008058,999.8059094008058,0.006564900279045105,0.09912380017340183,3.0,2.7269821986556053,,,,,,,,,,,,,3874,Moral,2024-07-15_19h12.18.384,MoralCondition_v2,2022.2.5,29.911515783642187,
16,0,16,0,6,0,6,0,,,,,,,,,,,,,,,,,,,,,,,,,,,,,,,,,,,,,,,,,,,,,,,,,,,,,1002.5727640017867,1002.5727640017867,0.006632698699831963,0.09913329966366291,3.0,2.4938537999987602,,,,,,,,,,,,,3874,Moral,2024-07-15_19h12.18.384,MoralCondition_v2,2022.2.5,29.911515783642187,
16,0,16,0,,,,,,,,,,,,,,,,,,,,,,,,,,,,,,,,,,,,,,,,,,,,,,,,,,,,,,,,,,,,,,,1005.1058914009482,1005.1058914009482,0.0007013995200395584,0.09895169921219349,2.0,2.7327389009296894,,,,,,,3874,Moral,2024-07-15_19h12.18.384,MoralCondition_v2,2022.2.5,29.911515783642187,
17,0,17,0,0,0,0,0,,,,,,,,,,,,,,,,,,,,,,1007.872817100957,0.0003175996243953705,0.09744839929044247,1013.8725580014288,6.030735999345779,1014.0558804012835,1014.0558804012835,0.06724550016224384,0.18095600046217442,6.014099100604653,1020.139235900715,1020.139235900715,1020.139235900715,0.06541830115020275,0.16422370076179504,1025.8391389008611,1026.072553500533,6.030687300488353,6.130796201527119,1032.0724707003683,12.030651900917292,1032.2058555018157,1032.2058555018157,0.030824901536107063,0.13069370202720165,down,1.0272537004202604,1033.2890439014882,4.869885742664337e-05,0.09771179966628551,,1039.305793300271,1039.305793300271,0.021642999723553658,0.1144556999206543,2.0,2.2938532009720802,,,,,,,1020.0559731014073,1020.0559731014073,1032.1391233000904,1032.1391233000904,,,3874,Moral,2024-07-15_19h12.18.384,MoralCondition_v2,2022.2.5,29.911515783642187,
17,0,17,0,1,0,1,0,,,,,,,,,,,,,,,,,,,,,,,,,,,,,,,,,,,,,,,,,,,,,,,,,,,,,1041.639176800847,1041.639176800847,0.007043799385428429,0.09818040020763874,5.0,1.6923095993697643,,,,,,,,,,,,,3874,Moral,2024-07-15_19h12.18.384,MoralCondition_v2,2022.2.5,29.911515783642187,
17,0,17,0,2,0,2,0,,,,,,,,,,,,,,,,,,,,,,,,,,,,,,,,,,,,,,,,,,,,,,,,,,,,,1043.3722717016935,1043.3722717016935,0.006475599482655525,0.09897089935839176,3.0,5.660558300092816,,,,,,,,,,,,,3874,Moral,2024-07-15_19h12.18.384,MoralCondition_v2,2022.2.5,29.911515783642187,
17,0,17,0,3,0,3,0,,,,,,,,,,,,,,,,,,,,,,,,,,,,,,,,,,,,,,,,,,,,,,,,,,,,,1049.0723569002002,1049.0723569002002,0.006928399205207825,0.09889929927885532,3.0,3.0932442005723715,,,,,,,,,,,,,3874,Moral,2024-07-15_19h12.18.384,MoralCondition_v2,2022.2.5,29.911515783642187,
17,0,17,0,4,0,4,0,,,,,,,,,,,,,,,,,,,,,,,,,,,,,,,,,,,,,,,,,,,,,,,,,,,,,1052.2056997008622,1052.2056997008622,0.00773019902408123,0.09752810001373291,3.0,3.2242668010294437,,,,,,,,,,,,,3874,Moral,2024-07-15_19h12.18.384,MoralCondition_v2,2022.2.5,29.911515783642187,
17,0,17,0,5,0,5,0,,,,,,,,,,,,,,,,,,,,,,,,,,,,,,,,,,,,,,,,,,,,,,,,,,,,,1055.4892999008298,1055.4892999008298,0.007766999304294586,0.11442519910633564,3.0,1.9409590996801853,,,,,,,,,,,,,3874,Moral,2024-07-15_19h12.18.384,MoralCondition_v2,2022.2.5,29.911515783642187,
17,0,17,0,6,0,6,0,,,,,,,,,,,,,,,,,,,,,,,,,,,,,,,,,,,,,,,,,,,,,,,,,,,,,1057.4554521013051,1057.4554521013051,0.008104998618364334,0.09804520010948181,5.0,2.2574866991490126,,,,,,,,,,,,,3874,Moral,2024-07-15_19h12.18.384,MoralCondition_v2,2022.2.5,29.911515783642187,
17,0,17,0,,,,,,,,,,,,,,,,,,,,,,,,,,,,,,,,,,,,,,,,,,,,,,,,,,,,,,,,,,,,,,,1059.755912201479,1059.755912201479,0.001455601304769516,0.09768090024590492,2.0,2.8308636005967855,,,,,,,3874,Moral,2024-07-15_19h12.18.384,MoralCondition_v2,2022.2.5,29.911515783642187,
18,0,18,0,0,0,0,0,,,,,,,,,,,,,,,,,,,,,,1062.622618900612,0.00013980083167552948,0.0991406999528408,1068.62239699997,5.9990718010813,1068.788757700473,1068.788757700473,0.06440510042011738,0.16573220118880272,5.999070400372148,1074.8888634014875,1074.8888634014875,1074.8888634014875,0.06118900142610073,0.16588100045919418,1080.5891343001276,1080.8223286010325,5.999006001278758,6.099054802209139,1086.822223700583,12.032421002164483,1086.955533001572,1086.955533001572,0.03253140114247799,0.13231730088591576,up,1.6621755994856358,1088.6721921004355,5.1099807024002075e-05,0.09793630056083202,,1094.7055437006056,1094.7055437006056,0.024962199851870537,0.13118010014295578,5.0,1.8072835989296436,,,,,,,1074.7890357002616,1074.7890357002616,1086.8888642005622,1086.8888642005622,6.099096599966288,6.099210601300001,3874,Moral,2024-07-15_19h12.18.384,MoralCondition_v2,2022.2.5,29.911515783642187,
18,0,18,0,1,0,1,0,,,,,,,,,,,,,,,,,,,,,,,,,,,,,,,,,,,,,,,,,,,,,,,,,,,,,1096.5386911015958,1096.5386911015958,0.007443500682711601,0.09787920117378235,5.0,1.9582068007439375,,,,,,,,,,,,,3874,Moral,2024-07-15_19h12.18.384,MoralCondition_v2,2022.2.5,29.911515783642187,
18,0,18,0,2,0,2,0,,,,,,,,,,,,,,,,,,,,,,,,,,,,,,,,,,,,,,,,,,,,,,,,,,,,,1098.5555952005088,1098.5555952005088,0.010360699146986008,0.11505639925599098,3.0,2.1055165007710457,,,,,,,,,,,,,3874,Moral,2024-07-15_19h12.18.384,MoralCondition_v2,2022.2.5,29.911515783642187,
18,0,18,0,3,0,3,0,,,,,,,,,,,,,,,,,,,,,,,,,,,,,,,,,,,,,,,,,,,,,,,,,,,,,1100.688982501626,1100.688982501626,0.00672530010342598,0.09936740063130856,6.0,2.0268990993499756,,,,,,,,,,,,,3874,Moral,2024-07-15_19h12.18.384,MoralCondition_v2,2022.2.5,29.911515783642187,
18,0,18,0,4,0,4,0,,,,,,,,,,,,,,,,,,,,,,,,,,,,,,,,,,,,,,,,,,,,,,,,,,,,,1102.7555516008288,1102.7555516008288,0.007538501173257828,0.0975940003991127,3.0,1.9573244992643595,,,,,,,,,,,,,3874,Moral,2024-07-15_19h12.18.384,MoralCondition_v2,2022.2.5,29.911515783642187,
18,0,18,0,5,0,5,0,,,,,,,,,,,,,,,,,,,,,,,,,,,,,,,,,,,,,,,,,,,,,,,,,,,,,1104.7723347004503,1104.7723347004503,0.00780550017952919,0.11443039961159229,3.0,0.8407710008323193,,,,,,,,,,,,,3874,Moral,2024-07-15_19h12.18.384,MoralCondition_v2,2022.2.5,29.911515783642187,
18,0,18,0,6,0,6,0,,,,,,,,,,,,,,,,,,,,,,,,,,,,,,,,,,,,,,,,,,,,,,,,,,,,,1105.6557005010545,1105.6557005010545,0.007807999849319458,0.11460999958217144,3.0,2.5415038000792265,,,,,,,,,,,,,3874,Moral,2024-07-15_19h12.18.384,MoralCondition_v2,2022.2.5,29.911515783642187,
18,0,18,0,,,,,,,,,,,,,,,,,,,,,,,,,,,,,,,,,,,,,,,,,,,,,,,,,,,,,,,,,,,,,,,1108.222152100876,1108.222152100876,0.0013105999678373337,0.09742739982903004,7.0,2.0974151995033026,,,,,,,3874,Moral,2024-07-15_19h12.18.384,MoralCondition_v2,2022.2.5,29.911515783642187,
19,0,19,0,0,0,0,0,,,,,,,,,,,,,,,,,,,,,,1110.355542300269,0.00022830069065093994,0.0982293002307415,1116.3720714002848,6.01498700119555,1116.5391675010324,1116.5391675010324,0.06883510202169418,0.18159830197691917,6.014818701893091,1122.6221385002136,1122.6221385002136,1122.6221385002136,0.06526230089366436,0.1650474015623331,1128.322019500658,1128.5556116010994,6.031778302043676,6.1314568016678095,1134.5555875003338,12.031738901510835,1134.6886563003063,1134.6886563003063,0.03156750276684761,0.131376501172781,up,1.5203731004148722,1136.255201401189,5.6799501180648804e-05,0.09783659875392914,1142.2725720014423,1142.2725720014423,1142.2725720014423,0.009572599083185196,0.11457359977066517,3.0,8.005925700068474,,,,,,,1122.5218721013516,1122.5218721013516,1134.6220044009387,1134.6220044009387,,,3874,Moral,2024-07-15_19h12.18.384,MoralCondition_v2,2022.2.5,29.911515783642187,
19,0,19,0,1,0,1,0,,,,,,,,,,,,,,,,,,,,,,,,,,,,,,,,,,,,,,,,,,,,,,,,,,,,,1150.3221589010209,1150.3221589010209,0.008447200059890747,0.11397100053727627,3.0,1.7732382994145155,,,,,,,,,,,,,3874,Moral,2024-07-15_19h12.18.384,MoralCondition_v2,2022.2.5,29.911515783642187,
19,0,19,0,2,0,2,0,,,,,,,,,,,,,,,,,,,,,,,,,,,,,,,,,,,,,,,,,,,,,,,,,,,,,1152.1219932008535,1152.1219932008535,0.0067560989409685135,0.09904179908335209,5.0,1.9267472010105848,,,,,,,,,,,,,3874,Moral,2024-07-15_19h12.18.384,MoralCondition_v2,2022.2.5,29.911515783642187,
19,0,19,0,3,0,3,0,,,,,,,,,,,,,,,,,,,,,,,,,,,,,,,,,,,,,,,,,,,,,,,,,,,,,1154.0886312015355,1154.0886312015355,0.007615698501467705,0.09810659848153591,3.0,2.6249845009297132,,,,,,,,,,,,,3874,Moral,2024-07-15_19h12.18.384,MoralCondition_v2,2022.2.5,29.911515783642187,
19,0,19,0,4,0,4,0,,,,,,,,,,,,,,,,,,,,,,,,,,,,,,,,,,,,,,,,,,,,,,,,,,,,,1156.7554733008146,1156.7554733008146,0.00747930072247982,0.09760849922895432,5.0,1.3576618004590273,,,,,,,,,,,,,3874,Moral,2024-07-15_19h12.18.384,MoralCondition_v2,2022.2.5,29.911515783642187,
19,0,19,0,5,0,5,0,,,,,,,,,,,,,,,,,,,,,,,,,,,,,,,,,,,,,,,,,,,,,,,,,,,,,1158.1551198009402,1158.1551198009402,0.007446499541401863,0.09823990054428577,3.0,2.1918758992105722,,,,,,,,,,,,,3874,Moral,2024-07-15_19h12.18.384,MoralCondition_v2,2022.2.5,29.911515783642187,
19,0,19,0,6,0,6,0,,,,,,,,,,,,,,,,,,,,,,,,,,,,,,,,,,,,,,,,,,,,,,,,,,,,,1160.4054417014122,1160.4054417014122,0.008652400225400925,0.11400149948894978,3.0,1.1065357998013496,,,,,,,,,,,,,3874,Moral,2024-07-15_19h12.18.384,MoralCondition_v2,2022.2.5,29.911515783642187,
19,0,19,0,,,,,,,,,,,,,,,,,,,,,,,,,,,,,,,,,,,,,,,,,,,,,,,,,,,,,,,,,,,,,,,1161.5388775002211,1161.5388775002211,0.0006724987179040909,0.09909369982779026,2.0,2.099634099751711,,,,,,,3874,Moral,2024-07-15_19h12.18.384,MoralCondition_v2,2022.2.5,29.911515783642187,
