loop.thisRepN,loop.thisTrialN,loop.thisN,loop.thisIndex,evaluate_all_emotions.thisRepN,evaluate_all_emotions.thisTrialN,evaluate_all_emotions.thisN,evaluate_all_emotions.thisIndex,sync_beep_1.started,p_port.started,p_port.stopped,sync_beep_1.stopped,sync_beep_2.started,sync_beep_3.started,sync_beep_3.stopped,sync_beep_4.started,baseline.started,p_port_2.started,p_port_2.stopped,baseline.stopped,p_port_3.started,Game_Start_Text.started,p_port_4.started,p_port_4.stopped,key_resp.started,key_resp.keys,key_resp.rt,fixation_cross.started,p_port_5.started,p_port_5.stopped,fixation_cross.stopped,p_port_6.started,player_image_intro.started,player_name_intro.started,p_port_7.started,p_port_7.stopped,p_port_8.started,player_image_offer.started,player_name_offer.started,proposed_split.started,p_port_9.started,p_port_9.stopped,proposed_split.stopped,accept_reject.started,p_port_15.started,p_port_15.stopped,accept_reject.stopped,p_port_10.started,arrow_instructions.started,offer_choice.started,p_port_11.started,p_port_11.stopped,offer_choice.keys,offer_choice.rt,Instructions_Affinity_Score.started,p_port_12.started,p_port_12.stopped,Instructions_Affinity_Score.stopped,Emotion_Image.started,AffinityScore.started,p_port_13.started,p_port_13.stopped,AffinityScore.response,AffinityScore.rt,Instruction.started,Moral_Disgust_Score.started,p_port_14.started,p_port_14.stopped,Moral_Disgust_Score.response,Moral_Disgust_Score.rt,p_port_6.stopped,player_image_offer.stopped,player_name_offer.stopped,p_port_10.stopped,player_image_intro.stopped,player_name_intro.stopped,p_port_8.stopped,participant,session,date,expName,psychopyVersion,frameRate,
,,,,,,,,25.748082299920497,0.0008720000041648746,0.11346490000141785,26.07846819999395,26.345153519994348,26.94506672000862,27.245070600009058,27.545102419966135,27.895393799990416,0.014314699976239353,0.13038370001595467,42.89518729998963,15.030221300025005,42.99515649996465,0.03027840005233884,0.1301960000419058,43.44520909996936,space,1.2341704000136815,,,,,,,,,,,,,,,,,,,,,,,,,,,,,,,,,,,,,,,,,,,,,,,,,,,4186,Moral,2024-07-22_14h23.27.774,MoralCondition_v2,2022.2.5,29.98151939033965,
0,0,0,0,0,0,0,0,,,,,,,,,,,,,,,,,,,,44.74513669998851,0.006916299986187369,0.0987023999914527,50.76178619998973,6.015600099985022,51.145163999986835,51.145163999986835,0.23940960003528744,0.39867340005002916,6.031999800004996,57.078624599962495,57.078624599962495,57.078624599962495,0.09393030003411695,0.2321285000653006,62.77850449999096,62.94516459997976,6.032050500041805,6.132030300039332,68.94507949997205,12.031915400060825,69.0785272999783,69.0785272999783,0.03214640007354319,0.13199160009389743,up,1.9448061999864876,71.078614500002,4.379998426884413e-05,0.09564640000462532,77.09492969996063,77.09492969996063,77.09492969996063,0.005731399985961616,0.11231220001354814,3.0,3.92445269995369,,,,,,,,,,,,,,4186,Moral,2024-07-22_14h23.27.774,MoralCondition_v2,2022.2.5,29.98151939033965,
0,0,0,0,1,0,1,0,,,,,,,,,,,,,,,,,,,,,,,,,,,,,,,,,,,,,,,,,,,,,,,,,,,81.06185249995906,81.06185249995906,0.010530099971219897,0.11586580000584945,2.0,2.6395460999920033,,,,,,,,,,,,,,4186,Moral,2024-07-22_14h23.27.774,MoralCondition_v2,2022.2.5,29.98151939033965,
0,0,0,0,2,0,2,0,,,,,,,,,,,,,,,,,,,,,,,,,,,,,,,,,,,,,,,,,,,,,,,,,,,83.7455242999713,83.7455242999713,0.011172400030773133,0.11449670000001788,5.0,4.404136200028006,,,,,,,,,,,,,,4186,Moral,2024-07-22_14h23.27.774,MoralCondition_v2,2022.2.5,29.98151939033965,
0,0,0,0,3,0,3,0,,,,,,,,,,,,,,,,,,,,,,,,,,,,,,,,,,,,,,,,,,,,,,,,,,,88.19522910000524,88.19522910000524,0.017454100016038865,0.11426830000709742,3.0,2.79797710001003,,,,,,,,,,,,,,4186,Moral,2024-07-22_14h23.27.774,MoralCondition_v2,2022.2.5,29.98151939033965,
0,0,0,0,4,0,4,0,,,,,,,,,,,,,,,,,,,,,,,,,,,,,,,,,,,,,,,,,,,,,,,,,,,91.04504180001095,91.04504180001095,0.011449199984781444,0.11439800000516698,3.0,2.336918799963314,,,,,,,,,,,,,,4186,Moral,2024-07-22_14h23.27.774,MoralCondition_v2,2022.2.5,29.98151939033965,
0,0,0,0,5,0,5,0,,,,,,,,,,,,,,,,,,,,,,,,,,,,,,,,,,,,,,,,,,,,,,,,,,,93.4288838999928,93.4288838999928,0.010343800007831305,0.11416110000573099,2.0,1.6384653000277467,,,,,,,,,,,,,,4186,Moral,2024-07-22_14h23.27.774,MoralCondition_v2,2022.2.5,29.98151939033965,
0,0,0,0,6,0,6,0,,,,,,,,,,,,,,,,,,,,,,,,,,,,,,,,,,,,,,,,,,,,,,,,,,,95.09507019998273,95.09507019998273,0.011148099962156266,0.09741469996515661,6.0,3.9538323000306264,,,,,,,,,,,,,,4186,Moral,2024-07-22_14h23.27.774,MoralCondition_v2,2022.2.5,29.98151939033965,
0,0,0,0,,,,,,,,,,,,,,,,,,,,,,,,,,,,,,,,,,,,,,,,,,,,,,,,,,,,,,,,,,,,,99.09529550001025,99.09529550001025,0.0010309000499546528,0.09876250004163012,7.0,5.365299500001129,,,,,,,,4186,Moral,2024-07-22_14h23.27.774,MoralCondition_v2,2022.2.5,29.98151939033965,
1,0,1,0,0,0,0,0,,,,,,,,,,,,,,,,,,,,104.49555709998822,0.0002685999497771263,0.09771469997940585,110.49511039996287,6.014192999980878,110.77834249997977,110.77834249997977,0.1562559999874793,0.28097710001748055,6.014252800028771,116.79526459996123,116.79526459996123,116.79526459996123,0.09239000000525266,0.1977218000101857,122.49518649996025,122.69517500000075,6.030976000009105,6.131054099998437,128.6952040999895,12.03100350004388,128.82850669999607,128.82850669999607,0.031186000036541373,0.130915800051298,down,0.5620527000282891,129.42855730000883,4.2199972085654736e-05,0.09767569997347891,135.44506599998567,135.44506599998567,135.44506599998567,0.009294899995438755,0.11421640001935884,5.0,3.3394780000089668,,,,,,,6.09759269998176,128.79520509997383,128.79520509997383,,,,,4186,Moral,2024-07-22_14h23.27.774,MoralCondition_v2,2022.2.5,29.98151939033965,
1,0,1,0,1,0,1,0,,,,,,,,,,,,,,,,,,,,,,,,,,,,,,,,,,,,,,,,,,,,,,,,,,,138.81216139998287,138.81216139998287,0.0087057999917306,0.0970256999717094,5.0,2.5229783999966457,,,,,,,,,,,,,,4186,Moral,2024-07-22_14h23.27.774,MoralCondition_v2,2022.2.5,29.98151939033965,
1,0,1,0,2,0,2,0,,,,,,,,,,,,,,,,,,,,,,,,,,,,,,,,,,,,,,,,,,,,,,,,,,,141.37849109998206,141.37849109998206,0.006883800029754639,0.09814660000847653,2.0,2.059243499999866,,,,,,,,,,,,,,4186,Moral,2024-07-22_14h23.27.774,MoralCondition_v2,2022.2.5,29.98151939033965,
1,0,1,0,3,0,3,0,,,,,,,,,,,,,,,,,,,,,,,,,,,,,,,,,,,,,,,,,,,,,,,,,,,143.49538549996214,143.49538549996214,0.007561700011137873,0.11435449996497482,4.0,4.807943599997088,,,,,,,,,,,,,,4186,Moral,2024-07-22_14h23.27.774,MoralCondition_v2,2022.2.5,29.98151939033965,
1,0,1,0,4,0,4,0,,,,,,,,,,,,,,,,,,,,,,,,,,,,,,,,,,,,,,,,,,,,,,,,,,,148.32832579995738,148.32832579995738,0.006595199985895306,0.0992285999818705,5.0,3.3936226000078022,,,,,,,,,,,,,,4186,Moral,2024-07-22_14h23.27.774,MoralCondition_v2,2022.2.5,29.98151939033965,
1,0,1,0,5,0,5,0,,,,,,,,,,,,,,,,,,,,,,,,,,,,,,,,,,,,,,,,,,,,,,,,,,,151.7619005999877,151.7619005999877,0.007371900021098554,0.09793029999127612,6.0,2.3247592999832705,,,,,,,,,,,,,,4186,Moral,2024-07-22_14h23.27.774,MoralCondition_v2,2022.2.5,29.98151939033965,
1,0,1,0,6,0,6,0,,,,,,,,,,,,,,,,,,,,,,,,,,,,,,,,,,,,,,,,,,,,,,,,,,,154.12855299998773,154.12855299998773,0.007393500010948628,0.09785279998322949,5.0,2.791419799963478,,,,,,,,,,,,,,4186,Moral,2024-07-22_14h23.27.774,MoralCondition_v2,2022.2.5,29.98151939033965,
1,0,1,0,,,,,,,,,,,,,,,,,,,,,,,,,,,,,,,,,,,,,,,,,,,,,,,,,,,,,,,,,,,,,156.9618802999612,156.9618802999612,0.0013420999748632312,0.0977656000177376,2.0,3.297679600014817,,,,,,,,4186,Moral,2024-07-22_14h23.27.774,MoralCondition_v2,2022.2.5,29.98151939033965,
2,0,2,0,0,0,0,0,,,,,,,,,,,,,,,,,,,,160.29540559998713,0.0001412000274285674,0.09926879999693483,166.29512799996883,5.999046500015538,166.56177979998756,166.56177979998756,0.15598730003694072,0.26592870004242286,6.032368000014685,172.59506799996598,172.59506799996598,172.59506799996598,0.09131070005241781,0.19924040004843846,178.2952193999663,178.49519599997438,5.999193100025877,6.099041500070598,184.49515049997717,11.999096600047778,184.59520260000136,184.59520260000136,6.870005745440722e-05,0.09907020005630329,up,1.6759260999970138,186.31188749999274,5.1099981646984816e-05,0.097883099981118,192.3284949999652,192.3284949999652,192.3284949999652,0.014989599992986768,0.11441700003342703,3.0,3.3337925999658182,,,,,,,6.098960699979216,184.59520260000136,184.59520260000136,12.099067600036506,,,,4186,Moral,2024-07-22_14h23.27.774,MoralCondition_v2,2022.2.5,29.98151939033965,
2,0,2,0,1,0,1,0,,,,,,,,,,,,,,,,,,,,,,,,,,,,,,,,,,,,,,,,,,,,,,,,,,,195.69531909999205,195.69531909999205,0.0074476999579928815,0.09766139998100698,2.0,2.0246153000043705,,,,,,,,,,,,,,4186,Moral,2024-07-22_14h23.27.774,MoralCondition_v2,2022.2.5,29.98151939033965,
2,0,2,0,2,0,2,0,,,,,,,,,,,,,,,,,,,,,,,,,,,,,,,,,,,,,,,,,,,,,,,,,,,197.7619774999912,197.7619774999912,0.007824800035450608,0.09720340004423633,5.0,2.023890400014352,,,,,,,,,,,,,,4186,Moral,2024-07-22_14h23.27.774,MoralCondition_v2,2022.2.5,29.98151939033965,
2,0,2,0,3,0,3,0,,,,,,,,,,,,,,,,,,,,,,,,,,,,,,,,,,,,,,,,,,,,,,,,,,,199.82865549996495,199.82865549996495,0.007214499986730516,0.09767609997652471,5.0,2.5917219999828376,,,,,,,,,,,,,,4186,Moral,2024-07-22_14h23.27.774,MoralCondition_v2,2022.2.5,29.98151939033965,
2,0,2,0,4,0,4,0,,,,,,,,,,,,,,,,,,,,,,,,,,,,,,,,,,,,,,,,,,,,,,,,,,,202.46190840000054,202.46190840000054,0.007298199983779341,0.09792079997714609,5.0,1.625100500008557,,,,,,,,,,,,,,4186,Moral,2024-07-22_14h23.27.774,MoralCondition_v2,2022.2.5,29.98151939033965,
2,0,2,0,5,0,5,0,,,,,,,,,,,,,,,,,,,,,,,,,,,,,,,,,,,,,,,,,,,,,,,,,,,204.1286032999633,204.1286032999633,0.006698500015772879,0.09911360003752634,5.0,1.3270946000120603,,,,,,,,,,,,,,4186,Moral,2024-07-22_14h23.27.774,MoralCondition_v2,2022.2.5,29.98151939033965,
2,0,2,0,6,0,6,0,,,,,,,,,,,,,,,,,,,,,,,,,,,,,,,,,,,,,,,,,,,,,,,,,,,205.51197599997977,205.51197599997977,0.008070799987763166,0.11388899997109547,5.0,1.040157100011129,,,,,,,,,,,,,,4186,Moral,2024-07-22_14h23.27.774,MoralCondition_v2,2022.2.5,29.98151939033965,
2,0,2,0,,,,,,,,,,,,,,,,,,,,,,,,,,,,,,,,,,,,,,,,,,,,,,,,,,,,,,,,,,,,,206.5785277999821,206.5785277999821,0.0012940000160597265,0.09756719996221364,3.0,3.0310724999872036,,,,,,,,4186,Moral,2024-07-22_14h23.27.774,MoralCondition_v2,2022.2.5,29.98151939033965,
3,0,3,0,0,0,0,0,,,,,,,,,,,,,,,,,,,,209.6455831999774,0.00034219998633489013,0.09792359999846667,215.66185989999212,6.014528199972119,215.8284656999749,215.8284656999749,0.07561270002042875,0.18151120003312826,6.0142436000169255,221.92829509999137,221.92829509999137,221.92829509999137,0.07816710002953187,0.18101440003374591,227.62856069998816,227.8285474999575,6.014579600014258,6.114560000016354,233.82850189995952,12.014442400017288,233.94502669997746,233.94502669997746,0.014351900084875524,0.09766430006129667,up,0.7817586000310257,234.7785467999638,3.709999145939946e-05,0.0976719000027515,,240.81187189999036,240.81187189999036,0.027271099970676005,0.13111299998126924,4.0,4.404839600028936,,,,,,,,233.9119807999814,233.9119807999814,,221.8117282000021,221.8117282000021,,4186,Moral,2024-07-22_14h23.27.774,MoralCondition_v2,2022.2.5,29.98151939033965,
3,0,3,0,1,0,1,0,,,,,,,,,,,,,,,,,,,,,,,,,,,,,,,,,,,,,,,,,,,,,,,,,,,245.24542579997797,245.24542579997797,0.0072536999941803515,0.09746010001981631,5.0,2.8580371999996714,,,,,,,,,,,,,,4186,Moral,2024-07-22_14h23.27.774,MoralCondition_v2,2022.2.5,29.98151939033965,
3,0,3,0,2,0,2,0,,,,,,,,,,,,,,,,,,,,,,,,,,,,,,,,,,,,,,,,,,,,,,,,,,,248.14552339998772,248.14552339998772,0.007280399964656681,0.09897719998843968,3.0,2.4593677999801002,,,,,,,,,,,,,,4186,Moral,2024-07-22_14h23.27.774,MoralCondition_v2,2022.2.5,29.98151939033965,
3,0,3,0,3,0,3,0,,,,,,,,,,,,,,,,,,,,,,,,,,,,,,,,,,,,,,,,,,,,,,,,,,,250.64530659996672,250.64530659996672,0.007086400000844151,0.0981063999934122,4.0,3.9582659999723546,,,,,,,,,,,,,,4186,Moral,2024-07-22_14h23.27.774,MoralCondition_v2,2022.2.5,29.98151939033965,
3,0,3,0,4,0,4,0,,,,,,,,,,,,,,,,,,,,,,,,,,,,,,,,,,,,,,,,,,,,,,,,,,,254.66211759997532,254.66211759997532,0.008786400023382157,0.11404600000241771,2.0,3.006350299983751,,,,,,,,,,,,,,4186,Moral,2024-07-22_14h23.27.774,MoralCondition_v2,2022.2.5,29.98151939033965,
3,0,3,0,5,0,5,0,,,,,,,,,,,,,,,,,,,,,,,,,,,,,,,,,,,,,,,,,,,,,,,,,,,257.69528879999416,257.69528879999416,0.007417900022119284,0.09782550000818446,2.0,1.158026399964001,,,,,,,,,,,,,,4186,Moral,2024-07-22_14h23.27.774,MoralCondition_v2,2022.2.5,29.98151939033965,
3,0,3,0,6,0,6,0,,,,,,,,,,,,,,,,,,,,,,,,,,,,,,,,,,,,,,,,,,,,,,,,,,,258.8953664000146,258.8953664000146,0.005577999982051551,0.09929440001724288,3.0,2.594961200025864,,,,,,,,,,,,,,4186,Moral,2024-07-22_14h23.27.774,MoralCondition_v2,2022.2.5,29.98151939033965,
3,0,3,0,,,,,,,,,,,,,,,,,,,,,,,,,,,,,,,,,,,,,,,,,,,,,,,,,,,,,,,,,,,,,261.5286993999616,261.5286993999616,0.0009781999979168177,0.09853020001901314,7.0,5.365789100003894,,,,,,,,4186,Moral,2024-07-22_14h23.27.774,MoralCondition_v2,2022.2.5,29.98151939033965,
4,0,4,0,0,0,0,0,,,,,,,,,,,,,,,,,,,,266.9289618000039,0.0002562999725341797,0.09800769999856129,272.92858179996256,6.031331999984104,273.17844649998005,273.17844649998005,0.14025529997888952,0.24783150001894683,6.01458110002568,279.2120822999859,279.2120822999859,279.2120822999859,0.07324920000974089,0.18146530003286898,284.9119967999868,285.1119203999988,6.014673900033813,6.114604800008237,291.11211449996335,12.014877100009471,291.2451704000123,291.2451704000123,0.014788400032557547,0.11456630006432533,down,1.001855999988038,292.2952024000115,2.8799986466765404e-05,0.09877159999450669,298.3120161999832,298.3120161999832,298.3120161999832,0.011885599989909679,0.11560210003517568,1.0,5.504499899980146,,,,,,,,291.2118802999612,291.2118802999612,,,,,4186,Moral,2024-07-22_14h23.27.774,MoralCondition_v2,2022.2.5,29.98151939033965,
4,0,4,0,1,0,1,0,,,,,,,,,,,,,,,,,,,,,,,,,,,,,,,,,,,,,,,,,,,,,,,,,,,303.8619677000097,303.8619677000097,0.00962020002771169,0.11465659999521449,2.0,2.3390357000171207,,,,,,,,,,,,,,4186,Moral,2024-07-22_14h23.27.774,MoralCondition_v2,2022.2.5,29.98151939033965,
4,0,4,0,2,0,2,0,,,,,,,,,,,,,,,,,,,,,,,,,,,,,,,,,,,,,,,,,,,,,,,,,,,306.2285814000061,306.2285814000061,0.007510299968998879,0.09740149998106062,5.0,1.7909713999833912,,,,,,,,,,,,,,4186,Moral,2024-07-22_14h23.27.774,MoralCondition_v2,2022.2.5,29.98151939033965,
4,0,4,0,3,0,3,0,,,,,,,,,,,,,,,,,,,,,,,,,,,,,,,,,,,,,,,,,,,,,,,,,,,308.0616977000027,308.0616977000027,0.0072589999763295054,0.09771160001400858,5.0,3.258428300032392,,,,,,,,,,,,,,4186,Moral,2024-07-22_14h23.27.774,MoralCondition_v2,2022.2.5,29.98151939033965,
4,0,4,0,4,0,4,0,,,,,,,,,,,,,,,,,,,,,,,,,,,,,,,,,,,,,,,,,,,,,,,,,,,311.36191839998355,311.36191839998355,0.007021899975370616,0.09767269995063543,5.0,1.2585146999917924,,,,,,,,,,,,,,4186,Moral,2024-07-22_14h23.27.774,MoralCondition_v2,2022.2.5,29.98151939033965,
4,0,4,0,5,0,5,0,,,,,,,,,,,,,,,,,,,,,,,,,,,,,,,,,,,,,,,,,,,,,,,,,,,312.66186809999635,312.66186809999635,0.0074047999805770814,0.09791050001513213,6.0,2.4249931999947876,,,,,,,,,,,,,,4186,Moral,2024-07-22_14h23.27.774,MoralCondition_v2,2022.2.5,29.98151939033965,
4,0,4,0,6,0,6,0,,,,,,,,,,,,,,,,,,,,,,,,,,,,,,,,,,,,,,,,,,,,,,,,,,,315.1286168000079,315.1286168000079,0.00665250001475215,0.0991984999855049,5.0,2.427181900013238,,,,,,,,,,,,,,4186,Moral,2024-07-22_14h23.27.774,MoralCondition_v2,2022.2.5,29.98151939033965,
4,0,4,0,,,,,,,,,,,,,,,,,,,,,,,,,,,,,,,,,,,,,,,,,,,,,,,,,,,,,,,,,,,,,317.59537980001187,317.59537980001187,0.0007451000274159014,0.09898240002803504,1.0,3.3338325999793597,,,,,,,,4186,Moral,2024-07-22_14h23.27.774,MoralCondition_v2,2022.2.5,29.98151939033965,
5,0,5,0,0,0,0,0,,,,,,,,,,,,,,,,,,,,320.9620717999642,0.00026439997600391507,0.09788800001842901,326.96188509999774,6.031251600012183,327.1789824999869,327.1789824999869,0.10045990004437044,0.21470310003496706,6.0145843999926,333.2450663999771,333.2450663999771,333.2450663999771,0.07346700003836304,0.1812076000496745,338.94521249999525,339.14516239997465,6.014530600048602,6.114773100067396,345.14526309998473,12.01463310001418,345.2785830000066,345.2785830000066,0.01459250005427748,0.11453910009004176,down,0.9920976999565028,346.31192780000856,3.920000744983554e-05,0.09797549998620525,,352.3452799000079,352.3452799000079,0.025491599983070046,0.13143750000745058,2.0,3.0401474999962375,,,,,,,,345.2284217000124,345.2284217000124,,,,,4186,Moral,2024-07-22_14h23.27.774,MoralCondition_v2,2022.2.5,29.98151939033965,
5,0,5,0,1,0,1,0,,,,,,,,,,,,,,,,,,,,,,,,,,,,,,,,,,,,,,,,,,,,,,,,,,,355.4118099999614,355.4118099999614,0.00753689999692142,0.09812939999392256,5.0,2.858470599981956,,,,,,,,,,,,,,4186,Moral,2024-07-22_14h23.27.774,MoralCondition_v2,2022.2.5,29.98151939033965,
5,0,5,0,2,0,2,0,,,,,,,,,,,,,,,,,,,,,,,,,,,,,,,,,,,,,,,,,,,,,,,,,,,358.31176139996387,358.31176139996387,0.007380199967883527,0.09819180000340566,5.0,1.4252575000282377,,,,,,,,,,,,,,4186,Moral,2024-07-22_14h23.27.774,MoralCondition_v2,2022.2.5,29.98151939033965,
5,0,5,0,3,0,3,0,,,,,,,,,,,,,,,,,,,,,,,,,,,,,,,,,,,,,,,,,,,,,,,,,,,359.77858599997126,359.77858599997126,0.007053300039842725,0.09724620002089068,3.0,1.6578917999868281,,,,,,,,,,,,,,4186,Moral,2024-07-22_14h23.27.774,MoralCondition_v2,2022.2.5,29.98151939033965,
5,0,5,0,4,0,4,0,,,,,,,,,,,,,,,,,,,,,,,,,,,,,,,,,,,,,,,,,,,,,,,,,,,361.4784234999679,361.4784234999679,0.006221799994818866,0.09914930001832545,5.0,2.7607695999904536,,,,,,,,,,,,,,4186,Moral,2024-07-22_14h23.27.774,MoralCondition_v2,2022.2.5,29.98151939033965,
5,0,5,0,5,0,5,0,,,,,,,,,,,,,,,,,,,,,,,,,,,,,,,,,,,,,,,,,,,,,,,,,,,364.2953875999665,364.2953875999665,0.00865099998190999,0.11473349999869242,5.0,2.7406216000090353,,,,,,,,,,,,,,4186,Moral,2024-07-22_14h23.27.774,MoralCondition_v2,2022.2.5,29.98151939033965,
5,0,5,0,6,0,6,0,,,,,,,,,,,,,,,,,,,,,,,,,,,,,,,,,,,,,,,,,,,,,,,,,,,367.0618244999787,367.0618244999787,0.006564399984199554,0.09950670000398532,5.0,1.3937079000170343,,,,,,,,,,,,,,4186,Moral,2024-07-22_14h23.27.774,MoralCondition_v2,2022.2.5,29.98151939033965,
5,0,5,0,,,,,,,,,,,,,,,,,,,,,,,,,,,,,,,,,,,,,,,,,,,,,,,,,,,,,,,,,,,,,368.49534359999234,368.49534359999234,0.0017864999826997519,0.09709270001621917,2.0,4.863353699969593,,,,,,,,4186,Moral,2024-07-22_14h23.27.774,MoralCondition_v2,2022.2.5,29.98151939033965,
6,0,6,0,0,0,0,0,,,,,,,,,,,,,,,,,,,,373.3956113999593,0.0001501999795436859,0.09903990000020713,379.4119078000076,6.015742399962619,379.5952060999698,379.5952060999698,0.08281739999074489,0.1989430999965407,5.999160300008953,385.6618613000028,385.6618613000028,385.6618613000028,0.06151960004353896,0.16568130004452541,391.36185549997026,391.59521369996946,6.032335399999283,6.132308900007047,397.5952352999593,12.032352400012314,397.72856339998543,397.72856339998543,0.03245200007222593,0.13237680005840957,up,1.6699473999906331,399.44540679996135,4.2599975131452084e-05,0.09782770002493635,405.44564220000757,405.44564220000757,405.44564220000757,0.009172299993224442,0.09776889998465776,2.0,4.9562833000090905,,,,,,,,397.6618350999779,397.6618350999779,,385.6618613000028,385.6618613000028,6.099274299980607,4186,Moral,2024-07-22_14h23.27.774,MoralCondition_v2,2022.2.5,29.98151939033965,
6,0,6,0,1,0,1,0,,,,,,,,,,,,,,,,,,,,,,,,,,,,,,,,,,,,,,,,,,,,,,,,,,,410.4453334999853,410.4453334999853,0.0065178999793715775,0.09879519999958575,3.0,1.8936447000014596,,,,,,,,,,,,,,4186,Moral,2024-07-22_14h23.27.774,MoralCondition_v2,2022.2.5,29.98151939033965,
6,0,6,0,2,0,2,0,,,,,,,,,,,,,,,,,,,,,,,,,,,,,,,,,,,,,,,,,,,,,,,,,,,412.3784211999737,412.3784211999737,0.007131299993488938,0.09782439999980852,6.0,2.9583308000001125,,,,,,,,,,,,,,4186,Moral,2024-07-22_14h23.27.774,MoralCondition_v2,2022.2.5,29.98151939033965,
6,0,6,0,3,0,3,0,,,,,,,,,,,,,,,,,,,,,,,,,,,,,,,,,,,,,,,,,,,,,,,,,,,415.37851099995896,415.37851099995896,0.007542999985162169,0.09777339996071532,2.0,2.0576618000050075,,,,,,,,,,,,,,4186,Moral,2024-07-22_14h23.27.774,MoralCondition_v2,2022.2.5,29.98151939033965,
6,0,6,0,4,0,4,0,,,,,,,,,,,,,,,,,,,,,,,,,,,,,,,,,,,,,,,,,,,,,,,,,,,417.47852349997265,417.47852349997265,0.007261599996127188,0.09794020000845194,2.0,1.0251115999999456,,,,,,,,,,,,,,4186,Moral,2024-07-22_14h23.27.774,MoralCondition_v2,2022.2.5,29.98151939033965,
6,0,6,0,5,0,5,0,,,,,,,,,,,,,,,,,,,,,,,,,,,,,,,,,,,,,,,,,,,,,,,,,,,418.54517970001325,418.54517970001325,0.007755399972666055,0.0973614999675192,4.0,2.5244902999838814,,,,,,,,,,,,,,4186,Moral,2024-07-22_14h23.27.774,MoralCondition_v2,2022.2.5,29.98151939033965,
6,0,6,0,6,0,6,0,,,,,,,,,,,,,,,,,,,,,,,,,,,,,,,,,,,,,,,,,,,,,,,,,,,421.1286330000148,421.1286330000148,0.008587999967858195,0.11440459999721497,5.0,3.3069259999901988,,,,,,,,,,,,,,4186,Moral,2024-07-22_14h23.27.774,MoralCondition_v2,2022.2.5,29.98151939033965,
6,0,6,0,,,,,,,,,,,,,,,,,,,,,,,,,,,,,,,,,,,,,,,,,,,,,,,,,,,,,,,,,,,,,424.4620820999844,424.4620820999844,0.0011055999784730375,0.09815169998910278,4.0,12.69807410001522,,,,,,,,4186,Moral,2024-07-22_14h23.27.774,MoralCondition_v2,2022.2.5,29.98151939033965,
7,0,7,0,0,0,0,0,,,,,,,,,,,,,,,,,,,,437.19518639997113,0.00038809998659417033,0.0974489999935031,443.17836729995906,6.014006100012921,443.3618461000151,443.3618461000151,0.06129560002591461,0.1643663000431843,6.03073520003818,449.4951744999853,449.4951744999853,449.4951744999853,0.09230840008240193,0.19751290004933253,455.19540269998834,455.395171399985,6.030812800046988,6.130782800028101,461.3951448999578,12.030781100038439,461.5285724999849,461.5285724999849,0.03095550008583814,0.13076130009721965,up,0.6779968999908306,462.26186759996926,4.6600005589425564e-05,0.09796350001124665,,468.2951135999756,468.2951135999756,0.02511630003573373,0.13133450003806502,4.0,2.7736880000447854,,,,,,,6.097341799992137,461.49514119996456,461.49514119996456,,449.36197889997857,449.36197889997857,,4186,Moral,2024-07-22_14h23.27.774,MoralCondition_v2,2022.2.5,29.98151939033965,
7,0,7,0,1,0,1,0,,,,,,,,,,,,,,,,,,,,,,,,,,,,,,,,,,,,,,,,,,,,,,,,,,,471.11208709998755,471.11208709998755,0.0074273000354878604,0.11390970001230016,6.0,3.607342000002973,,,,,,,,,,,,,,4186,Moral,2024-07-22_14h23.27.774,MoralCondition_v2,2022.2.5,29.98151939033965,
7,0,7,0,2,0,2,0,,,,,,,,,,,,,,,,,,,,,,,,,,,,,,,,,,,,,,,,,,,,,,,,,,,474.7450967999757,474.7450967999757,0.0076558999717235565,0.09777359996223822,3.0,3.1576757000293583,,,,,,,,,,,,,,4186,Moral,2024-07-22_14h23.27.774,MoralCondition_v2,2022.2.5,29.98151939033965,
7,0,7,0,3,0,3,0,,,,,,,,,,,,,,,,,,,,,,,,,,,,,,,,,,,,,,,,,,,,,,,,,,,477.94488809996983,477.94488809996983,0.007432999962475151,0.09745780000230297,5.0,1.591050199989695,,,,,,,,,,,,,,4186,Moral,2024-07-22_14h23.27.774,MoralCondition_v2,2022.2.5,29.98151939033965,
7,0,7,0,4,0,4,0,,,,,,,,,,,,,,,,,,,,,,,,,,,,,,,,,,,,,,,,,,,,,,,,,,,479.57850699999835,479.57850699999835,0.006928300019353628,0.09842930000741035,5.0,1.925665899994783,,,,,,,,,,,,,,4186,Moral,2024-07-22_14h23.27.774,MoralCondition_v2,2022.2.5,29.98151939033965,
7,0,7,0,5,0,5,0,,,,,,,,,,,,,,,,,,,,,,,,,,,,,,,,,,,,,,,,,,,,,,,,,,,481.54511840001214,481.54511840001214,0.0073788000154308975,0.09934539999812841,5.0,1.3594872999819927,,,,,,,,,,,,,,4186,Moral,2024-07-22_14h23.27.774,MoralCondition_v2,2022.2.5,29.98151939033965,
7,0,7,0,6,0,6,0,,,,,,,,,,,,,,,,,,,,,,,,,,,,,,,,,,,,,,,,,,,,,,,,,,,482.94505310000386,482.94505310000386,0.0065101999789476395,0.09895659994799644,2.0,2.4935994999832474,,,,,,,,,,,,,,4186,Moral,2024-07-22_14h23.27.774,MoralCondition_v2,2022.2.5,29.98151939033965,
7,0,7,0,,,,,,,,,,,,,,,,,,,,,,,,,,,,,,,,,,,,,,,,,,,,,,,,,,,,,,,,,,,,,485.4783055000007,485.4783055000007,0.0011303999926894903,0.09833209996577352,3.0,3.6984817000338808,,,,,,,,4186,Moral,2024-07-22_14h23.27.774,MoralCondition_v2,2022.2.5,29.98151939033965,
8,0,8,0,0,0,0,0,,,,,,,,,,,,,,,,,,,,489.2120965999784,0.00032300001475960016,0.09807370003545657,495.2118008999969,6.031264799996279,495.4120581999887,495.4120581999887,0.09256620006635785,0.1980192000628449,6.031522500037681,501.51177189999726,501.51177189999726,501.51177189999726,0.08772690006298944,0.19788010005140677,507.21178499999223,507.4117748999852,6.031241900054738,6.1314305000705644,513.4117588999798,12.031245600082912,513.5453493999667,513.5453493999667,0.0314325001090765,0.13121580006554723,up,1.0940657000173815,514.6951074000099,3.9700011257082224e-05,0.09802259999560192,520.7118972999742,520.7118972999742,520.7118972999742,0.008487600018270314,0.11473339999793097,3.0,3.040539000008721,,,,,,,,513.5117711999919,513.5117711999919,,501.411944499996,501.411944499996,,4186,Moral,2024-07-22_14h23.27.774,MoralCondition_v2,2022.2.5,29.98151939033965,
8,0,8,0,1,0,1,0,,,,,,,,,,,,,,,,,,,,,,,,,,,,,,,,,,,,,,,,,,,,,,,,,,,523.7784538000124,523.7784538000124,0.00648489996092394,0.09899129997938871,5.0,2.460321499966085,,,,,,,,,,,,,,4186,Moral,2024-07-22_14h23.27.774,MoralCondition_v2,2022.2.5,29.98151939033965,
8,0,8,0,2,0,2,0,,,,,,,,,,,,,,,,,,,,,,,,,,,,,,,,,,,,,,,,,,,,,,,,,,,526.2784777999623,526.2784777999623,0.007504600042011589,0.09796350001124665,3.0,2.258415700052865,,,,,,,,,,,,,,4186,Moral,2024-07-22_14h23.27.774,MoralCondition_v2,2022.2.5,29.98151939033965,
8,0,8,0,3,0,3,0,,,,,,,,,,,,,,,,,,,,,,,,,,,,,,,,,,,,,,,,,,,,,,,,,,,528.5783600999857,528.5783600999857,0.006243699986953288,0.09915639995597303,5.0,2.1608120999881066,,,,,,,,,,,,,,4186,Moral,2024-07-22_14h23.27.774,MoralCondition_v2,2022.2.5,29.98151939033965,
8,0,8,0,4,0,4,0,,,,,,,,,,,,,,,,,,,,,,,,,,,,,,,,,,,,,,,,,,,,,,,,,,,530.7785574999871,530.7785574999871,0.007401799957733601,0.09737619996303692,3.0,1.757928999955766,,,,,,,,,,,,,,4186,Moral,2024-07-22_14h23.27.774,MoralCondition_v2,2022.2.5,29.98151939033965,
8,0,8,0,5,0,5,0,,,,,,,,,,,,,,,,,,,,,,,,,,,,,,,,,,,,,,,,,,,,,,,,,,,532.5782136999769,532.5782136999769,0.00772360002156347,0.09763750003185123,2.0,2.124616299988702,,,,,,,,,,,,,,4186,Moral,2024-07-22_14h23.27.774,MoralCondition_v2,2022.2.5,29.98151939033965,
8,0,8,0,6,0,6,0,,,,,,,,,,,,,,,,,,,,,,,,,,,,,,,,,,,,,,,,,,,,,,,,,,,534.7451150999987,534.7451150999987,0.007087000005412847,0.09781980002298951,2.0,0.9250609000446275,,,,,,,,,,,,,,4186,Moral,2024-07-22_14h23.27.774,MoralCondition_v2,2022.2.5,29.98151939033965,
8,0,8,0,,,,,,,,,,,,,,,,,,,,,,,,,,,,,,,,,,,,,,,,,,,,,,,,,,,,,,,,,,,,,535.7118233999936,535.7118233999936,0.0009513999684713781,0.09846439998364076,6.0,2.9986771000549197,,,,,,,,4186,Moral,2024-07-22_14h23.27.774,MoralCondition_v2,2022.2.5,29.98151939033965,
9,0,9,0,0,0,0,0,,,,,,,,,,,,,,,,,,,,538.7453574999818,0.000341600039973855,0.09761550003895536,544.7449005999952,6.014090100012254,544.9117061999859,544.9117061999859,0.05570100003387779,0.16450040007475764,6.030772700032685,551.0451464999933,551.0451464999933,551.0451464999933,0.08671690005576238,0.19783710007322952,556.7450091000064,556.9450001000077,6.030920300050639,6.13092680007685,562.9449918000028,12.03096560004633,563.0783996999962,563.0783996999962,0.03111110010650009,0.13096240011509508,up,1.3208717000088654,564.4617060999735,6.470002699643373e-05,0.09796560002723709,570.4783550999709,570.4783550999709,570.4783550999709,0.008617500017862767,0.11475180002162233,2.0,4.440335699997377,,,,,,,6.0974939000443555,563.0450371999759,563.0450371999759,,550.9119542000117,550.9119542000117,,4186,Moral,2024-07-22_14h23.27.774,MoralCondition_v2,2022.2.5,29.98151939033965,
9,0,9,0,1,0,1,0,,,,,,,,,,,,,,,,,,,,,,,,,,,,,,,,,,,,,,,,,,,,,,,,,,,574.9449528999976,574.9449528999976,0.007132800004910678,0.09740480000618845,4.0,2.391410500044003,,,,,,,,,,,,,,4186,Moral,2024-07-22_14h23.27.774,MoralCondition_v2,2022.2.5,29.98151939033965,
9,0,9,0,2,0,2,0,,,,,,,,,,,,,,,,,,,,,,,,,,,,,,,,,,,,,,,,,,,,,,,,,,,577.3783201999613,577.3783201999613,0.007634200039319694,0.09769570000935346,2.0,1.757924399978947,,,,,,,,,,,,,,4186,Moral,2024-07-22_14h23.27.774,MoralCondition_v2,2022.2.5,29.98151939033965,
9,0,9,0,3,0,3,0,,,,,,,,,,,,,,,,,,,,,,,,,,,,,,,,,,,,,,,,,,,,,,,,,,,579.1782913999632,579.1782913999632,0.007946199970319867,0.09708419995149598,3.0,2.3236698000109755,,,,,,,,,,,,,,4186,Moral,2024-07-22_14h23.27.774,MoralCondition_v2,2022.2.5,29.98151939033965,
9,0,9,0,4,0,4,0,,,,,,,,,,,,,,,,,,,,,,,,,,,,,,,,,,,,,,,,,,,,,,,,,,,581.5450536999851,581.5450536999851,0.007755200029350817,0.09732160001294687,5.0,1.9238217999809422,,,,,,,,,,,,,,4186,Moral,2024-07-22_14h23.27.774,MoralCondition_v2,2022.2.5,29.98151939033965,
9,0,9,0,5,0,5,0,,,,,,,,,,,,,,,,,,,,,,,,,,,,,,,,,,,,,,,,,,,,,,,,,,,583.5116113999975,583.5116113999975,0.0063396000186912715,0.09958690003259107,3.0,2.4272228999761865,,,,,,,,,,,,,,4186,Moral,2024-07-22_14h23.27.774,MoralCondition_v2,2022.2.5,29.98151939033965,
9,0,9,0,6,0,6,0,,,,,,,,,,,,,,,,,,,,,,,,,,,,,,,,,,,,,,,,,,,,,,,,,,,585.9783970999997,585.9783970999997,0.007866100000683218,0.09774170001037419,6.0,1.9910007999860682,,,,,,,,,,,,,,4186,Moral,2024-07-22_14h23.27.774,MoralCondition_v2,2022.2.5,29.98151939033965,
9,0,9,0,,,,,,,,,,,,,,,,,,,,,,,,,,,,,,,,,,,,,,,,,,,,,,,,,,,,,,,,,,,,,588.0118624999886,588.0118624999886,0.0006720999954268336,0.09918429999379441,6.0,6.833268599992152,,,,,,,,4186,Moral,2024-07-22_14h23.27.774,MoralCondition_v2,2022.2.5,29.98151939033965,
10,0,10,0,0,0,0,0,,,,,,,,,,,,,,,,,,,,594.878269399982,0.00013370002852752805,0.09912490000715479,600.8782678999705,5.999087300035171,601.061637900013,601.061637900013,0.07096080004703254,0.1827121000387706,6.0157034000149,607.1617503999732,607.1617503999732,607.1617503999732,0.07294110005022958,0.18265610007802024,612.8615804999718,613.06158400001,6.015741800074466,6.115695900050923,619.061616299965,12.015788500080816,619.1949295999948,619.1949295999948,0.015932500071357936,0.1158423000597395,down,1.1962620000122115,620.4282589000068,4.020001506432891e-05,0.09779319999506697,,626.4616067999741,626.4616067999741,0.025060200016014278,0.13117230002535507,5.0,3.7073059999966063,,,,,,,6.098981800023466,619.1615746999742,619.1615746999742,,607.0616131999996,607.0616131999996,,4186,Moral,2024-07-22_14h23.27.774,MoralCondition_v2,2022.2.5,29.98151939033965,
10,0,10,0,1,0,1,0,,,,,,,,,,,,,,,,,,,,,,,,,,,,,,,,,,,,,,,,,,,,,,,,,,,630.2115639999975,630.2115639999975,0.00961870001628995,0.11413110001012683,5.0,1.472048099967651,,,,,,,,,,,,,,4186,Moral,2024-07-22_14h23.27.774,MoralCondition_v2,2022.2.5,29.98151939033965,
10,0,10,0,2,0,2,0,,,,,,,,,,,,,,,,,,,,,,,,,,,,,,,,,,,,,,,,,,,,,,,,,,,631.7114857999841,631.7114857999841,0.006504799996037036,0.09924179996596649,5.0,1.7937913999776356,,,,,,,,,,,,,,4186,Moral,2024-07-22_14h23.27.774,MoralCondition_v2,2022.2.5,29.98151939033965,
10,0,10,0,3,0,3,0,,,,,,,,,,,,,,,,,,,,,,,,,,,,,,,,,,,,,,,,,,,,,,,,,,,633.5448716999963,633.5448716999963,0.007562300015706569,0.09786630002781749,5.0,0.8916673000203446,,,,,,,,,,,,,,4186,Moral,2024-07-22_14h23.27.774,MoralCondition_v2,2022.2.5,29.98151939033965,
10,0,10,0,4,0,4,0,,,,,,,,,,,,,,,,,,,,,,,,,,,,,,,,,,,,,,,,,,,,,,,,,,,634.4782616999582,634.4782616999582,0.0067122000036761165,0.09924169996520504,3.0,1.7269662999897264,,,,,,,,,,,,,,4186,Moral,2024-07-22_14h23.27.774,MoralCondition_v2,2022.2.5,29.98151939033965,
10,0,10,0,5,0,5,0,,,,,,,,,,,,,,,,,,,,,,,,,,,,,,,,,,,,,,,,,,,,,,,,,,,636.2617200000095,636.2617200000095,0.007857899996452034,0.1139864000142552,5.0,1.9073667000047863,,,,,,,,,,,,,,4186,Moral,2024-07-22_14h23.27.774,MoralCondition_v2,2022.2.5,29.98151939033965,
10,0,10,0,6,0,6,0,,,,,,,,,,,,,,,,,,,,,,,,,,,,,,,,,,,,,,,,,,,,,,,,,,,638.1949155000038,638.1949155000038,0.007755200029350817,0.0978340000147,2.0,1.7914207000285387,,,,,,,,,,,,,,4186,Moral,2024-07-22_14h23.27.774,MoralCondition_v2,2022.2.5,29.98151939033965,
10,0,10,0,,,,,,,,,,,,,,,,,,,,,,,,,,,,,,,,,,,,,,,,,,,,,,,,,,,,,,,,,,,,,640.0284290999989,640.0284290999989,0.0005108000477775931,0.09936849999940023,2.0,5.499977400002535,,,,,,,,4186,Moral,2024-07-22_14h23.27.774,MoralCondition_v2,2022.2.5,29.98151939033965,
11,0,11,0,0,0,0,0,,,,,,,,,,,,,,,,,,,,645.5617840999621,0.000388599990401417,0.09749790001660585,651.5615000000107,6.030801200016867,651.7449678999837,651.7449678999837,0.0702436999999918,0.18105050001759082,6.014079999993555,657.8447433999972,657.8447433999972,657.8447433999972,0.06999750004615635,0.1809217000263743,663.5448529999703,663.7448214999749,6.014124000037555,6.114222000062,669.7449384999927,12.014263500052039,669.8781187999994,669.8781187999994,0.01433180004823953,0.11436120007419959,up,1.353253000008408,671.2781262999633,4.2599975131452084e-05,0.09794189996318892,,677.2945551999728,677.2945551999728,0.024642999982461333,0.11448539997218177,2.0,2.4241944999666885,,,,,,,,669.8447723999852,669.8447723999852,,657.744767599972,657.744767599972,,4186,Moral,2024-07-22_14h23.27.774,MoralCondition_v2,2022.2.5,29.98151939033965,
11,0,11,0,1,0,1,0,,,,,,,,,,,,,,,,,,,,,,,,,,,,,,,,,,,,,,,,,,,,,,,,,,,679.7783292999957,679.7783292999957,0.007657299982383847,0.11444249999476597,2.0,0.9743821000447497,,,,,,,,,,,,,,4186,Moral,2024-07-22_14h23.27.774,MoralCondition_v2,2022.2.5,29.98151939033965,
11,0,11,0,2,0,2,0,,,,,,,,,,,,,,,,,,,,,,,,,,,,,,,,,,,,,,,,,,,,,,,,,,,680.7781727999682,680.7781727999682,0.007409299956634641,0.0979079999960959,3.0,1.9582147999899462,,,,,,,,,,,,,,4186,Moral,2024-07-22_14h23.27.774,MoralCondition_v2,2022.2.5,29.98151939033965,
11,0,11,0,3,0,3,0,,,,,,,,,,,,,,,,,,,,,,,,,,,,,,,,,,,,,,,,,,,,,,,,,,,682.77800749999,682.77800749999,0.008162799989804626,0.09787789999973029,3.0,2.190714900032617,,,,,,,,,,,,,,4186,Moral,2024-07-22_14h23.27.774,MoralCondition_v2,2022.2.5,29.98151939033965,
11,0,11,0,4,0,4,0,,,,,,,,,,,,,,,,,,,,,,,,,,,,,,,,,,,,,,,,,,,,,,,,,,,685.0116035999963,685.0116035999963,0.0071980999782681465,0.09810370003106073,4.0,2.0917798999580555,,,,,,,,,,,,,,4186,Moral,2024-07-22_14h23.27.774,MoralCondition_v2,2022.2.5,29.98151939033965,
11,0,11,0,5,0,5,0,,,,,,,,,,,,,,,,,,,,,,,,,,,,,,,,,,,,,,,,,,,,,,,,,,,687.1616787000094,687.1616787000094,0.0077473000274039805,0.11399530002381653,3.0,1.9739583000191487,,,,,,,,,,,,,,4186,Moral,2024-07-22_14h23.27.774,MoralCondition_v2,2022.2.5,29.98151939033965,
11,0,11,0,6,0,6,0,,,,,,,,,,,,,,,,,,,,,,,,,,,,,,,,,,,,,,,,,,,,,,,,,,,689.1614187000087,689.1614187000087,0.0075644999742507935,0.09783849999075755,5.0,1.5244287000386976,,,,,,,,,,,,,,4186,Moral,2024-07-22_14h23.27.774,MoralCondition_v2,2022.2.5,29.98151939033965,
11,0,11,0,,,,,,,,,,,,,,,,,,,,,,,,,,,,,,,,,,,,,,,,,,,,,,,,,,,,,,,,,,,,,690.7281611000071,690.7281611000071,0.0013728999765589833,0.09737609996227548,6.0,3.6641680999891832,,,,,,,,4186,Moral,2024-07-22_14h23.27.774,MoralCondition_v2,2022.2.5,29.98151939033965,
12,0,12,0,0,0,0,0,,,,,,,,,,,,,,,,,,,,694.4284176999936,0.0002896999940276146,0.09831759997177869,700.4446805999614,6.014590499980841,700.6112173000001,700.6112173000001,0.07089910004287958,0.18123500002548099,6.01458920002915,706.7113963000011,706.7113963000011,706.7113963000011,0.0688549000187777,0.18115950003266335,712.4114361999673,712.6113576999633,6.014636700041592,6.1145952000515535,718.6112981999759,12.014560000039637,718.74463500001,718.74463500001,0.01471840008161962,0.11443780007539317,up,0.558528599969577,719.344649799983,4.2899977415800095e-05,0.09806709998520091,,725.3613440999761,725.3613440999761,0.024267899978440255,0.1149104000069201,3.0,2.4916623999597505,,,,,,,,718.7113035999937,718.7113035999937,,706.6113527999842,706.6113527999842,,4186,Moral,2024-07-22_14h23.27.774,MoralCondition_v2,2022.2.5,29.98151939033965,
12,0,12,0,1,0,1,0,,,,,,,,,,,,,,,,,,,,,,,,,,,,,,,,,,,,,,,,,,,,,,,,,,,727.8944238999975,727.8944238999975,0.0064925000187940896,0.09927200002130121,4.0,4.160283799981698,,,,,,,,,,,,,,4186,Moral,2024-07-22_14h23.27.774,MoralCondition_v2,2022.2.5,29.98151939033965,
12,0,12,0,2,0,2,0,,,,,,,,,,,,,,,,,,,,,,,,,,,,,,,,,,,,,,,,,,,,,,,,,,,732.094523000007,732.094523000007,0.00767620000988245,0.0979199000285007,2.0,1.6581033000256866,,,,,,,,,,,,,,4186,Moral,2024-07-22_14h23.27.774,MoralCondition_v2,2022.2.5,29.98151939033965,
12,0,12,0,3,0,3,0,,,,,,,,,,,,,,,,,,,,,,,,,,,,,,,,,,,,,,,,,,,,,,,,,,,733.7947742000106,733.7947742000106,0.006694599986076355,0.09922420000657439,2.0,1.3269051000243053,,,,,,,,,,,,,,4186,Moral,2024-07-22_14h23.27.774,MoralCondition_v2,2022.2.5,29.98151939033965,
12,0,12,0,4,0,4,0,,,,,,,,,,,,,,,,,,,,,,,,,,,,,,,,,,,,,,,,,,,,,,,,,,,735.1611495999969,735.1611495999969,0.00707630004035309,0.09935860004043207,4.0,2.3601804000209086,,,,,,,,,,,,,,4186,Moral,2024-07-22_14h23.27.774,MoralCondition_v2,2022.2.5,29.98151939033965,
12,0,12,0,5,0,5,0,,,,,,,,,,,,,,,,,,,,,,,,,,,,,,,,,,,,,,,,,,,,,,,,,,,737.5614440999925,737.5614440999925,0.00696800003061071,0.0991675000404939,5.0,1.226426899957005,,,,,,,,,,,,,,4186,Moral,2024-07-22_14h23.27.774,MoralCondition_v2,2022.2.5,29.98151939033965,
12,0,12,0,6,0,6,0,,,,,,,,,,,,,,,,,,,,,,,,,,,,,,,,,,,,,,,,,,,,,,,,,,,738.8280651000096,738.8280651000096,0.007391999999526888,0.09799830004340038,3.0,1.8915845999727026,,,,,,,,,,,,,,4186,Moral,2024-07-22_14h23.27.774,MoralCondition_v2,2022.2.5,29.98151939033965,
12,0,12,0,,,,,,,,,,,,,,,,,,,,,,,,,,,,,,,,,,,,,,,,,,,,,,,,,,,,,,,,,,,,,740.761326399981,740.761326399981,0.0006915000267326832,0.09917569998651743,6.0,3.999575099966023,,,,,,,,4186,Moral,2024-07-22_14h23.27.774,MoralCondition_v2,2022.2.5,29.98151939033965,
13,0,13,0,0,0,0,0,,,,,,,,,,,,,,,,,,,,744.7948389999801,0.00032619998091831803,0.09764649998396635,750.7945233999635,6.031039199966472,750.9778232999961,750.9778232999961,0.07458160002715886,0.18138900003395975,6.014333200000692,757.0779146999703,757.0779146999703,757.0779146999703,0.07418540003709495,0.18126600002869964,762.7778651000117,762.9778360999771,6.01435810001567,6.114306600007694,768.9778185999603,12.014336000022013,769.0942897999776,769.0942897999776,0.014373400073964149,0.0977544000488706,up,0.6568408999592066,769.794456899981,4.009995609521866e-05,0.09786789998179302,775.7944580999902,775.7944580999902,775.7944580999902,0.005991999991238117,0.09804469998925924,2.0,1.7599311000085436,,,,,,,,769.0778402999858,769.0778402999858,,756.9778363999794,756.9778363999794,,4186,Moral,2024-07-22_14h23.27.774,MoralCondition_v2,2022.2.5,29.98151939033965,
13,0,13,0,1,0,1,0,,,,,,,,,,,,,,,,,,,,,,,,,,,,,,,,,,,,,,,,,,,,,,,,,,,777.6114339999622,777.6114339999622,0.008309600001666695,0.11389139998937026,2.0,0.9067934000049718,,,,,,,,,,,,,,4186,Moral,2024-07-22_14h23.27.774,MoralCondition_v2,2022.2.5,29.98151939033965,
13,0,13,0,2,0,2,0,,,,,,,,,,,,,,,,,,,,,,,,,,,,,,,,,,,,,,,,,,,,,,,,,,,778.5445966999978,778.5445966999978,0.006659400009084493,0.0993097000173293,5.0,2.0607215000200085,,,,,,,,,,,,,,4186,Moral,2024-07-22_14h23.27.774,MoralCondition_v2,2022.2.5,29.98151939033965,
13,0,13,0,3,0,3,0,,,,,,,,,,,,,,,,,,,,,,,,,,,,,,,,,,,,,,,,,,,,,,,,,,,780.64436809998,780.64436809998,0.0066562999854795635,0.0991424999665469,4.0,2.026851499977056,,,,,,,,,,,,,,4186,Moral,2024-07-22_14h23.27.774,MoralCondition_v2,2022.2.5,29.98151939033965,
13,0,13,0,4,0,4,0,,,,,,,,,,,,,,,,,,,,,,,,,,,,,,,,,,,,,,,,,,,,,,,,,,,782.7109796999721,782.7109796999721,0.006585400027688593,0.0990876000141725,3.0,1.5605280000017956,,,,,,,,,,,,,,4186,Moral,2024-07-22_14h23.27.774,MoralCondition_v2,2022.2.5,29.98151939033965,
13,0,13,0,5,0,5,0,,,,,,,,,,,,,,,,,,,,,,,,,,,,,,,,,,,,,,,,,,,,,,,,,,,784.3278516000137,784.3278516000137,0.010641800006851554,0.11408070003380999,3.0,2.637744899955578,,,,,,,,,,,,,,4186,Moral,2024-07-22_14h23.27.774,MoralCondition_v2,2022.2.5,29.98151939033965,
13,0,13,0,6,0,6,0,,,,,,,,,,,,,,,,,,,,,,,,,,,,,,,,,,,,,,,,,,,,,,,,,,,786.9943467999692,786.9943467999692,0.006755799986422062,0.09929189999820665,4.0,2.460241599997971,,,,,,,,,,,,,,4186,Moral,2024-07-22_14h23.27.774,MoralCondition_v2,2022.2.5,29.98151939033965,
13,0,13,0,,,,,,,,,,,,,,,,,,,,,,,,,,,,,,,,,,,,,,,,,,,,,,,,,,,,,,,,,,,,,789.4942177999765,789.4942177999765,0.0014156000106595457,0.0978447999805212,6.0,4.231078700046055,,,,,,,,4186,Moral,2024-07-22_14h23.27.774,MoralCondition_v2,2022.2.5,29.98151939033965,
14,0,14,0,0,0,0,0,,,,,,,,,,,,,,,,,,,,793.7610811999766,0.0002853000187315047,0.09734049998223782,799.7777328999946,6.014037200016901,799.9612157999654,799.9612157999654,0.08407270000316203,0.19756250001955777,6.030765200033784,806.0609511999646,806.0609511999646,806.0609511999646,0.09396760002709925,0.19757890002802014,811.7610157000017,811.9612291000085,6.030960200063419,6.130829600035213,817.9612831000122,12.031007400073577,818.0943684999947,818.0943684999947,0.03090480004902929,0.13065850007114932,up,1.1686233999789692,819.3110098000034,4.079996142536402e-05,0.09792869997909293,825.3108058999642,825.3108058999642,825.3108058999642,0.008885299961548299,0.0977405000012368,5.0,2.8233279999694787,,,,,,,,818.0610077999881,818.0610077999881,,805.961206100008,805.961206100008,,4186,Moral,2024-07-22_14h23.27.774,MoralCondition_v2,2022.2.5,29.98151939033965,
14,0,14,0,1,0,1,0,,,,,,,,,,,,,,,,,,,,,,,,,,,,,,,,,,,,,,,,,,,,,,,,,,,828.1777723999694,828.1777723999694,0.008306100033223629,0.09721840004203841,2.0,1.9233229999663308,,,,,,,,,,,,,,4186,Moral,2024-07-22_14h23.27.774,MoralCondition_v2,2022.2.5,29.98151939033965,
14,0,14,0,2,0,2,0,,,,,,,,,,,,,,,,,,,,,,,,,,,,,,,,,,,,,,,,,,,,,,,,,,,830.1441710999934,830.1441710999934,0.008386999950744212,0.09955339995212853,5.0,1.85873239999637,,,,,,,,,,,,,,4186,Moral,2024-07-22_14h23.27.774,MoralCondition_v2,2022.2.5,29.98151939033965,
14,0,14,0,3,0,3,0,,,,,,,,,,,,,,,,,,,,,,,,,,,,,,,,,,,,,,,,,,,,,,,,,,,832.0442171999603,832.0442171999603,0.007445399998687208,0.0978332000086084,3.0,1.6246316999895498,,,,,,,,,,,,,,4186,Moral,2024-07-22_14h23.27.774,MoralCondition_v2,2022.2.5,29.98151939033965,
14,0,14,0,4,0,4,0,,,,,,,,,,,,,,,,,,,,,,,,,,,,,,,,,,,,,,,,,,,,,,,,,,,833.7109487999696,833.7109487999696,0.006791400024667382,0.09895990003133193,3.0,1.8269202999654226,,,,,,,,,,,,,,4186,Moral,2024-07-22_14h23.27.774,MoralCondition_v2,2022.2.5,29.98151939033965,
14,0,14,0,5,0,5,0,,,,,,,,,,,,,,,,,,,,,,,,,,,,,,,,,,,,,,,,,,,,,,,,,,,835.5777167999768,835.5777167999768,0.007393100007902831,0.09784050000598654,4.0,2.99160829995526,,,,,,,,,,,,,,4186,Moral,2024-07-22_14h23.27.774,MoralCondition_v2,2022.2.5,29.98151939033965,
14,0,14,0,6,0,6,0,,,,,,,,,,,,,,,,,,,,,,,,,,,,,,,,,,,,,,,,,,,,,,,,,,,838.6109757999657,838.6109757999657,0.007693400024436414,0.09785279998322949,2.0,1.6577752000303008,,,,,,,,,,,,,,4186,Moral,2024-07-22_14h23.27.774,MoralCondition_v2,2022.2.5,29.98151939033965,
14,0,14,0,,,,,,,,,,,,,,,,,,,,,,,,,,,,,,,,,,,,,,,,,,,,,,,,,,,,,,,,,,,,,840.311031499994,840.311031499994,0.001332300016656518,0.0977275000186637,6.0,4.29757510003401,,,,,,,,4186,Moral,2024-07-22_14h23.27.774,MoralCondition_v2,2022.2.5,29.98151939033965,
15,0,15,0,0,0,0,0,,,,,,,,,,,,,,,,,,,,844.6444866000093,0.00028090004343539476,0.09780550003051758,850.660973399994,6.014508399995975,850.9109454000136,850.9109454000136,0.15078000002540648,0.26442170003429055,6.031081700057257,856.9440875999862,856.9440875999862,856.9440875999862,0.09424020006554201,0.19800140004372224,862.644159199961,862.8442014000029,6.031110300042201,6.131121500045992,868.8443706000107,12.03140560007887,868.9608190999716,868.9608190999716,0.014295400120317936,0.11430840007960796,down,0.998624200001359,869.9942578999908,3.809999907389283e-05,0.09794380003586411,,876.0274495999911,876.0274495999911,0.025296300009358674,0.13144290004856884,4.0,4.173597700020764,,,,,,,,868.9272307999781,868.9272307999781,,,,,4186,Moral,2024-07-22_14h23.27.774,MoralCondition_v2,2022.2.5,29.98151939033965,
15,0,15,0,1,0,1,0,,,,,,,,,,,,,,,,,,,,,,,,,,,,,,,,,,,,,,,,,,,,,,,,,,,880.2274531999719,880.2274531999719,0.006617799983359873,0.099044100032188,5.0,2.593728000007104,,,,,,,,,,,,,,4186,Moral,2024-07-22_14h23.27.774,MoralCondition_v2,2022.2.5,29.98151939033965,
15,0,15,0,2,0,2,0,,,,,,,,,,,,,,,,,,,,,,,,,,,,,,,,,,,,,,,,,,,,,,,,,,,882.8776729999809,882.8776729999809,0.008859399997163564,0.11403579998295754,5.0,1.7060152999474667,,,,,,,,,,,,,,4186,Moral,2024-07-22_14h23.27.774,MoralCondition_v2,2022.2.5,29.98151939033965,
15,0,15,0,3,0,3,0,,,,,,,,,,,,,,,,,,,,,,,,,,,,,,,,,,,,,,,,,,,,,,,,,,,884.6275307000033,884.6275307000033,0.008000099973287433,0.11407650000182912,5.0,1.707064200018067,,,,,,,,,,,,,,4186,Moral,2024-07-22_14h23.27.774,MoralCondition_v2,2022.2.5,29.98151939033965,
15,0,15,0,4,0,4,0,,,,,,,,,,,,,,,,,,,,,,,,,,,,,,,,,,,,,,,,,,,,,,,,,,,886.3608389999717,886.3608389999717,0.007543599989730865,0.09804869996150956,2.0,2.0581431000027806,,,,,,,,,,,,,,4186,Moral,2024-07-22_14h23.27.774,MoralCondition_v2,2022.2.5,29.98151939033965,
15,0,15,0,5,0,5,0,,,,,,,,,,,,,,,,,,,,,,,,,,,,,,,,,,,,,,,,,,,,,,,,,,,888.4608739999821,888.4608739999821,0.006618199986405671,0.09899530000984669,2.0,2.593515100015793,,,,,,,,,,,,,,4186,Moral,2024-07-22_14h23.27.774,MoralCondition_v2,2022.2.5,29.98151939033965,
15,0,15,0,6,0,6,0,,,,,,,,,,,,,,,,,,,,,,,,,,,,,,,,,,,,,,,,,,,,,,,,,,,891.1108976000105,891.1108976000105,0.00800949998665601,0.11441919999197125,6.0,2.8740091999643482,,,,,,,,,,,,,,4186,Moral,2024-07-22_14h23.27.774,MoralCondition_v2,2022.2.5,29.98151939033965,
15,0,15,0,,,,,,,,,,,,,,,,,,,,,,,,,,,,,,,,,,,,,,,,,,,,,,,,,,,,,,,,,,,,,894.0110252999584,894.0110252999584,0.0007019999902695417,0.09905130002880469,1.0,3.6662711999961175,,,,,,,,4186,Moral,2024-07-22_14h23.27.774,MoralCondition_v2,2022.2.5,29.98151939033965,
16,0,16,0,0,0,0,0,,,,,,,,,,,,,,,,,,,,897.710785400006,0.0004408999811857939,0.09739189996616915,903.7274870999972,6.013997499947436,903.8941393999849,903.8941393999849,0.0738998000160791,0.18091970001114532,6.014104600006249,909.9939485999639,909.9939485999639,909.9939485999639,0.06992440001340583,0.1806695000268519,915.6940890999977,915.8941150999744,6.01410000002943,6.1139821000397205,921.8941476999898,12.014112200005911,922.027363399975,922.027363399975,0.01419240003451705,0.11413930001435801,up,0.6597943000379018,922.7275354999583,7.800001185387373e-05,0.09755310002947226,,928.7609930000035,928.7609930000035,0.025540700007695705,0.13093889999436215,3.0,3.839666199986823,,,,,,,,921.9940717999707,921.9940717999707,,909.8941935999901,909.8941935999901,,4186,Moral,2024-07-22_14h23.27.774,MoralCondition_v2,2022.2.5,29.98151939033965,
16,0,16,0,1,0,1,0,,,,,,,,,,,,,,,,,,,,,,,,,,,,,,,,,,,,,,,,,,,,,,,,,,,932.627367899986,932.627367899986,0.007773099991027266,0.09894410002743825,3.0,1.3920714000123553,,,,,,,,,,,,,,4186,Moral,2024-07-22_14h23.27.774,MoralCondition_v2,2022.2.5,29.98151939033965,
16,0,16,0,2,0,2,0,,,,,,,,,,,,,,,,,,,,,,,,,,,,,,,,,,,,,,,,,,,,,,,,,,,934.0775412999792,934.0775412999792,0.008023500035051256,0.11491790000582114,5.0,2.674260600004345,,,,,,,,,,,,,,4186,Moral,2024-07-22_14h23.27.774,MoralCondition_v2,2022.2.5,29.98151939033965,
16,0,16,0,3,0,3,0,,,,,,,,,,,,,,,,,,,,,,,,,,,,,,,,,,,,,,,,,,,,,,,,,,,936.7773623999674,936.7773623999674,0.0073043000302277505,0.09761380002601072,3.0,1.524721399997361,,,,,,,,,,,,,,4186,Moral,2024-07-22_14h23.27.774,MoralCondition_v2,2022.2.5,29.98151939033965,
16,0,16,0,4,0,4,0,,,,,,,,,,,,,,,,,,,,,,,,,,,,,,,,,,,,,,,,,,,,,,,,,,,938.3441643000115,938.3441643000115,0.009813199983909726,0.0974593999562785,6.0,2.1890137000009418,,,,,,,,,,,,,,4186,Moral,2024-07-22_14h23.27.774,MoralCondition_v2,2022.2.5,29.98151939033965,
16,0,16,0,5,0,5,0,,,,,,,,,,,,,,,,,,,,,,,,,,,,,,,,,,,,,,,,,,,,,,,,,,,940.5774901999976,940.5774901999976,0.007333100016694516,0.09800290002021939,2.0,1.6584294000058435,,,,,,,,,,,,,,4186,Moral,2024-07-22_14h23.27.774,MoralCondition_v2,2022.2.5,29.98151939033965,
16,0,16,0,6,0,6,0,,,,,,,,,,,,,,,,,,,,,,,,,,,,,,,,,,,,,,,,,,,,,,,,,,,942.2773192999884,942.2773192999884,0.007289700035471469,0.09798309998586774,2.0,1.1249695000005886,,,,,,,,,,,,,,4186,Moral,2024-07-22_14h23.27.774,MoralCondition_v2,2022.2.5,29.98151939033965,
16,0,16,0,,,,,,,,,,,,,,,,,,,,,,,,,,,,,,,,,,,,,,,,,,,,,,,,,,,,,,,,,,,,,943.444185099972,943.444185099972,0.001496099983341992,0.0971997000160627,6.0,2.9970408999943174,,,,,,,,4186,Moral,2024-07-22_14h23.27.774,MoralCondition_v2,2022.2.5,29.98151939033965,
17,0,17,0,0,0,0,0,,,,,,,,,,,,,,,,,,,,946.477551399963,0.00025340000865980983,0.09798530000261962,952.4773104999913,6.031299100024626,952.6774585999665,952.6774585999665,0.09298630006378517,0.1980268000625074,6.031387900060508,958.7771285999916,958.7771285999916,958.7771285999916,0.09053790004691109,0.1978649000520818,964.4772213000106,964.6773633999983,6.031368100084364,6.13139980006963,970.6773629999952,12.031370600045193,970.8106793999905,970.8106793999905,0.03155380010139197,0.13138200010871515,down,0.8760142000392079,971.7439790999633,4.700000863522291e-05,0.09793759998865426,,977.7604420999996,977.7604420999996,0.024274100025650114,0.11470590002136305,5.0,2.9583405000157654,,,,,,,,970.7774149999605,970.7774149999605,,958.6772676999681,958.6772676999681,,4186,Moral,2024-07-22_14h23.27.774,MoralCondition_v2,2022.2.5,29.98151939033965,
17,0,17,0,1,0,1,0,,,,,,,,,,,,,,,,,,,,,,,,,,,,,,,,,,,,,,,,,,,,,,,,,,,980.7606704999926,980.7606704999926,0.006816199980676174,0.09935480001149699,5.0,1.5934650999843143,,,,,,,,,,,,,,4186,Moral,2024-07-22_14h23.27.774,MoralCondition_v2,2022.2.5,29.98151939033965,
17,0,17,0,2,0,2,0,,,,,,,,,,,,,,,,,,,,,,,,,,,,,,,,,,,,,,,,,,,,,,,,,,,982.3937872999813,982.3937872999813,0.007604699989315122,0.09768439998151734,2.0,2.5577412999700755,,,,,,,,,,,,,,4186,Moral,2024-07-22_14h23.27.774,MoralCondition_v2,2022.2.5,29.98151939033965,
17,0,17,0,3,0,3,0,,,,,,,,,,,,,,,,,,,,,,,,,,,,,,,,,,,,,,,,,,,,,,,,,,,984.9939305000007,984.9939305000007,0.00716360000660643,0.09850909997476265,2.0,1.2261916999705136,,,,,,,,,,,,,,4186,Moral,2024-07-22_14h23.27.774,MoralCondition_v2,2022.2.5,29.98151939033965,
17,0,17,0,4,0,4,0,,,,,,,,,,,,,,,,,,,,,,,,,,,,,,,,,,,,,,,,,,,,,,,,,,,986.2772019999684,986.2772019999684,0.009813499986194074,0.11469219997525215,5.0,2.0056442999630235,,,,,,,,,,,,,,4186,Moral,2024-07-22_14h23.27.774,MoralCondition_v2,2022.2.5,29.98151939033965,
17,0,17,0,5,0,5,0,,,,,,,,,,,,,,,,,,,,,,,,,,,,,,,,,,,,,,,,,,,,,,,,,,,988.3105468999711,988.3105468999711,0.007270700007211417,0.0979269000235945,5.0,1.3917842999799177,,,,,,,,,,,,,,4186,Moral,2024-07-22_14h23.27.774,MoralCondition_v2,2022.2.5,29.98151939033965,
17,0,17,0,6,0,6,0,,,,,,,,,,,,,,,,,,,,,,,,,,,,,,,,,,,,,,,,,,,,,,,,,,,989.7439914999995,989.7439914999995,0.006456200033426285,0.09908450004877523,5.0,1.0269024000153877,,,,,,,,,,,,,,4186,Moral,2024-07-22_14h23.27.774,MoralCondition_v2,2022.2.5,29.98151939033965,
17,0,17,0,,,,,,,,,,,,,,,,,,,,,,,,,,,,,,,,,,,,,,,,,,,,,,,,,,,,,,,,,,,,,990.810712800012,990.810712800012,0.0013629999593831599,0.09740249998867512,2.0,4.730674299993552,,,,,,,,4186,Moral,2024-07-22_14h23.27.774,MoralCondition_v2,2022.2.5,29.98151939033965,
18,0,18,0,0,0,0,0,,,,,,,,,,,,,,,,,,,,995.577535599994,0.0002835000050254166,0.098012899979949,1001.5938801000011,6.014627999975346,1001.7603993999655,1001.7603993999655,0.08144380000885576,0.1815265000332147,6.01462570001604,1007.8603447999922,1007.8603447999922,1007.8603447999922,0.07758570002624765,0.18141740001738071,1013.560464899987,1013.7606228999794,6.01482640003087,6.114594800048508,1019.7604668000131,12.014690800046083,1019.8938147000154,1019.8938147000154,0.014787600084673613,0.11457390006398782,up,0.801197599968873,1020.7606866999995,4.929996794089675e-05,0.09800739999627694,1026.760217299976,1026.760217299976,1026.760217299976,0.009070799977052957,0.09764339996036142,6.0,2.256541099981405,,,,,,,,1019.8604292999953,1019.8604292999953,,1007.7604503000039,1007.7604503000039,,4186,Moral,2024-07-22_14h23.27.774,MoralCondition_v2,2022.2.5,29.98151939033965,
18,0,18,0,1,0,1,0,,,,,,,,,,,,,,,,,,,,,,,,,,,,,,,,,,,,,,,,,,,,,,,,,,,1029.0603967999923,1029.0603967999923,0.007958600006531924,0.09867889998713508,3.0,1.5251020999858156,,,,,,,,,,,,,,4186,Moral,2024-07-22_14h23.27.774,MoralCondition_v2,2022.2.5,29.98151939033965,
18,0,18,0,2,0,2,0,,,,,,,,,,,,,,,,,,,,,,,,,,,,,,,,,,,,,,,,,,,,,,,,,,,1030.6270576000097,1030.6270576000097,0.0064536999561823905,0.09915949997957796,3.0,2.0270569000276737,,,,,,,,,,,,,,4186,Moral,2024-07-22_14h23.27.774,MoralCondition_v2,2022.2.5,29.98151939033965,
18,0,18,0,3,0,3,0,,,,,,,,,,,,,,,,,,,,,,,,,,,,,,,,,,,,,,,,,,,,,,,,,,,1032.7105665999698,1032.7105665999698,0.009785600006580353,0.11356189998332411,2.0,2.0049727000296116,,,,,,,,,,,,,,4186,Moral,2024-07-22_14h23.27.774,MoralCondition_v2,2022.2.5,29.98151939033965,
18,0,18,0,4,0,4,0,,,,,,,,,,,,,,,,,,,,,,,,,,,,,,,,,,,,,,,,,,,,,,,,,,,1034.7603849999723,1034.7603849999723,0.009531000046990812,0.11453960003564134,2.0,0.7726347999996506,,,,,,,,,,,,,,4186,Moral,2024-07-22_14h23.27.774,MoralCondition_v2,2022.2.5,29.98151939033965,
18,0,18,0,5,0,5,0,,,,,,,,,,,,,,,,,,,,,,,,,,,,,,,,,,,,,,,,,,,,,,,,,,,1035.5602647999767,1035.5602647999767,0.007945499964989722,0.09826859994791448,5.0,2.0245905999909155,,,,,,,,,,,,,,4186,Moral,2024-07-22_14h23.27.774,MoralCondition_v2,2022.2.5,29.98151939033965,
18,0,18,0,6,0,6,0,,,,,,,,,,,,,,,,,,,,,,,,,,,,,,,,,,,,,,,,,,,,,,,,,,,1037.6269420000026,1037.6269420000026,0.007549699977971613,0.09788519999710843,4.0,1.891181300044991,,,,,,,,,,,,,,4186,Moral,2024-07-22_14h23.27.774,MoralCondition_v2,2022.2.5,29.98151939033965,
18,0,18,0,,,,,,,,,,,,,,,,,,,,,,,,,,,,,,,,,,,,,,,,,,,,,,,,,,,,,,,,,,,,,1039.560321500001,1039.560321500001,0.0011824999819509685,0.0978188999579288,6.0,3.0977433000225574,,,,,,,,4186,Moral,2024-07-22_14h23.27.774,MoralCondition_v2,2022.2.5,29.98151939033965,
19,0,19,0,0,0,0,0,,,,,,,,,,,,,,,,,,,,1042.6939830000047,0.0001370999962091446,0.09928189998026937,1048.7103150999756,6.015881399973296,1048.877032199991,1048.877032199991,0.08146060002036393,0.18278460000874475,6.015911899972707,1054.9770429999917,1054.9770429999917,1054.9770429999917,0.06931029999395832,0.18232870002975687,1060.6769728999934,1060.8769652000046,6.015906300046481,6.11597740004072,1066.8769507000106,12.015899000049103,1067.0102886999957,1067.0102886999957,0.016046800068579614,0.11593440006254241,up,1.1567056000349112,1068.2271282000002,4.020001506432891e-05,0.09791200002655387,,1074.2434755999711,1074.2434755999711,0.025407399982213974,0.11459780001314357,3.0,1.6900878999731503,,,,,,,,1066.9769175999681,1066.9769175999681,,1054.876912000007,1054.876912000007,,4186,Moral,2024-07-22_14h23.27.774,MoralCondition_v2,2022.2.5,29.98151939033965,
19,0,19,0,1,0,1,0,,,,,,,,,,,,,,,,,,,,,,,,,,,,,,,,,,,,,,,,,,,,,,,,,,,1075.9770337999798,1075.9770337999798,0.006972399947699159,0.09823219996178523,2.0,1.0922492000390776,,,,,,,,,,,,,,4186,Moral,2024-07-22_14h23.27.774,MoralCondition_v2,2022.2.5,29.98151939033965,
19,0,19,0,2,0,2,0,,,,,,,,,,,,,,,,,,,,,,,,,,,,,,,,,,,,,,,,,,,,,,,,,,,1077.1103218999924,1077.1103218999924,0.007219599967356771,0.09810259996447712,5.0,1.7253863000078127,,,,,,,,,,,,,,4186,Moral,2024-07-22_14h23.27.774,MoralCondition_v2,2022.2.5,29.98151939033965,
19,0,19,0,3,0,3,0,,,,,,,,,,,,,,,,,,,,,,,,,,,,,,,,,,,,,,,,,,,,,,,,,,,1078.876770599978,1078.876770599978,0.006746600032784045,0.09905319998506457,3.0,1.4266155999503098,,,,,,,,,,,,,,4186,Moral,2024-07-22_14h23.27.774,MoralCondition_v2,2022.2.5,29.98151939033965,
19,0,19,0,4,0,4,0,,,,,,,,,,,,,,,,,,,,,,,,,,,,,,,,,,,,,,,,,,,,,,,,,,,1080.3436972000054,1080.3436972000054,0.007463799964170903,0.09818530001211911,4.0,1.9248007999849506,,,,,,,,,,,,,,4186,Moral,2024-07-22_14h23.27.774,MoralCondition_v2,2022.2.5,29.98151939033965,
19,0,19,0,5,0,5,0,,,,,,,,,,,,,,,,,,,,,,,,,,,,,,,,,,,,,,,,,,,,,,,,,,,1082.3103286999976,1082.3103286999976,0.009115599968936294,0.09732659999281168,6.0,1.655887100030668,,,,,,,,,,,,,,4186,Moral,2024-07-22_14h23.27.774,MoralCondition_v2,2022.2.5,29.98151939033965,
19,0,19,0,6,0,6,0,,,,,,,,,,,,,,,,,,,,,,,,,,,,,,,,,,,,,,,,,,,,,,,,,,,1084.0101139000035,1084.0101139000035,0.007738800020888448,0.09790539997629821,2.0,1.5578994000097737,,,,,,,,,,,,,,4186,Moral,2024-07-22_14h23.27.774,MoralCondition_v2,2022.2.5,29.98151939033965,
19,0,19,0,,,,,,,,,,,,,,,,,,,,,,,,,,,,,,,,,,,,,,,,,,,,,,,,,,,,,,,,,,,,,1085.610235799977,1085.610235799977,0.0007018999895080924,0.09926909999921918,6.0,3.3329382000374608,,,,,,,,4186,Moral,2024-07-22_14h23.27.774,MoralCondition_v2,2022.2.5,29.98151939033965,
