loop.thisRepN,loop.thisTrialN,loop.thisN,loop.thisIndex,evaluate_all_emotions.thisRepN,evaluate_all_emotions.thisTrialN,evaluate_all_emotions.thisN,evaluate_all_emotions.thisIndex,sync_beep_1.started,p_port.started,p_port.stopped,sync_beep_1.stopped,sync_beep_2.started,sync_beep_2.stopped,sync_beep_3.started,sync_beep_3.stopped,sync_beep_4.started,sync_beep_4.stopped,baseline.started,p_port_2.started,p_port_2.stopped,baseline.stopped,p_port_3.started,Game_Start_Text.started,p_port_4.started,p_port_4.stopped,key_resp.started,key_resp.keys,key_resp.rt,fixation_cross.started,p_port_5.started,p_port_5.stopped,fixation_cross.stopped,p_port_6.started,player_image_intro.started,player_name_intro.started,p_port_7.started,p_port_7.stopped,p_port_8.started,player_image_offer.started,player_name_offer.started,proposed_split.started,p_port_9.started,p_port_9.stopped,proposed_split.stopped,accept_reject.started,p_port_15.started,p_port_15.stopped,accept_reject.stopped,p_port_10.started,arrow_instructions.started,offer_choice.started,p_port_11.started,p_port_11.stopped,offer_choice.keys,offer_choice.rt,Instructions_Affinity_Score.started,p_port_12.started,p_port_12.stopped,Emotion_Image.started,AffinityScore.started,p_port_13.started,p_port_13.stopped,AffinityScore.response,AffinityScore.rt,Instruction.started,Moral_Disgust_Score.started,p_port_14.started,p_port_14.stopped,Moral_Disgust_Score.response,Moral_Disgust_Score.rt,player_image_offer.stopped,player_name_offer.stopped,player_image_intro.stopped,player_name_intro.stopped,p_port_6.stopped,Instructions_Affinity_Score.stopped,p_port_8.stopped,p_port_10.stopped,participant,session,date,expName,psychopyVersion,frameRate,
,,,,,,,,13.808498080002026,0.001411400007782504,0.1061428000102751,14.121853499993449,14.404904559990973,14.705053899990162,15.021753460002946,15.32165129997884,15.604990559988073,15.938238000002457,15.938238000002457,0.006965999986277893,0.10603910000645556,30.95499659999041,15.022639400005573,31.0549558000057,0.022816399985458702,0.12263919998076744,31.488237499987008,space,1.5183889000036288,,,,,,,,,,,,,,,,,,,,,,,,,,,,,,,,,,,,,,,,,,,,,,,,,,,4206,Moral,2025-02-27_12h36.41.983,MoralCondition_v2,2022.2.5,29.999355015067604,
0,0,0,0,0,0,0,0,,,,,,,,,,,,,,,,,,,,,,33.055045999994036,0.0014137999969534576,0.09857040000497364,39.071902099996805,6.015466799988644,39.354884200001834,39.354884200001834,0.1590145000081975,0.29859920000308193,6.031902799993986,45.37144459999399,45.37144459999399,45.37144459999399,0.09079049999127164,0.2152926999842748,51.07158970000455,51.23828809999395,6.0152984999876935,6.115260899998248,57.238410699996166,12.01542869998957,57.37160210000002,57.37160210000002,0.0153983999916818,0.11520259999088012,down,1.7941357000090647,59.22159499998088,5.639999289996922e-05,0.09749580000061542,65.27168609999353,65.27168609999353,0.03500699999858625,0.14769640000304207,6.0,6.263807099981932,,,,,,,,,,,,,,,4206,Moral,2025-02-27_12h36.41.983,MoralCondition_v2,2022.2.5,29.999355015067604,
0,0,0,0,1,0,1,0,,,,,,,,,,,,,,,,,,,,,,,,,,,,,,,,,,,,,,,,,,,,,,,,,,,,71.5547219,71.5547219,0.01102469998295419,0.09835029998794198,5.0,5.454973899992183,,,,,,,,,,,,,,,4206,Moral,2025-02-27_12h36.41.983,MoralCondition_v2,2022.2.5,29.999355015067604,
0,0,0,0,2,0,2,0,,,,,,,,,,,,,,,,,,,,,,,,,,,,,,,,,,,,,,,,,,,,,,,,,,,,77.05479179997928,77.05479179997928,0.00839180001639761,0.09922210001968779,5.0,4.425201599980937,,,,,,,,,,,,,,,4206,Moral,2025-02-27_12h36.41.983,MoralCondition_v2,2022.2.5,29.999355015067604,
0,0,0,0,3,0,3,0,,,,,,,,,,,,,,,,,,,,,,,,,,,,,,,,,,,,,,,,,,,,,,,,,,,,81.52154529999825,81.52154529999825,0.00868530001025647,0.0990608999854885,4.0,4.091406599996844,,,,,,,,,,,,,,,4206,Moral,2025-02-27_12h36.41.983,MoralCondition_v2,2022.2.5,29.999355015067604,
0,0,0,0,4,0,4,0,,,,,,,,,,,,,,,,,,,,,,,,,,,,,,,,,,,,,,,,,,,,,,,,,,,,85.67182229997707,85.67182229997707,0.00957269998616539,0.11450789999798872,4.0,5.506246500008274,,,,,,,,,,,,,,,4206,Moral,2025-02-27_12h36.41.983,MoralCondition_v2,2022.2.5,29.999355015067604,
0,0,0,0,5,0,5,0,,,,,,,,,,,,,,,,,,,,,,,,,,,,,,,,,,,,,,,,,,,,,,,,,,,,91.22153939999407,91.22153939999407,0.009881999983917922,0.11412659997586161,5.0,2.038762400014093,,,,,,,,,,,,,,,4206,Moral,2025-02-27_12h36.41.983,MoralCondition_v2,2022.2.5,29.999355015067604,
0,0,0,0,6,0,6,0,,,,,,,,,,,,,,,,,,,,,,,,,,,,,,,,,,,,,,,,,,,,,,,,,,,,93.3051157000009,93.3051157000009,0.009035199997015297,0.11512309999670833,2.0,5.140484900010051,,,,,,,,,,,,,,,4206,Moral,2025-02-27_12h36.41.983,MoralCondition_v2,2022.2.5,29.999355015067604,
0,0,0,0,,,,,,,,,,,,,,,,,,,,,,,,,,,,,,,,,,,,,,,,,,,,,,,,,,,,,,,,,,,,,,98.47152649998316,98.47152649998316,0.002078399993479252,0.09744479999062605,2.0,10.396787300007418,,,,,,,,,4206,Moral,2025-02-27_12h36.41.983,MoralCondition_v2,2022.2.5,29.999355015067604,
1,0,1,0,0,0,0,0,,,,,,,,,,,,,,,,,,,,,,108.90483220000169,0.0003701999958138913,0.09785140000167303,114.90480399999069,6.031236599985277,115.13817829999607,115.13817829999607,0.12733319998369552,0.2312878999800887,6.0312489999923855,121.20470949998708,121.20470949998708,121.20470949998708,0.09078259998932481,0.1978147999907378,126.90482709999196,127.10481349998736,6.031225799990352,6.131171899993205,133.10494449999533,12.031350499979453,133.2381795999827,133.2381795999827,0.031551299965940416,0.13114859999041073,down,0.8720313000085298,134.17144209999242,5.229999078437686e-05,0.0981092999863904,140.1880203000037,140.1880203000037,0.02492480000364594,0.11482689998229034,6.0,3.257808299997123,,,,,,,133.20500940000056,133.20500940000056,,,,,,,4206,Moral,2025-02-27_12h36.41.983,MoralCondition_v2,2022.2.5,29.999355015067604,
1,0,1,0,1,0,1,0,,,,,,,,,,,,,,,,,,,,,,,,,,,,,,,,,,,,,,,,,,,,,,,,,,,,143.48808680000366,143.48808680000366,0.007014500006334856,0.09927030000835657,5.0,3.193060299992794,,,,,,,,,,,,,,,4206,Moral,2025-02-27_12h36.41.983,MoralCondition_v2,2022.2.5,29.999355015067604,
1,0,1,0,2,0,2,0,,,,,,,,,,,,,,,,,,,,,,,,,,,,,,,,,,,,,,,,,,,,,,,,,,,,146.7213630999904,146.7213630999904,0.0066949000174645334,0.09913000001688488,5.0,2.960040600009961,,,,,,,,,,,,,,,4206,Moral,2025-02-27_12h36.41.983,MoralCondition_v2,2022.2.5,29.999355015067604,
1,0,1,0,3,0,3,0,,,,,,,,,,,,,,,,,,,,,,,,,,,,,,,,,,,,,,,,,,,,,,,,,,,,149.7381236999936,149.7381236999936,0.008464200014714152,0.11435980000533164,5.0,1.6402241000032518,,,,,,,,,,,,,,,4206,Moral,2025-02-27_12h36.41.983,MoralCondition_v2,2022.2.5,29.999355015067604,
1,0,1,0,4,0,4,0,,,,,,,,,,,,,,,,,,,,,,,,,,,,,,,,,,,,,,,,,,,,,,,,,,,,151.42167959999642,151.42167959999642,0.007796899997629225,0.11405780000495724,5.0,4.174129599996377,,,,,,,,,,,,,,,4206,Moral,2025-02-27_12h36.41.983,MoralCondition_v2,2022.2.5,29.999355015067604,
1,0,1,0,5,0,5,0,,,,,,,,,,,,,,,,,,,,,,,,,,,,,,,,,,,,,,,,,,,,,,,,,,,,155.62142029998358,155.62142029998358,0.007665399985853583,0.09772140000131913,2.0,5.857845099992119,,,,,,,,,,,,,,,4206,Moral,2025-02-27_12h36.41.983,MoralCondition_v2,2022.2.5,29.999355015067604,
1,0,1,0,6,0,6,0,,,,,,,,,,,,,,,,,,,,,,,,,,,,,,,,,,,,,,,,,,,,,,,,,,,,161.52127080000355,161.52127080000355,0.006974999996600673,0.0978962000226602,5.0,4.691995999979554,,,,,,,,,,,,,,,4206,Moral,2025-02-27_12h36.41.983,MoralCondition_v2,2022.2.5,29.999355015067604,
1,0,1,0,,,,,,,,,,,,,,,,,,,,,,,,,,,,,,,,,,,,,,,,,,,,,,,,,,,,,,,,,,,,,,166.25495390000287,166.25495390000287,0.0007202000124379992,0.09895030001644045,2.0,4.666103299998213,,,,,,,,,4206,Moral,2025-02-27_12h36.41.983,MoralCondition_v2,2022.2.5,29.999355015067604,
2,0,2,0,0,0,0,0,,,,,,,,,,,,,,,,,,,,,,170.95495819998905,0.0002674999996088445,0.0978585000266321,176.9713581999822,6.014500900026178,177.13785629998893,177.13785629998893,0.07718920000479557,0.18108110001776367,6.01465540000936,183.2379981999984,183.2379981999984,183.2379981999984,0.07885970000643283,0.1814285000145901,188.9380093999789,189.13804089999758,6.014507699990645,6.114560899994103,195.13805330000469,12.014529800013406,195.27133419999154,195.27133419999154,0.014726299996254966,0.11439889998291619,up,0.4068501000001561,195.7382437000051,3.3499993151053786e-05,0.09852120000869036,201.7545017999946,201.7545017999946,0.02484629998798482,0.11516690001008101,1.0,5.557854799990309,,,,,,,195.23810590000357,195.23810590000357,183.13803449997795,183.13803449997795,,,,,4206,Moral,2025-02-27_12h36.41.983,MoralCondition_v2,2022.2.5,29.999355015067604,
2,0,2,0,1,0,1,0,,,,,,,,,,,,,,,,,,,,,,,,,,,,,,,,,,,,,,,,,,,,,,,,,,,,207.3546006999968,207.3546006999968,0.006660300015937537,0.09917349999886937,1.0,1.4601961000007577,,,,,,,,,,,,,,,4206,Moral,2025-02-27_12h36.41.983,MoralCondition_v2,2022.2.5,29.999355015067604,
2,0,2,0,2,0,2,0,,,,,,,,,,,,,,,,,,,,,,,,,,,,,,,,,,,,,,,,,,,,,,,,,,,,208.85454569998547,208.85454569998547,0.009229899995261803,0.09748799999943003,2.0,3.0894896000099834,,,,,,,,,,,,,,,4206,Moral,2025-02-27_12h36.41.983,MoralCondition_v2,2022.2.5,29.999355015067604,
2,0,2,0,3,0,3,0,,,,,,,,,,,,,,,,,,,,,,,,,,,,,,,,,,,,,,,,,,,,,,,,,,,,212.00498159998097,212.00498159998097,0.009353900008136407,0.11432849999982864,1.0,2.0060779999766964,,,,,,,,,,,,,,,4206,Moral,2025-02-27_12h36.41.983,MoralCondition_v2,2022.2.5,29.999355015067604,
2,0,2,0,4,0,4,0,,,,,,,,,,,,,,,,,,,,,,,,,,,,,,,,,,,,,,,,,,,,,,,,,,,,214.0547327999957,214.0547327999957,0.008012900012545288,0.11461320001399145,7.0,5.240744099981384,,,,,,,,,,,,,,,4206,Moral,2025-02-27_12h36.41.983,MoralCondition_v2,2022.2.5,29.999355015067604,
2,0,2,0,5,0,5,0,,,,,,,,,,,,,,,,,,,,,,,,,,,,,,,,,,,,,,,,,,,,,,,,,,,,219.33804879998206,219.33804879998206,0.0084391999989748,0.11438029998680577,4.0,4.006909299991094,,,,,,,,,,,,,,,4206,Moral,2025-02-27_12h36.41.983,MoralCondition_v2,2022.2.5,29.999355015067604,
2,0,2,0,6,0,6,0,,,,,,,,,,,,,,,,,,,,,,,,,,,,,,,,,,,,,,,,,,,,,,,,,,,,223.37110289998236,223.37110289998236,0.0076453999790828675,0.09848299997975118,6.0,3.4249010999919847,,,,,,,,,,,,,,,4206,Moral,2025-02-27_12h36.41.983,MoralCondition_v2,2022.2.5,29.999355015067604,
2,0,2,0,,,,,,,,,,,,,,,,,,,,,,,,,,,,,,,,,,,,,,,,,,,,,,,,,,,,,,,,,,,,,,226.8379980000027,226.8379980000027,0.001996399980271235,0.09726569999475032,7.0,3.9630753000092227,,,,,,,,,4206,Moral,2025-02-27_12h36.41.983,MoralCondition_v2,2022.2.5,29.999355015067604,
3,0,3,0,0,0,0,0,,,,,,,,,,,,,,,,,,,,,,230.83825289999368,0.00014170000213198364,0.0990518000035081,236.83780079998542,5.999041200004285,237.02109880000353,237.02109880000353,0.08081630000378937,0.18239530001301318,6.015963100013323,243.12112460000208,243.12112460000208,243.12112460000208,0.07707510000909679,0.18240099999820814,248.82122620000155,249.02127779999864,6.015875099983532,6.115760399989085,255.0212315999961,12.01569189998554,255.15463819997967,255.15463819997967,0.01594670000486076,0.11565160000463948,up,0.4754522000148427,255.68774159997702,4.75000124424696e-05,0.09793119999812916,261.7045116999943,261.7045116999943,0.01138159999391064,0.11458900000434369,1.0,4.937487399991369,,,,,,,255.12120669998694,255.12120669998694,243.0043972999847,243.0043972999847,6.098830600007204,261.7045116999943,,,4206,Moral,2025-02-27_12h36.41.983,MoralCondition_v2,2022.2.5,29.999355015067604,
3,0,3,0,1,0,1,0,,,,,,,,,,,,,,,,,,,,,,,,,,,,,,,,,,,,,,,,,,,,,,,,,,,,266.6715095999825,266.6715095999825,0.007035400019958615,0.09810050000669435,4.0,4.625405500002671,,,,,,,,,,,,,,,4206,Moral,2025-02-27_12h36.41.983,MoralCondition_v2,2022.2.5,29.999355015067604,
3,0,3,0,2,0,2,0,,,,,,,,,,,,,,,,,,,,,,,,,,,,,,,,,,,,,,,,,,,,,,,,,,,,271.33768639998743,271.33768639998743,0.007599300006404519,0.0978923000220675,1.0,3.5917789000086486,,,,,,,,,,,,,,,4206,Moral,2025-02-27_12h36.41.983,MoralCondition_v2,2022.2.5,29.999355015067604,
3,0,3,0,3,0,3,0,,,,,,,,,,,,,,,,,,,,,,,,,,,,,,,,,,,,,,,,,,,,,,,,,,,,274.98791840000194,274.98791840000194,0.008931399992434308,0.11420779998297803,1.0,2.1398469999840017,,,,,,,,,,,,,,,4206,Moral,2025-02-27_12h36.41.983,MoralCondition_v2,2022.2.5,29.999355015067604,
3,0,3,0,4,0,4,0,,,,,,,,,,,,,,,,,,,,,,,,,,,,,,,,,,,,,,,,,,,,,,,,,,,,277.1545891999849,277.1545891999849,0.007718400011071935,0.0979351999994833,7.0,6.0914300000004005,,,,,,,,,,,,,,,4206,Moral,2025-02-27_12h36.41.983,MoralCondition_v2,2022.2.5,29.999355015067604,
3,0,3,0,5,0,5,0,,,,,,,,,,,,,,,,,,,,,,,,,,,,,,,,,,,,,,,,,,,,,,,,,,,,283.30455050000455,283.30455050000455,0.0089637000055518,0.11411530000623316,6.0,1.5061887000047136,,,,,,,,,,,,,,,4206,Moral,2025-02-27_12h36.41.983,MoralCondition_v2,2022.2.5,29.999355015067604,
3,0,3,0,6,0,6,0,,,,,,,,,,,,,,,,,,,,,,,,,,,,,,,,,,,,,,,,,,,,,,,,,,,,284.8544694999873,284.8544694999873,0.008437099982984364,0.11434289999306202,2.0,2.706607799977064,,,,,,,,,,,,,,,4206,Moral,2025-02-27_12h36.41.983,MoralCondition_v2,2022.2.5,29.999355015067604,
3,0,3,0,,,,,,,,,,,,,,,,,,,,,,,,,,,,,,,,,,,,,,,,,,,,,,,,,,,,,,,,,,,,,,287.5879772999906,287.5879772999906,0.0011770999990403652,0.0980695000034757,7.0,3.99800670001423,,,,,,,,,4206,Moral,2025-02-27_12h36.41.983,MoralCondition_v2,2022.2.5,29.999355015067604,
4,0,4,0,0,0,0,0,,,,,,,,,,,,,,,,,,,,,,291.6210594000004,0.00041149999015033245,0.09734819998266175,297.62105509999674,6.030708299978869,297.8043443999777,297.8043443999777,0.08095889998367056,0.18089159997180104,6.013981199997943,303.90456500000437,303.90456500000437,303.90456500000437,0.06573719996958971,0.18086889997357503,309.6042985999957,309.8043637999799,6.014077899977565,6.113983099989127,315.8043847999943,12.014039399975445,315.937686499994,315.937686499994,0.014119399973424152,0.11391459996229969,up,0.5078062000102364,316.50440489998437,4.539999645203352e-05,0.09791949999635108,322.52110489999177,322.52110489999177,0.009255099983420223,0.11463199998252094,6.0,4.172954700014088,,,,,,,315.90429679999943,315.90429679999943,303.80433809998794,303.80433809998794,,322.52110489999177,,,4206,Moral,2025-02-27_12h36.41.983,MoralCondition_v2,2022.2.5,29.999355015067604,
4,0,4,0,1,0,1,0,,,,,,,,,,,,,,,,,,,,,,,,,,,,,,,,,,,,,,,,,,,,,,,,,,,,326.7209447999776,326.7209447999776,0.007833500014385208,0.098131500009913,6.0,3.791233200026909,,,,,,,,,,,,,,,4206,Moral,2025-02-27_12h36.41.983,MoralCondition_v2,2022.2.5,29.999355015067604,
4,0,4,0,2,0,2,0,,,,,,,,,,,,,,,,,,,,,,,,,,,,,,,,,,,,,,,,,,,,,,,,,,,,330.5541213999968,330.5541213999968,0.006856599997263402,0.09927119998610578,7.0,3.660307100013597,,,,,,,,,,,,,,,4206,Moral,2025-02-27_12h36.41.983,MoralCondition_v2,2022.2.5,29.999355015067604,
4,0,4,0,3,0,3,0,,,,,,,,,,,,,,,,,,,,,,,,,,,,,,,,,,,,,,,,,,,,,,,,,,,,334.27103169998736,334.27103169998736,0.009316099982243031,0.11473669999395497,1.0,3.3063901999848895,,,,,,,,,,,,,,,4206,Moral,2025-02-27_12h36.41.983,MoralCondition_v2,2022.2.5,29.999355015067604,
4,0,4,0,4,0,4,0,,,,,,,,,,,,,,,,,,,,,,,,,,,,,,,,,,,,,,,,,,,,,,,,,,,,337.6210848999908,337.6210848999908,0.009054299996932968,0.11380009999265894,2.0,6.13916109999991,,,,,,,,,,,,,,,4206,Moral,2025-02-27_12h36.41.983,MoralCondition_v2,2022.2.5,29.999355015067604,
4,0,4,0,5,0,5,0,,,,,,,,,,,,,,,,,,,,,,,,,,,,,,,,,,,,,,,,,,,,,,,,,,,,343.78758039997774,343.78758039997774,0.00717990001430735,0.09811980000813492,1.0,1.6920681999763474,,,,,,,,,,,,,,,4206,Moral,2025-02-27_12h36.41.983,MoralCondition_v2,2022.2.5,29.999355015067604,
4,0,4,0,6,0,6,0,,,,,,,,,,,,,,,,,,,,,,,,,,,,,,,,,,,,,,,,,,,,,,,,,,,,345.537736600003,345.537736600003,0.009312400012277067,0.11482509999768808,4.0,1.70650050000404,,,,,,,,,,,,,,,4206,Moral,2025-02-27_12h36.41.983,MoralCondition_v2,2022.2.5,29.999355015067604,
4,0,4,0,,,,,,,,,,,,,,,,,,,,,,,,,,,,,,,,,,,,,,,,,,,,,,,,,,,,,,,,,,,,,,347.2710514999926,347.2710514999926,0.00133050000295043,0.0976403999957256,7.0,2.8973446000018157,,,,,,,,,4206,Moral,2025-02-27_12h36.41.983,MoralCondition_v2,2022.2.5,29.999355015067604,
5,0,5,0,0,0,0,0,,,,,,,,,,,,,,,,,,,,,,350.2045574999938,0.0002488000027369708,0.09839030000148341,356.22090839999146,6.014885000011418,356.4374790999864,356.4374790999864,0.11875930000678636,0.23161640000762418,6.031452099996386,362.50405389998923,362.50405389998923,362.50405389998923,0.08494380000047386,0.1980932999867946,368.204121399991,368.40416639999603,6.031453400006285,6.131416999996873,374.4042567999859,12.031559499999275,374.5375098999939,374.5375098999939,0.031632800004445016,0.13134679998620413,down,6.804316800000379,381.3874690999801,4.149999585933983e-05,0.09801049999077804,387.4044673999888,387.4044673999888,0.023881499975686893,0.11477949999971315,6.0,2.3254958000034094,,,,,,,374.504183299985,374.504183299985,,,,,,,4206,Moral,2025-02-27_12h36.41.983,MoralCondition_v2,2022.2.5,29.999355015067604,
5,0,5,0,1,0,1,0,,,,,,,,,,,,,,,,,,,,,,,,,,,,,,,,,,,,,,,,,,,,,,,,,,,,389.7875879999774,389.7875879999774,0.007643299992196262,0.11407819998566993,1.0,2.474494299996877,,,,,,,,,,,,,,,4206,Moral,2025-02-27_12h36.41.983,MoralCondition_v2,2022.2.5,29.999355015067604,
5,0,5,0,2,0,2,0,,,,,,,,,,,,,,,,,,,,,,,,,,,,,,,,,,,,,,,,,,,,,,,,,,,,392.287516899989,392.287516899989,0.00697980000404641,0.09806670001125894,1.0,0.592380799993407,,,,,,,,,,,,,,,4206,Moral,2025-02-27_12h36.41.983,MoralCondition_v2,2022.2.5,29.999355015067604,
5,0,5,0,3,0,3,0,,,,,,,,,,,,,,,,,,,,,,,,,,,,,,,,,,,,,,,,,,,,,,,,,,,,392.9377167999919,392.9377167999919,0.008326199982548133,0.11439719999907538,7.0,2.340294099994935,,,,,,,,,,,,,,,4206,Moral,2025-02-27_12h36.41.983,MoralCondition_v2,2022.2.5,29.999355015067604,
5,0,5,0,4,0,4,0,,,,,,,,,,,,,,,,,,,,,,,,,,,,,,,,,,,,,,,,,,,,,,,,,,,,395.3042952999822,395.3042952999822,0.006607599993003532,0.09837739999056794,5.0,4.192743199993856,,,,,,,,,,,,,,,4206,Moral,2025-02-27_12h36.41.983,MoralCondition_v2,2022.2.5,29.999355015067604,
5,0,5,0,5,0,5,0,,,,,,,,,,,,,,,,,,,,,,,,,,,,,,,,,,,,,,,,,,,,,,,,,,,,399.55417200000375,399.55417200000375,0.008573300001444295,0.11393319998751394,4.0,1.4731474999862257,,,,,,,,,,,,,,,4206,Moral,2025-02-27_12h36.41.983,MoralCondition_v2,2022.2.5,29.999355015067604,
5,0,5,0,6,0,6,0,,,,,,,,,,,,,,,,,,,,,,,,,,,,,,,,,,,,,,,,,,,,,,,,,,,,401.0539987999946,401.0539987999946,0.007275899988599122,0.0981022999912966,2.0,2.058633500011638,,,,,,,,,,,,,,,4206,Moral,2025-02-27_12h36.41.983,MoralCondition_v2,2022.2.5,29.999355015067604,
5,0,5,0,,,,,,,,,,,,,,,,,,,,,,,,,,,,,,,,,,,,,,,,,,,,,,,,,,,,,,,,,,,,,,403.15405539999483,403.15405539999483,0.0012286999844945967,0.0980396999802906,7.0,2.8310908999992535,,,,,,,,,4206,Moral,2025-02-27_12h36.41.983,MoralCondition_v2,2022.2.5,29.999355015067604,
6,0,6,0,0,0,0,0,,,,,,,,,,,,,,,,,,,,,,406.02093129997957,0.00025430001551285386,0.0977671000000555,412.0373165999772,6.014493000024231,412.20410750000156,412.20410750000156,0.07055100001161918,0.18091359999380074,6.014359599997988,418.3039547999797,418.3039547999797,418.3039547999797,0.07226509999600239,0.18109359999652952,424.0039879999822,424.20412019998184,6.014561599993613,6.114423699997133,430.20404699997744,12.014504499995383,430.33728269999847,430.33728269999847,0.014591499988455325,0.11469699998269789,down,0.39626639999914914,430.77082710000104,4.5199994929134846e-05,0.09769389999564737,436.8041733999853,436.8041733999853,0.02519159999792464,0.13096469998708926,6.0,5.0398921000014525,,,,,,,430.30395149998367,430.30395149998367,418.2041118000052,418.2041118000052,,,,,4206,Moral,2025-02-27_12h36.41.983,MoralCondition_v2,2022.2.5,29.999355015067604,
6,0,6,0,1,0,1,0,,,,,,,,,,,,,,,,,,,,,,,,,,,,,,,,,,,,,,,,,,,,,,,,,,,,441.8706021999824,441.8706021999824,0.006997100019361824,0.09817250000196509,6.0,1.0589772000093944,,,,,,,,,,,,,,,4206,Moral,2025-02-27_12h36.41.983,MoralCondition_v2,2022.2.5,29.999355015067604,
6,0,6,0,2,0,2,0,,,,,,,,,,,,,,,,,,,,,,,,,,,,,,,,,,,,,,,,,,,,,,,,,,,,442.9705908999895,442.9705908999895,0.006580499990377575,0.09942250000312924,1.0,3.293662200012477,,,,,,,,,,,,,,,4206,Moral,2025-02-27_12h36.41.983,MoralCondition_v2,2022.2.5,29.999355015067604,
6,0,6,0,3,0,3,0,,,,,,,,,,,,,,,,,,,,,,,,,,,,,,,,,,,,,,,,,,,,,,,,,,,,446.30399789998773,446.30399789998773,0.006853999977465719,0.09825079998699948,6.0,2.992054800008191,,,,,,,,,,,,,,,4206,Moral,2025-02-27_12h36.41.983,MoralCondition_v2,2022.2.5,29.999355015067604,
6,0,6,0,4,0,4,0,,,,,,,,,,,,,,,,,,,,,,,,,,,,,,,,,,,,,,,,,,,,,,,,,,,,449.35388909999165,449.35388909999165,0.010255200002575293,0.11434559998451732,5.0,1.938620799977798,,,,,,,,,,,,,,,4206,Moral,2025-02-27_12h36.41.983,MoralCondition_v2,2022.2.5,29.999355015067604,
6,0,6,0,5,0,5,0,,,,,,,,,,,,,,,,,,,,,,,,,,,,,,,,,,,,,,,,,,,,,,,,,,,,451.32038479999756,451.32038479999756,0.006860399997094646,0.09851150002214126,5.0,1.9594222000159789,,,,,,,,,,,,,,,4206,Moral,2025-02-27_12h36.41.983,MoralCondition_v2,2022.2.5,29.999355015067604,
6,0,6,0,6,0,6,0,,,,,,,,,,,,,,,,,,,,,,,,,,,,,,,,,,,,,,,,,,,,,,,,,,,,453.32054749998497,453.32054749998497,0.0074075000011362135,0.09779450000496581,5.0,1.524875000002794,,,,,,,,,,,,,,,4206,Moral,2025-02-27_12h36.41.983,MoralCondition_v2,2022.2.5,29.999355015067604,
6,0,6,0,,,,,,,,,,,,,,,,,,,,,,,,,,,,,,,,,,,,,,,,,,,,,,,,,,,,,,,,,,,,,,454.88714289999916,454.88714289999916,0.0007543000101577491,0.09928719999152236,2.0,3.5663564999995288,,,,,,,,,4206,Moral,2025-02-27_12h36.41.983,MoralCondition_v2,2022.2.5,29.999355015067604,
7,0,7,0,0,0,0,0,,,,,,,,,,,,,,,,,,,,,,458.4875065999804,0.00016120000509545207,0.0990458000160288,464.50400439999066,6.015666299994336,464.6870637999964,464.6870637999964,0.08548949999385513,0.19900520000373945,5.999008999991929,470.75394699999015,470.75394699999015,470.75394699999015,0.05078940000385046,0.16587080000317656,476.45390359999146,476.6871409000014,6.032421099982457,6.132447499985574,482.6872601999785,12.03250199998729,482.80371119998745,482.80371119998745,0.01583689998369664,0.11563109999406151,up,0.37859239999670535,483.23708869999973,4.360001184977591e-05,0.09781060001114383,489.27059649999137,489.27059649999137,0.025154300004942343,0.13114250000216998,6.0,2.8405040000216104,,,,,,,482.75396169998567,482.75396169998567,470.75394699999015,470.75394699999015,,,6.0989874000079,,4206,Moral,2025-02-27_12h36.41.983,MoralCondition_v2,2022.2.5,29.999355015067604,
7,0,7,0,1,0,1,0,,,,,,,,,,,,,,,,,,,,,,,,,,,,,,,,,,,,,,,,,,,,,,,,,,,,492.137079099979,492.137079099979,0.006962799991015345,0.09782900000573136,2.0,3.42542849999154,,,,,,,,,,,,,,,4206,Moral,2025-02-27_12h36.41.983,MoralCondition_v2,2022.2.5,29.999355015067604,
7,0,7,0,2,0,2,0,,,,,,,,,,,,,,,,,,,,,,,,,,,,,,,,,,,,,,,,,,,,,,,,,,,,495.6036509999831,495.6036509999831,0.006717399985063821,0.09811130000161938,4.0,1.992402800009586,,,,,,,,,,,,,,,4206,Moral,2025-02-27_12h36.41.983,MoralCondition_v2,2022.2.5,29.999355015067604,
7,0,7,0,3,0,3,0,,,,,,,,,,,,,,,,,,,,,,,,,,,,,,,,,,,,,,,,,,,,,,,,,,,,497.63717349999934,497.63717349999934,0.0073979999870061874,0.09789380000438541,1.0,2.2578635000099894,,,,,,,,,,,,,,,4206,Moral,2025-02-27_12h36.41.983,MoralCondition_v2,2022.2.5,29.999355015067604,
7,0,7,0,4,0,4,0,,,,,,,,,,,,,,,,,,,,,,,,,,,,,,,,,,,,,,,,,,,,,,,,,,,,499.9540222999931,499.9540222999931,0.008611500001279637,0.11429900000803173,1.0,0.8067572999862023,,,,,,,,,,,,,,,4206,Moral,2025-02-27_12h36.41.983,MoralCondition_v2,2022.2.5,29.999355015067604,
7,0,7,0,5,0,5,0,,,,,,,,,,,,,,,,,,,,,,,,,,,,,,,,,,,,,,,,,,,,,,,,,,,,500.7869453000021,500.7869453000021,0.00788199997623451,0.09810899998410605,7.0,2.3245334000093862,,,,,,,,,,,,,,,4206,Moral,2025-02-27_12h36.41.983,MoralCondition_v2,2022.2.5,29.999355015067604,
7,0,7,0,6,0,6,0,,,,,,,,,,,,,,,,,,,,,,,,,,,,,,,,,,,,,,,,,,,,,,,,,,,,503.1538686999993,503.1538686999993,0.006722799997078255,0.09891729999799281,4.0,1.7598906999919564,,,,,,,,,,,,,,,4206,Moral,2025-02-27_12h36.41.983,MoralCondition_v2,2022.2.5,29.999355015067604,
7,0,7,0,,,,,,,,,,,,,,,,,,,,,,,,,,,,,,,,,,,,,,,,,,,,,,,,,,,,,,,,,,,,,,504.9535482999927,504.9535482999927,0.0007242000137921423,0.09955680000712164,7.0,1.9995095999911427,,,,,,,,,4206,Moral,2025-02-27_12h36.41.983,MoralCondition_v2,2022.2.5,29.999355015067604,
8,0,8,0,0,0,0,0,,,,,,,,,,,,,,,,,,,,,,506.9872887999809,0.0003327000013086945,0.09782379999523982,512.9867414000037,6.014270200015744,513.153765199997,513.153765199997,0.05046020000008866,0.16450620000250638,6.031006900011562,519.2868829999934,519.2868829999934,519.2868829999934,0.08242500000051223,0.19780439999885857,524.9869377999858,525.1872301999829,6.031222899997374,6.131066400004784,531.1871466999874,12.031138599995757,531.3202276999946,531.3202276999946,0.031128899980103597,0.13081159998546354,up,0.325522600003751,531.6869249999872,4.4100015657022595e-05,0.09793750001699664,537.6870335999993,537.6870335999993,0.008543200005078688,0.09795570001006126,1.0,1.9907539999985602,,,,,,,531.2869145000004,531.2869145000004,519.1536172000051,519.1536172000051,6.097463799989782,537.6870335999993,,,4206,Moral,2025-02-27_12h36.41.983,MoralCondition_v2,2022.2.5,29.999355015067604,
8,0,8,0,1,0,1,0,,,,,,,,,,,,,,,,,,,,,,,,,,,,,,,,,,,,,,,,,,,,,,,,,,,,539.720116099983,539.720116099983,0.007093799998983741,0.09833740000613034,6.0,2.358851200027857,,,,,,,,,,,,,,,4206,Moral,2025-02-27_12h36.41.983,MoralCondition_v2,2022.2.5,29.999355015067604,
8,0,8,0,2,0,2,0,,,,,,,,,,,,,,,,,,,,,,,,,,,,,,,,,,,,,,,,,,,,,,,,,,,,542.1200946999888,542.1200946999888,0.006636299978708848,0.09903049998683855,1.0,1.7942003999778535,,,,,,,,,,,,,,,4206,Moral,2025-02-27_12h36.41.983,MoralCondition_v2,2022.2.5,29.999355015067604,
8,0,8,0,3,0,3,0,,,,,,,,,,,,,,,,,,,,,,,,,,,,,,,,,,,,,,,,,,,,,,,,,,,,543.9535922999785,543.9535922999785,0.00645389998680912,0.09923510000226088,4.0,2.6937894000147935,,,,,,,,,,,,,,,4206,Moral,2025-02-27_12h36.41.983,MoralCondition_v2,2022.2.5,29.999355015067604,
8,0,8,0,4,0,4,0,,,,,,,,,,,,,,,,,,,,,,,,,,,,,,,,,,,,,,,,,,,,,,,,,,,,546.6869334999938,546.6869334999938,0.006813600019086152,0.09933630001614802,4.0,0.8933782000094652,,,,,,,,,,,,,,,4206,Moral,2025-02-27_12h36.41.983,MoralCondition_v2,2022.2.5,29.999355015067604,
8,0,8,0,5,0,5,0,,,,,,,,,,,,,,,,,,,,,,,,,,,,,,,,,,,,,,,,,,,,,,,,,,,,547.6202575999778,547.6202575999778,0.007708400022238493,0.09762509999563918,7.0,1.6244412999949418,,,,,,,,,,,,,,,4206,Moral,2025-02-27_12h36.41.983,MoralCondition_v2,2022.2.5,29.999355015067604,
8,0,8,0,6,0,6,0,,,,,,,,,,,,,,,,,,,,,,,,,,,,,,,,,,,,,,,,,,,,,,,,,,,,549.2868219999946,549.2868219999946,0.006983200000831857,0.09818349999841303,2.0,6.458712999999989,,,,,,,,,,,,,,,4206,Moral,2025-02-27_12h36.41.983,MoralCondition_v2,2022.2.5,29.999355015067604,
8,0,8,0,,,,,,,,,,,,,,,,,,,,,,,,,,,,,,,,,,,,,,,,,,,,,,,,,,,,,,,,,,,,,,555.7869045999832,555.7869045999832,0.0012294999905861914,0.09809559999848716,7.0,2.131271599995671,,,,,,,,,4206,Moral,2025-02-27_12h36.41.983,MoralCondition_v2,2022.2.5,29.999355015067604,
9,0,9,0,0,0,0,0,,,,,,,,,,,,,,,,,,,,,,557.9535098999913,0.0004564999835565686,0.0973770999989938,563.9534355999785,6.030688099999679,564.1534741999931,564.1534741999931,0.0916735999926459,0.19759919997886755,6.030750699981581,570.2537814999814,570.2537814999814,570.2537814999814,0.08283739996841177,0.197495499975048,575.9534107999934,576.1535719999811,6.030829199968139,6.130884199985303,582.1533634999942,12.030613899987657,582.2866896999767,582.2866896999767,0.030808899959083647,0.13064129996928386,up,0.367031700006919,582.6866769999906,5.460000829771161e-05,0.09715590000269003,588.6865269999835,588.6865269999835,0.0040951000119093806,0.09727500000735745,6.0,2.7944183999788947,,,,,,,582.2533896999958,582.2533896999958,570.1534391999885,570.1534391999885,,588.6865269999835,,,4206,Moral,2025-02-27_12h36.41.983,MoralCondition_v2,2022.2.5,29.999355015067604,
9,0,9,0,1,0,1,0,,,,,,,,,,,,,,,,,,,,,,,,,,,,,,,,,,,,,,,,,,,,,,,,,,,,591.5199637000042,591.5199637000042,0.006558199995197356,0.09855329999118112,7.0,1.4261881000129506,,,,,,,,,,,,,,,4206,Moral,2025-02-27_12h36.41.983,MoralCondition_v2,2022.2.5,29.999355015067604,
9,0,9,0,2,0,2,0,,,,,,,,,,,,,,,,,,,,,,,,,,,,,,,,,,,,,,,,,,,,,,,,,,,,592.9867559999984,592.9867559999984,0.007510499999625608,0.09756389999529347,6.0,1.9246184999938123,,,,,,,,,,,,,,,4206,Moral,2025-02-27_12h36.41.983,MoralCondition_v2,2022.2.5,29.999355015067604,
9,0,9,0,3,0,3,0,,,,,,,,,,,,,,,,,,,,,,,,,,,,,,,,,,,,,,,,,,,,,,,,,,,,594.9533264999918,594.9533264999918,0.006398900004569441,0.09940730000380427,1.0,1.760735299991211,,,,,,,,,,,,,,,4206,Moral,2025-02-27_12h36.41.983,MoralCondition_v2,2022.2.5,29.999355015067604,
9,0,9,0,4,0,4,0,,,,,,,,,,,,,,,,,,,,,,,,,,,,,,,,,,,,,,,,,,,,,,,,,,,,596.7531450999959,596.7531450999959,0.006540699978359044,0.09903889999259263,1.0,0.660392599995248,,,,,,,,,,,,,,,4206,Moral,2025-02-27_12h36.41.983,MoralCondition_v2,2022.2.5,29.999355015067604,
9,0,9,0,5,0,5,0,,,,,,,,,,,,,,,,,,,,,,,,,,,,,,,,,,,,,,,,,,,,,,,,,,,,597.4533317000023,597.4533317000023,0.007455000013578683,0.09798880000016652,2.0,4.65820779997739,,,,,,,,,,,,,,,4206,Moral,2025-02-27_12h36.41.983,MoralCondition_v2,2022.2.5,29.999355015067604,
9,0,9,0,6,0,6,0,,,,,,,,,,,,,,,,,,,,,,,,,,,,,,,,,,,,,,,,,,,,,,,,,,,,602.153186999989,602.153186999989,0.006406100001186132,0.09906340000452474,4.0,2.160281499993289,,,,,,,,,,,,,,,4206,Moral,2025-02-27_12h36.41.983,MoralCondition_v2,2022.2.5,29.999355015067604,
9,0,9,0,,,,,,,,,,,,,,,,,,,,,,,,,,,,,,,,,,,,,,,,,,,,,,,,,,,,,,,,,,,,,,604.3531708999944,604.3531708999944,0.0010787000064738095,0.09805080000660382,7.0,2.1649070999992546,,,,,,,,,4206,Moral,2025-02-27_12h36.41.983,MoralCondition_v2,2022.2.5,29.999355015067604,
10,0,10,0,0,0,0,0,,,,,,,,,,,,,,,,,,,,,,606.5535245999927,0.0002584999892860651,0.09812789998250082,612.5699651000032,6.014774499984924,612.7364656999998,612.7364656999998,0.07063360000029206,0.18144970000139438,6.014720299979672,618.8367812999932,618.8367812999932,618.8367812999932,0.07096269997418858,0.18162219997611828,624.5367872999632,624.736620199983,6.014868099999148,6.114701299986336,630.7365052999812,12.014737899997272,630.8698672999744,630.8698672999744,0.014874799991957843,0.1146924999775365,up,1.5763268999871798,632.5032026999979,5.0399976316839457e-05,0.09802879998460412,638.5201835000189,638.5201835000189,0.008878299966454506,0.11429649998899549,6.0,4.473127200035378,,,,,,,630.836483299965,630.836483299965,618.7364755999879,618.7364755999879,,638.5201835000189,,,4206,Moral,2025-02-27_12h36.41.983,MoralCondition_v2,2022.2.5,29.999355015067604,
10,0,10,0,1,0,1,0,,,,,,,,,,,,,,,,,,,,,,,,,,,,,,,,,,,,,,,,,,,,,,,,,,,,643.0196248000138,643.0196248000138,0.007493300014175475,0.098558800003957,6.0,1.1255050000036135,,,,,,,,,,,,,,,4206,Moral,2025-02-27_12h36.41.983,MoralCondition_v2,2022.2.5,29.999355015067604,
10,0,10,0,2,0,2,0,,,,,,,,,,,,,,,,,,,,,,,,,,,,,,,,,,,,,,,,,,,,,,,,,,,,644.1865777000203,644.1865777000203,0.007014200033154339,0.09912640001857653,5.0,3.6598099999828264,,,,,,,,,,,,,,,4206,Moral,2025-02-27_12h36.41.983,MoralCondition_v2,2022.2.5,29.999355015067604,
10,0,10,0,3,0,3,0,,,,,,,,,,,,,,,,,,,,,,,,,,,,,,,,,,,,,,,,,,,,,,,,,,,,647.90333250002,647.90333250002,0.01030160003574565,0.1147425000090152,3.0,4.2387555000022985,,,,,,,,,,,,,,,4206,Moral,2025-02-27_12h36.41.983,MoralCondition_v2,2022.2.5,29.999355015067604,
10,0,10,0,4,0,4,0,,,,,,,,,,,,,,,,,,,,,,,,,,,,,,,,,,,,,,,,,,,,,,,,,,,,652.1699166999897,652.1699166999897,0.007548799971118569,0.09776799997780472,6.0,2.7577066000085324,,,,,,,,,,,,,,,4206,Moral,2025-02-27_12h36.41.983,MoralCondition_v2,2022.2.5,29.999355015067604,
10,0,10,0,5,0,5,0,,,,,,,,,,,,,,,,,,,,,,,,,,,,,,,,,,,,,,,,,,,,,,,,,,,,654.9866706000175,654.9866706000175,0.008318300009705126,0.11431969999102876,5.0,1.8070264999987558,,,,,,,,,,,,,,,4206,Moral,2025-02-27_12h36.41.983,MoralCondition_v2,2022.2.5,29.999355015067604,
10,0,10,0,6,0,6,0,,,,,,,,,,,,,,,,,,,,,,,,,,,,,,,,,,,,,,,,,,,,,,,,,,,,656.8196527999826,656.8196527999826,0.007576300005894154,0.09831769997254014,6.0,2.5586890999693424,,,,,,,,,,,,,,,4206,Moral,2025-02-27_12h36.41.983,MoralCondition_v2,2022.2.5,29.999355015067604,
10,0,10,0,,,,,,,,,,,,,,,,,,,,,,,,,,,,,,,,,,,,,,,,,,,,,,,,,,,,,,,,,,,,,,659.4196981000132,659.4196981000132,0.0006930999807082117,0.0993529999977909,2.0,5.399885099963285,,,,,,,,,4206,Moral,2025-02-27_12h36.41.983,MoralCondition_v2,2022.2.5,29.999355015067604,
11,0,11,0,0,0,0,0,,,,,,,,,,,,,,,,,,,,,,664.8530604999978,0.00014209997607395053,0.09898839995730668,670.8529785000137,5.99906820000615,671.0195090000052,671.0195090000052,0.062475299986544997,0.16571380000095814,5.999027899990324,677.1196509000147,677.1196509000147,677.1196509000147,0.061952600022777915,0.1658381000161171,682.8198557000142,683.0529777000193,6.032343700004276,6.132396700035315,689.0529443999985,11.999093500024173,689.1529559000046,689.1529559000046,-0.0002095999661833048,0.0990379000431858,up,0.3645420999964699,689.552941699978,4.1700026486068964e-05,0.09794410003814846,695.5531395999715,695.5531395999715,0.008620200038421899,0.09784260002197698,6.0,3.3901706999749877,,,,,,,689.1195592000149,689.1195592000149,677.0196261999663,677.0196261999663,6.0989764999831095,695.5531395999715,6.09899550001137,12.09893610002473,4206,Moral,2025-02-27_12h36.41.983,MoralCondition_v2,2022.2.5,29.999355015067604,
11,0,11,0,1,0,1,0,,,,,,,,,,,,,,,,,,,,,,,,,,,,,,,,,,,,,,,,,,,,,,,,,,,,698.9862000999856,698.9862000999856,0.006510999985039234,0.09910560003481805,6.0,2.226913299993612,,,,,,,,,,,,,,,4206,Moral,2025-02-27_12h36.41.983,MoralCondition_v2,2022.2.5,29.999355015067604,
11,0,11,0,2,0,2,0,,,,,,,,,,,,,,,,,,,,,,,,,,,,,,,,,,,,,,,,,,,,,,,,,,,,701.2527886999887,701.2527886999887,0.007340099953580648,0.09756059997016564,1.0,5.224598300002981,,,,,,,,,,,,,,,4206,Moral,2025-02-27_12h36.41.983,MoralCondition_v2,2022.2.5,29.999355015067604,
11,0,11,0,3,0,3,0,,,,,,,,,,,,,,,,,,,,,,,,,,,,,,,,,,,,,,,,,,,,,,,,,,,,706.5193455999834,706.5193455999834,0.006846599979326129,0.09862130001420155,3.0,4.959473299968522,,,,,,,,,,,,,,,4206,Moral,2025-02-27_12h36.41.983,MoralCondition_v2,2022.2.5,29.999355015067604,
11,0,11,0,4,0,4,0,,,,,,,,,,,,,,,,,,,,,,,,,,,,,,,,,,,,,,,,,,,,,,,,,,,,711.5363642000011,711.5363642000011,0.009293599985539913,0.11419739999109879,6.0,3.039255600015167,,,,,,,,,,,,,,,4206,Moral,2025-02-27_12h36.41.983,MoralCondition_v2,2022.2.5,29.999355015067604,
11,0,11,0,5,0,5,0,,,,,,,,,,,,,,,,,,,,,,,,,,,,,,,,,,,,,,,,,,,,,,,,,,,,714.6028627000051,714.6028627000051,0.007479500025510788,0.0977718000067398,6.0,1.2248603999614716,,,,,,,,,,,,,,,4206,Moral,2025-02-27_12h36.41.983,MoralCondition_v2,2022.2.5,29.999355015067604,
11,0,11,0,6,0,6,0,,,,,,,,,,,,,,,,,,,,,,,,,,,,,,,,,,,,,,,,,,,,,,,,,,,,715.8696296999697,715.8696296999697,0.007153400045353919,0.09804060001624748,6.0,2.89172899996629,,,,,,,,,,,,,,,4206,Moral,2025-02-27_12h36.41.983,MoralCondition_v2,2022.2.5,29.999355015067604,
11,0,11,0,,,,,,,,,,,,,,,,,,,,,,,,,,,,,,,,,,,,,,,,,,,,,,,,,,,,,,,,,,,,,,718.8027992999996,718.8027992999996,0.0027259000344201922,0.09723900002427399,2.0,1.9292142000049353,,,,,,,,,4206,Moral,2025-02-27_12h36.41.983,MoralCondition_v2,2022.2.5,29.999355015067604,
12,0,12,0,0,0,0,0,,,,,,,,,,,,,,,,,,,,,,720.7696108999662,0.00013329996727406979,0.09897369996178895,726.7861169999815,6.015647899999749,726.952695999993,726.952695999993,0.07615440001245588,0.18234870000742376,6.015647899999749,733.0525836999877,733.0525836999877,733.0525836999877,0.07613990001846105,0.18226259999210015,738.7527240999625,738.9527233999688,6.015661000041291,6.115400500013493,744.9526774999686,12.015611800015904,745.0860403999686,745.0860403999686,0.0157320000580512,0.1155869000358507,down,0.3358140000491403,745.4859979000175,4.5199994929134846e-05,0.09764819999691099,751.5027822999982,751.5027822999982,0.008884000009857118,0.11431410000659525,1.0,2.639954600017518,,,,,,,745.0526532999938,745.0526532999938,732.9527431000024,732.9527431000024,,751.5027822999982,,,4206,Moral,2025-02-27_12h36.41.983,MoralCondition_v2,2022.2.5,29.999355015067604,
12,0,12,0,1,0,1,0,,,,,,,,,,,,,,,,,,,,,,,,,,,,,,,,,,,,,,,,,,,,,,,,,,,,754.1692230000044,754.1692230000044,0.007145499985199422,0.09910859999945387,5.0,2.892808100034017,,,,,,,,,,,,,,,4206,Moral,2025-02-27_12h36.41.983,MoralCondition_v2,2022.2.5,29.999355015067604,
12,0,12,0,2,0,2,0,,,,,,,,,,,,,,,,,,,,,,,,,,,,,,,,,,,,,,,,,,,,,,,,,,,,757.1027983999811,757.1027983999811,0.006808399979490787,0.09906380000757053,7.0,2.360510000027716,,,,,,,,,,,,,,,4206,Moral,2025-02-27_12h36.41.983,MoralCondition_v2,2022.2.5,29.999355015067604,
12,0,12,0,3,0,3,0,,,,,,,,,,,,,,,,,,,,,,,,,,,,,,,,,,,,,,,,,,,,,,,,,,,,759.5026218999992,759.5026218999992,0.006514799955766648,0.09930929995607585,6.0,1.5937059000134468,,,,,,,,,,,,,,,4206,Moral,2025-02-27_12h36.41.983,MoralCondition_v2,2022.2.5,29.999355015067604,
12,0,12,0,4,0,4,0,,,,,,,,,,,,,,,,,,,,,,,,,,,,,,,,,,,,,,,,,,,,,,,,,,,,761.1359799000202,761.1359799000202,0.007886799983680248,0.0979438999784179,7.0,1.69103589997394,,,,,,,,,,,,,,,4206,Moral,2025-02-27_12h36.41.983,MoralCondition_v2,2022.2.5,29.999355015067604,
12,0,12,0,5,0,5,0,,,,,,,,,,,,,,,,,,,,,,,,,,,,,,,,,,,,,,,,,,,,,,,,,,,,762.8692685000133,762.8692685000133,0.007834100048057735,0.09923620003974065,5.0,6.0589627000154,,,,,,,,,,,,,,,4206,Moral,2025-02-27_12h36.41.983,MoralCondition_v2,2022.2.5,29.999355015067604,
12,0,12,0,6,0,6,0,,,,,,,,,,,,,,,,,,,,,,,,,,,,,,,,,,,,,,,,,,,,,,,,,,,,768.9692187000182,768.9692187000182,0.0070730000152252614,0.09796799998730421,6.0,2.0253812999580987,,,,,,,,,,,,,,,4206,Moral,2025-02-27_12h36.41.983,MoralCondition_v2,2022.2.5,29.999355015067604,
12,0,12,0,,,,,,,,,,,,,,,,,,,,,,,,,,,,,,,,,,,,,,,,,,,,,,,,,,,,,,,,,,,,,,771.0360503999982,771.0360503999982,0.0012596999877132475,0.09788720001233742,1.0,4.39755959995091,,,,,,,,,4206,Moral,2025-02-27_12h36.41.983,MoralCondition_v2,2022.2.5,29.999355015067604,
13,0,13,0,0,0,0,0,,,,,,,,,,,,,,,,,,,,,,775.4696519999998,0.0003279999946244061,0.09707939997315407,781.4858511000057,6.013713899999857,781.6524837000179,781.6524837000179,0.06819499999983236,0.18037529999855906,6.013738000008743,787.752321899985,787.752321899985,787.752321899985,0.06803390005370602,0.18036710005253553,793.4526601000107,793.6524850999704,6.013709700026084,6.113704600022174,799.6525713999872,12.013840700034052,799.7857800999773,799.7857800999773,0.013818500039633363,0.11359600006835535,down,0.4675293999607675,800.3191275999998,4.6600005589425564e-05,0.09786700003314763,806.3359579999815,806.3359579999815,0.009039500029757619,0.11464210000121966,6.0,2.5065530999563634,,,,,,,799.7524431999773,799.7524431999773,787.6525173999835,787.6525173999835,,806.3359579999815,,,4206,Moral,2025-02-27_12h36.41.983,MoralCondition_v2,2022.2.5,29.999355015067604,
13,0,13,0,1,0,1,0,,,,,,,,,,,,,,,,,,,,,,,,,,,,,,,,,,,,,,,,,,,,,,,,,,,,808.8688957999693,808.8688957999693,0.008018900000024587,0.09836569998878986,1.0,3.2250297000282444,,,,,,,,,,,,,,,4206,Moral,2025-02-27_12h36.41.983,MoralCondition_v2,2022.2.5,29.999355015067604,
13,0,13,0,2,0,2,0,,,,,,,,,,,,,,,,,,,,,,,,,,,,,,,,,,,,,,,,,,,,,,,,,,,,812.1362547000172,812.1362547000172,0.007716299965977669,0.09797589998925105,6.0,1.9245512000052258,,,,,,,,,,,,,,,4206,Moral,2025-02-27_12h36.41.983,MoralCondition_v2,2022.2.5,29.999355015067604,
13,0,13,0,3,0,3,0,,,,,,,,,,,,,,,,,,,,,,,,,,,,,,,,,,,,,,,,,,,,,,,,,,,,814.1191812999896,814.1191812999896,0.008657899976242334,0.11381589999655262,7.0,2.472868900047615,,,,,,,,,,,,,,,4206,Moral,2025-02-27_12h36.41.983,MoralCondition_v2,2022.2.5,29.999355015067604,
13,0,13,0,4,0,4,0,,,,,,,,,,,,,,,,,,,,,,,,,,,,,,,,,,,,,,,,,,,,,,,,,,,,816.6190681000007,816.6190681000007,0.007333599962294102,0.09799149999162182,5.0,2.2584625000017695,,,,,,,,,,,,,,,4206,Moral,2025-02-27_12h36.41.983,MoralCondition_v2,2022.2.5,29.999355015067604,
13,0,13,0,5,0,5,0,,,,,,,,,,,,,,,,,,,,,,,,,,,,,,,,,,,,,,,,,,,,,,,,,,,,818.9191267999704,818.9191267999704,0.007415700005367398,0.09777270001359284,6.0,1.9247986000264063,,,,,,,,,,,,,,,4206,Moral,2025-02-27_12h36.41.983,MoralCondition_v2,2022.2.5,29.999355015067604,
13,0,13,0,6,0,6,0,,,,,,,,,,,,,,,,,,,,,,,,,,,,,,,,,,,,,,,,,,,,,,,,,,,,820.8856170999934,820.8856170999934,0.006546699965838343,0.09941049996996298,7.0,1.660656000021845,,,,,,,,,,,,,,,4206,Moral,2025-02-27_12h36.41.983,MoralCondition_v2,2022.2.5,29.999355015067604,
13,0,13,0,,,,,,,,,,,,,,,,,,,,,,,,,,,,,,,,,,,,,,,,,,,,,,,,,,,,,,,,,,,,,,822.5860017999657,822.5860017999657,0.0007106999983079731,0.09932549996301532,1.0,2.0996174999745563,,,,,,,,,4206,Moral,2025-02-27_12h36.41.983,MoralCondition_v2,2022.2.5,29.999355015067604,
14,0,14,0,0,0,0,0,,,,,,,,,,,,,,,,,,,,,,824.7190252,0.0004399000317789614,0.09744009998394176,830.71897300001,6.030754600011278,830.9189894999727,830.9189894999727,0.09057950001442805,0.1975465000141412,6.030659300042316,837.0189975000103,837.0189975000103,837.0189975000103,0.08927280007628724,0.19755530008114874,842.7189351000125,842.9190645999624,6.030849000031594,6.130875500035472,848.918923499994,12.030753100058064,849.0522466999828,849.0522466999828,0.03083380009047687,0.13070810009958223,up,1.0253842999809422,850.1189240000094,4.269997589290142e-05,0.09789999999338761,856.1522652999847,856.1522652999847,0.026339299976825714,0.13141889998223633,6.0,3.7060237999539822,,,,,,,849.018876200018,849.018876200018,836.9189293999807,836.9189293999807,,,,,4206,Moral,2025-02-27_12h36.41.983,MoralCondition_v2,2022.2.5,29.999355015067604,
14,0,14,0,1,0,1,0,,,,,,,,,,,,,,,,,,,,,,,,,,,,,,,,,,,,,,,,,,,,,,,,,,,,859.9022644999786,859.9022644999786,0.009091300016734749,0.11479840002721176,5.0,4.0066063000122085,,,,,,,,,,,,,,,4206,Moral,2025-02-27_12h36.41.983,MoralCondition_v2,2022.2.5,29.999355015067604,
14,0,14,0,2,0,2,0,,,,,,,,,,,,,,,,,,,,,,,,,,,,,,,,,,,,,,,,,,,,,,,,,,,,863.9355520000099,863.9355520000099,0.006399500009138137,0.09908409998752177,6.0,2.793824599997606,,,,,,,,,,,,,,,4206,Moral,2025-02-27_12h36.41.983,MoralCondition_v2,2022.2.5,29.999355015067604,
14,0,14,0,3,0,3,0,,,,,,,,,,,,,,,,,,,,,,,,,,,,,,,,,,,,,,,,,,,,,,,,,,,,866.7687085999642,866.7687085999642,0.0072122999699786305,0.0979757999884896,6.0,1.5585004000458866,,,,,,,,,,,,,,,4206,Moral,2025-02-27_12h36.41.983,MoralCondition_v2,2022.2.5,29.999355015067604,
14,0,14,0,4,0,4,0,,,,,,,,,,,,,,,,,,,,,,,,,,,,,,,,,,,,,,,,,,,,,,,,,,,,868.3688174000126,868.3688174000126,0.006178200012072921,0.09943120001116768,1.0,2.027520400006324,,,,,,,,,,,,,,,4206,Moral,2025-02-27_12h36.41.983,MoralCondition_v2,2022.2.5,29.999355015067604,
14,0,14,0,5,0,5,0,,,,,,,,,,,,,,,,,,,,,,,,,,,,,,,,,,,,,,,,,,,,,,,,,,,,870.4355275999987,870.4355275999987,0.007134400017093867,0.09797709999838844,6.0,2.358343999949284,,,,,,,,,,,,,,,4206,Moral,2025-02-27_12h36.41.983,MoralCondition_v2,2022.2.5,29.999355015067604,
14,0,14,0,6,0,6,0,,,,,,,,,,,,,,,,,,,,,,,,,,,,,,,,,,,,,,,,,,,,,,,,,,,,872.8353570000036,872.8353570000036,0.007561499951407313,0.09816809999756515,7.0,2.7248771999729797,,,,,,,,,,,,,,,4206,Moral,2025-02-27_12h36.41.983,MoralCondition_v2,2022.2.5,29.999355015067604,
14,0,14,0,,,,,,,,,,,,,,,,,,,,,,,,,,,,,,,,,,,,,,,,,,,,,,,,,,,,,,,,,,,,,,875.6022610999644,875.6022610999644,0.001312499982304871,0.09740939998300746,2.0,5.1307724000071175,,,,,,,,,4206,Moral,2025-02-27_12h36.41.983,MoralCondition_v2,2022.2.5,29.999355015067604,
15,0,15,0,0,0,0,0,,,,,,,,,,,,,,,,,,,,,,880.7688130000024,0.00013830000534653664,0.09904150001239032,886.7687319999677,5.999056799977552,886.9353029999766,886.9353029999766,0.05469980003545061,0.16568310000002384,6.032327399996575,893.0689498999855,893.0689498999855,893.0689498999855,0.08830000006128103,0.19920530001400039,898.7686968999915,898.9357164999819,5.999405000067782,6.099055300059263,904.9353460000129,11.99900880001951,905.0687166000134,905.0687166000134,-0.00013049994595348835,0.09893350006313995,down,0.6246261000051163,905.7519911999698,4.060001811012626e-05,0.09794209996471182,911.7686703999643,911.7686703999643,0.025498899980448186,0.11472149996552616,6.0,4.390069000015501,,,,,,,905.0687166000134,905.0687166000134,892.935483600013,892.935483600013,6.099009099998511,,,12.098931200045627,4206,Moral,2025-02-27_12h36.41.983,MoralCondition_v2,2022.2.5,29.999355015067604,
15,0,15,0,1,0,1,0,,,,,,,,,,,,,,,,,,,,,,,,,,,,,,,,,,,,,,,,,,,,,,,,,,,,916.2018241999904,916.2018241999904,0.007485400012228638,0.09735629998613149,6.0,1.1579184000147507,,,,,,,,,,,,,,,4206,Moral,2025-02-27_12h36.41.983,MoralCondition_v2,2022.2.5,29.999355015067604,
15,0,15,0,2,0,2,0,,,,,,,,,,,,,,,,,,,,,,,,,,,,,,,,,,,,,,,,,,,,,,,,,,,,917.4188673999743,917.4188673999743,0.007829500013031065,0.11433389998273924,5.0,1.7406820000032894,,,,,,,,,,,,,,,4206,Moral,2025-02-27_12h36.41.983,MoralCondition_v2,2022.2.5,29.999355015067604,
15,0,15,0,3,0,3,0,,,,,,,,,,,,,,,,,,,,,,,,,,,,,,,,,,,,,,,,,,,,,,,,,,,,919.1850720999646,919.1850720999646,0.00739620003150776,0.09732210001675412,6.0,1.72417190001579,,,,,,,,,,,,,,,4206,Moral,2025-02-27_12h36.41.983,MoralCondition_v2,2022.2.5,29.999355015067604,
15,0,15,0,4,0,4,0,,,,,,,,,,,,,,,,,,,,,,,,,,,,,,,,,,,,,,,,,,,,,,,,,,,,920.9522053999826,920.9522053999826,0.008859099994879216,0.09735260001616552,1.0,1.5559973999625072,,,,,,,,,,,,,,,4206,Moral,2025-02-27_12h36.41.983,MoralCondition_v2,2022.2.5,29.999355015067604,
15,0,15,0,5,0,5,0,,,,,,,,,,,,,,,,,,,,,,,,,,,,,,,,,,,,,,,,,,,,,,,,,,,,922.551953200018,922.551953200018,0.006139200006145984,0.09926699998322874,7.0,1.6608990000095218,,,,,,,,,,,,,,,4206,Moral,2025-02-27_12h36.41.983,MoralCondition_v2,2022.2.5,29.999355015067604,
15,0,15,0,6,0,6,0,,,,,,,,,,,,,,,,,,,,,,,,,,,,,,,,,,,,,,,,,,,,,,,,,,,,924.2522653000196,924.2522653000196,0.007283899991307408,0.09846950002247468,7.0,0.5919065000489354,,,,,,,,,,,,,,,4206,Moral,2025-02-27_12h36.41.983,MoralCondition_v2,2022.2.5,29.999355015067604,
15,0,15,0,,,,,,,,,,,,,,,,,,,,,,,,,,,,,,,,,,,,,,,,,,,,,,,,,,,,,,,,,,,,,,924.8853483999847,924.8853483999847,0.0011375999893061817,0.09817000001203269,1.0,2.3980214000330307,,,,,,,,,4206,Moral,2025-02-27_12h36.41.983,MoralCondition_v2,2022.2.5,29.999355015067604,
16,0,16,0,0,0,0,0,,,,,,,,,,,,,,,,,,,,,,927.3185501999687,0.0004881999921053648,0.09732160001294687,933.3185005999985,6.0306465000030585,933.5017080999678,933.5017080999678,0.06735420000040904,0.18067979998886585,6.014189500012435,939.6018801999744,939.6018801999744,939.6018801999744,0.06831250002142042,0.18091460003051907,945.3018202999956,945.5018495999975,6.014000900031533,6.113918700022623,951.5018117,12.013972200045828,951.6351336999796,951.6351336999796,0.014078900043386966,0.11391440004808828,up,0.36243409995222464,952.0352735999622,4.020001506432891e-05,0.09788050001952797,958.0686558000161,958.0686558000161,0.025320100015960634,0.13130300003103912,6.0,2.7068722999538295,,,,,,,951.601764299965,951.601764299965,939.5018114999984,939.5018114999984,,,,,4206,Moral,2025-02-27_12h36.41.983,MoralCondition_v2,2022.2.5,29.999355015067604,
16,0,16,0,1,0,1,0,,,,,,,,,,,,,,,,,,,,,,,,,,,,,,,,,,,,,,,,,,,,,,,,,,,,960.8016893999884,960.8016893999884,0.006504399992991239,0.09918880002805963,1.0,2.6603866000077687,,,,,,,,,,,,,,,4206,Moral,2025-02-27_12h36.41.983,MoralCondition_v2,2022.2.5,29.999355015067604,
16,0,16,0,2,0,2,0,,,,,,,,,,,,,,,,,,,,,,,,,,,,,,,,,,,,,,,,,,,,,,,,,,,,963.5018665000098,963.5018665000098,0.006396599987056106,0.09913970000343397,1.0,2.6273498999653384,,,,,,,,,,,,,,,4206,Moral,2025-02-27_12h36.41.983,MoralCondition_v2,2022.2.5,29.999355015067604,
16,0,16,0,3,0,3,0,,,,,,,,,,,,,,,,,,,,,,,,,,,,,,,,,,,,,,,,,,,,,,,,,,,,966.1684835000196,966.1684835000196,0.006301700021140277,0.09925080003449693,1.0,0.7607562000048347,,,,,,,,,,,,,,,4206,Moral,2025-02-27_12h36.41.983,MoralCondition_v2,2022.2.5,29.999355015067604,
16,0,16,0,4,0,4,0,,,,,,,,,,,,,,,,,,,,,,,,,,,,,,,,,,,,,,,,,,,,,,,,,,,,966.9852503999718,966.9852503999718,0.007871000037994236,0.11408150003990158,7.0,1.8072771000443026,,,,,,,,,,,,,,,4206,Moral,2025-02-27_12h36.41.983,MoralCondition_v2,2022.2.5,29.999355015067604,
16,0,16,0,5,0,5,0,,,,,,,,,,,,,,,,,,,,,,,,,,,,,,,,,,,,,,,,,,,,,,,,,,,,968.8183964999625,968.8183964999625,0.009074600005988032,0.09923029999481514,6.0,1.6580676999874413,,,,,,,,,,,,,,,4206,Moral,2025-02-27_12h36.41.983,MoralCondition_v2,2022.2.5,29.999355015067604,
16,0,16,0,6,0,6,0,,,,,,,,,,,,,,,,,,,,,,,,,,,,,,,,,,,,,,,,,,,,,,,,,,,,970.5184090000112,970.5184090000112,0.007286900014150888,0.09782389999600127,4.0,2.024775800004136,,,,,,,,,,,,,,,4206,Moral,2025-02-27_12h36.41.983,MoralCondition_v2,2022.2.5,29.999355015067604,
16,0,16,0,,,,,,,,,,,,,,,,,,,,,,,,,,,,,,,,,,,,,,,,,,,,,,,,,,,,,,,,,,,,,,972.5850346999941,972.5850346999941,0.0012398000108078122,0.09772469999734312,7.0,3.864348199975211,,,,,,,,,4206,Moral,2025-02-27_12h36.41.983,MoralCondition_v2,2022.2.5,29.999355015067604,
17,0,17,0,0,0,0,0,,,,,,,,,,,,,,,,,,,,,,976.4851467999979,0.0003032999811694026,0.09720859996741638,982.4851526999846,6.030797399987932,982.6681675,982.6681675,0.06728170003043488,0.18051390000618994,6.013840600033291,988.7684551000129,988.7684551000129,988.7684551000129,0.06554160005180165,0.18066690006526187,994.4682817999856,994.6682639999781,6.013838400016539,6.113787000067532,1000.6682013999671,12.013775600062218,1000.8015610000002,1000.8015610000002,0.01403700007358566,0.11391450004884973,up,1.5481776000233367,1002.4017298999825,4.7900015488266945e-05,0.09777510003186762,1008.4015190000064,1008.4015190000064,0.007591500005219132,0.0978832000400871,6.0,3.4245439000078477,,,,,,,1000.7682218999835,1000.7682218999835,988.6682759000105,988.6682759000105,,1008.4015190000064,,,4206,Moral,2025-02-27_12h36.41.983,MoralCondition_v2,2022.2.5,29.999355015067604,
17,0,17,0,1,0,1,0,,,,,,,,,,,,,,,,,,,,,,,,,,,,,,,,,,,,,,,,,,,,,,,,,,,,1011.8680153000169,1011.8680153000169,0.006570599973201752,0.09940349997486919,7.0,1.6270331999985501,,,,,,,,,,,,,,,4206,Moral,2025-02-27_12h36.41.983,MoralCondition_v2,2022.2.5,29.999355015067604,
17,0,17,0,2,0,2,0,,,,,,,,,,,,,,,,,,,,,,,,,,,,,,,,,,,,,,,,,,,,,,,,,,,,1013.5347491999855,1013.5347491999855,0.007854400028008968,0.09793630003696308,6.0,1.5247241000179201,,,,,,,,,,,,,,,4206,Moral,2025-02-27_12h36.41.983,MoralCondition_v2,2022.2.5,29.999355015067604,
17,0,17,0,3,0,3,0,,,,,,,,,,,,,,,,,,,,,,,,,,,,,,,,,,,,,,,,,,,,,,,,,,,,1015.1014149999828,1015.1014149999828,0.007462400011718273,0.09808600001269951,1.0,1.9581045999657363,,,,,,,,,,,,,,,4206,Moral,2025-02-27_12h36.41.983,MoralCondition_v2,2022.2.5,29.999355015067604,
17,0,17,0,4,0,4,0,,,,,,,,,,,,,,,,,,,,,,,,,,,,,,,,,,,,,,,,,,,,,,,,,,,,1017.1016249000095,1017.1016249000095,0.0063461000099778175,0.09898489998886362,1.0,0.8266565999947488,,,,,,,,,,,,,,,4206,Moral,2025-02-27_12h36.41.983,MoralCondition_v2,2022.2.5,29.999355015067604,
17,0,17,0,5,0,5,0,,,,,,,,,,,,,,,,,,,,,,,,,,,,,,,,,,,,,,,,,,,,,,,,,,,,1017.9680409000139,1017.9680409000139,0.007554999960120767,0.0981111999717541,1.0,0.6914525000029244,,,,,,,,,,,,,,,4206,Moral,2025-02-27_12h36.41.983,MoralCondition_v2,2022.2.5,29.999355015067604,
17,0,17,0,6,0,6,0,,,,,,,,,,,,,,,,,,,,,,,,,,,,,,,,,,,,,,,,,,,,,,,,,,,,1018.70152339997,1018.70152339997,0.006092600000556558,0.0991673999815248,2.0,2.1949495999724604,,,,,,,,,,,,,,,4206,Moral,2025-02-27_12h36.41.983,MoralCondition_v2,2022.2.5,29.999355015067604,
17,0,17,0,,,,,,,,,,,,,,,,,,,,,,,,,,,,,,,,,,,,,,,,,,,,,,,,,,,,,,,,,,,,,,1020.934746199986,1020.934746199986,0.0014321000198833644,0.09778710000682622,7.0,3.4309083000407554,,,,,,,,,4206,Moral,2025-02-27_12h36.41.983,MoralCondition_v2,2022.2.5,29.999355015067604,
18,0,18,0,0,0,0,0,,,,,,,,,,,,,,,,,,,,,,1024.4019833999919,0.0001336000277660787,0.09933120000641793,1030.418075499998,6.0158830000436865,1030.5849850999657,1030.5849850999657,0.07432480005081743,0.18270920001668856,6.015842400025576,1036.6848619999946,1036.6848619999946,1036.6848619999946,0.07217760005732998,0.18275110004469752,1042.3847086000023,1042.58471309999,6.015865300083533,6.116051100078039,1048.584702299966,12.015873100084718,1048.718048300012,1048.718048300012,0.015983400109689683,0.11591160006355494,up,0.7196953999809921,1049.5013518999913,7.219996768981218e-05,0.09797140001319349,1055.5181657999638,1055.5181657999638,0.008322999987285584,0.11451629997463897,6.0,3.9407071999739856,,,,,,,1048.6846744999639,1048.6846744999639,1036.5847023999668,1036.5847023999668,,1055.5181657999638,,,4206,Moral,2025-02-27_12h36.41.983,MoralCondition_v2,2022.2.5,29.999355015067604,
18,0,18,0,1,0,1,0,,,,,,,,,,,,,,,,,,,,,,,,,,,,,,,,,,,,,,,,,,,,,,,,,,,,1059.5012829999905,1059.5012829999905,0.009619400021620095,0.11415939999278635,6.0,1.4388310000067577,,,,,,,,,,,,,,,4206,Moral,2025-02-27_12h36.41.983,MoralCondition_v2,2022.2.5,29.999355015067604,
18,0,18,0,2,0,2,0,,,,,,,,,,,,,,,,,,,,,,,,,,,,,,,,,,,,,,,,,,,,,,,,,,,,1060.9680395000032,1060.9680395000032,0.006864099996164441,0.09737729997141287,5.0,2.858341899991501,,,,,,,,,,,,,,,4206,Moral,2025-02-27_12h36.41.983,MoralCondition_v2,2022.2.5,29.999355015067604,
18,0,18,0,3,0,3,0,,,,,,,,,,,,,,,,,,,,,,,,,,,,,,,,,,,,,,,,,,,,,,,,,,,,1063.8679439999978,1063.8679439999978,0.007389300037175417,0.0980252000153996,6.0,1.8252235000254586,,,,,,,,,,,,,,,4206,Moral,2025-02-27_12h36.41.983,MoralCondition_v2,2022.2.5,29.999355015067604,
18,0,18,0,4,0,4,0,,,,,,,,,,,,,,,,,,,,,,,,,,,,,,,,,,,,,,,,,,,,,,,,,,,,1065.734708599979,1065.734708599979,0.006555900035891682,0.09939869999652728,5.0,2.660326300014276,,,,,,,,,,,,,,,4206,Moral,2025-02-27_12h36.41.983,MoralCondition_v2,2022.2.5,29.999355015067604,
18,0,18,0,5,0,5,0,,,,,,,,,,,,,,,,,,,,,,,,,,,,,,,,,,,,,,,,,,,,,,,,,,,,1068.43460410001,1068.43460410001,0.006774700013920665,0.09942640003282577,4.0,3.7268792999675497,,,,,,,,,,,,,,,4206,Moral,2025-02-27_12h36.41.983,MoralCondition_v2,2022.2.5,29.999355015067604,
18,0,18,0,6,0,6,0,,,,,,,,,,,,,,,,,,,,,,,,,,,,,,,,,,,,,,,,,,,,,,,,,,,,1072.2181157000014,1072.2181157000014,0.007914500019978732,0.1142637999728322,2.0,3.4739726999541745,,,,,,,,,,,,,,,4206,Moral,2025-02-27_12h36.41.983,MoralCondition_v2,2022.2.5,29.999355015067604,
18,0,18,0,,,,,,,,,,,,,,,,,,,,,,,,,,,,,,,,,,,,,,,,,,,,,,,,,,,,,,,,,,,,,,1075.7181793999625,1075.7181793999625,0.0013123999815434217,0.09788100002333522,3.0,6.231083300022874,,,,,,,,,4206,Moral,2025-02-27_12h36.41.983,MoralCondition_v2,2022.2.5,29.999355015067604,
19,0,19,0,0,0,0,0,,,,,,,,,,,,,,,,,,,,,,1081.9847759999684,0.0003969999961555004,0.09733399999095127,1088.001162200002,6.014012600004207,1088.167713599978,1088.167713599978,0.07575330004328862,0.18054460000712425,6.01384870003676,1094.2678650000016,1094.2678650000016,1094.2678650000016,0.07525110006099567,0.18075090006459504,1099.9679876000155,1100.167906399991,6.0140193000552244,6.113819300022442,1106.1677647000179,12.01389070006553,1106.3010979999672,1106.3010979999672,0.01397620007628575,0.11386090004816651,down,0.544371800031513,1106.9011691999622,4.600000102072954e-05,0.09793520002858713,1112.9177361999755,1112.9177361999755,0.008971500035841018,0.11469170002965257,7.0,5.006648300040979,,,,,,,1106.2677216000156,1106.2677216000156,1094.1680203999858,1094.1680203999858,,1112.9177361999755,,,4206,Moral,2025-02-27_12h36.41.983,MoralCondition_v2,2022.2.5,29.999355015067604,
19,0,19,0,1,0,1,0,,,,,,,,,,,,,,,,,,,,,,,,,,,,,,,,,,,,,,,,,,,,,,,,,,,,1117.951152099995,1117.951152099995,0.00747469998896122,0.0976100999978371,5.0,4.4246605999651365,,,,,,,,,,,,,,,4206,Moral,2025-02-27_12h36.41.983,MoralCondition_v2,2022.2.5,29.999355015067604,
19,0,19,0,2,0,2,0,,,,,,,,,,,,,,,,,,,,,,,,,,,,,,,,,,,,,,,,,,,,,,,,,,,,1122.4345022999914,1122.4345022999914,0.008540400012861937,0.11414840002544224,5.0,2.5400678000296466,,,,,,,,,,,,,,,4206,Moral,2025-02-27_12h36.41.983,MoralCondition_v2,2022.2.5,29.999355015067604,
19,0,19,0,3,0,3,0,,,,,,,,,,,,,,,,,,,,,,,,,,,,,,,,,,,,,,,,,,,,,,,,,,,,1125.0008391999872,1125.0008391999872,0.0071850999956950545,0.09924349997891113,6.0,1.7599027999676764,,,,,,,,,,,,,,,4206,Moral,2025-02-27_12h36.41.983,MoralCondition_v2,2022.2.5,29.999355015067604,
19,0,19,0,4,0,4,0,,,,,,,,,,,,,,,,,,,,,,,,,,,,,,,,,,,,,,,,,,,,,,,,,,,,1126.8007807999966,1126.8007807999966,0.00984369998332113,0.09917329996824265,1.0,1.9573321999632753,,,,,,,,,,,,,,,4206,Moral,2025-02-27_12h36.41.983,MoralCondition_v2,2022.2.5,29.999355015067604,
19,0,19,0,5,0,5,0,,,,,,,,,,,,,,,,,,,,,,,,,,,,,,,,,,,,,,,,,,,,,,,,,,,,1128.8008123000036,1128.8008123000036,0.008730400004424155,0.09924160002265126,6.0,2.091864100017119,,,,,,,,,,,,,,,4206,Moral,2025-02-27_12h36.41.983,MoralCondition_v2,2022.2.5,29.999355015067604,
19,0,19,0,6,0,6,0,,,,,,,,,,,,,,,,,,,,,,,,,,,,,,,,,,,,,,,,,,,,,,,,,,,,1130.9341950999806,1130.9341950999806,0.007919499999843538,0.09781459998339415,7.0,2.324430399981793,,,,,,,,,,,,,,,4206,Moral,2025-02-27_12h36.41.983,MoralCondition_v2,2022.2.5,29.999355015067604,
19,0,19,0,,,,,,,,,,,,,,,,,,,,,,,,,,,,,,,,,,,,,,,,,,,,,,,,,,,,,,,,,,,,,,1133.3008661000058,1133.3008661000058,0.0011523000430315733,0.09840270003769547,1.0,2.2651126999990083,,,,,,,,,4206,Moral,2025-02-27_12h36.41.983,MoralCondition_v2,2022.2.5,29.999355015067604,
