loop.thisRepN,loop.thisTrialN,loop.thisN,loop.thisIndex,evaluate_all_emotions.thisRepN,evaluate_all_emotions.thisTrialN,evaluate_all_emotions.thisN,evaluate_all_emotions.thisIndex,sync_beep_1.started,p_port.started,p_port.stopped,sync_beep_1.stopped,sync_beep_2.started,sync_beep_2.stopped,sync_beep_3.started,sync_beep_3.stopped,sync_beep_4.started,sync_beep_4.stopped,baseline.started,p_port_2.started,p_port_2.stopped,baseline.stopped,p_port_3.started,p_port_3.stopped,Game_Start_Text.started,p_port_4.started,p_port_4.stopped,key_resp.started,key_resp.keys,key_resp.rt,fixation_cross.started,p_port_5.started,p_port_5.stopped,fixation_cross.stopped,p_port_6.started,player_image_intro.started,player_name_intro.started,p_port_7.started,p_port_7.stopped,p_port_8.started,player_image_offer.started,player_name_offer.started,proposed_split.started,p_port_9.started,p_port_9.stopped,proposed_split.stopped,accept_reject.started,p_port_15.started,p_port_15.stopped,accept_reject.stopped,p_port_10.started,arrow_instructions.started,offer_choice.started,p_port_11.started,p_port_11.stopped,offer_choice.keys,offer_choice.rt,Instructions_Affinity_Score.started,p_port_12.started,p_port_12.stopped,Instructions_Affinity_Score.stopped,Emotion_Image.started,AffinityScore.started,p_port_13.started,p_port_13.stopped,AffinityScore.response,AffinityScore.rt,Instruction.started,Moral_Disgust_Score.started,p_port_14.started,p_port_14.stopped,Moral_Disgust_Score.response,Moral_Disgust_Score.rt,p_port_6.stopped,player_image_offer.stopped,player_name_offer.stopped,player_image_intro.stopped,player_name_intro.stopped,p_port_8.stopped,p_port_10.stopped,participant,session,date,expName,psychopyVersion,frameRate,
,,,,,,,,29.387100492045285,0.0009123999625444412,0.11537500098347664,29.719355199486017,29.9858508002013,30.285914599895477,30.602652799710633,30.919253800064325,31.169468300789596,31.502545399591327,31.502545399591327,0.03218560107052326,0.1322563011199236,46.50271479971707,14.999013500288129,15.098941400647163,46.60263670049608,-0.0002814978361129761,0.0990345012396574,47.10261690057814,space,2.9562366977334023,,,,,,,,,,,,,,,,,,,,,,,,,,,,,,,,,,,,,,,,,,,,,,,,,,,4417,Moral,2024-07-15_11h27.03.111,MoralCondition_v2,2022.2.5,30.0165992568619,
0,0,0,0,0,0,0,0,,,,,,,,,,,,,,,,,,,,,,,50.1195254009217,0.018128199502825737,0.11534970067441463,56.11934299953282,6.015148999169469,56.36917310021818,56.36917310021818,0.12303150072693825,0.2652634996920824,6.031859900802374,62.436011999845505,62.436011999845505,62.436011999845505,0.09786930121481419,0.23180600069463253,68.13591660000384,68.30270140059292,6.031930301338434,6.132072100415826,74.30280680023134,12.032083800062537,74.41895359940827,74.41895359940827,0.03167640045285225,0.11511410027742386,up,2.8950892984867096,77.369389699772,7.42003321647644e-05,0.09533379971981049,83.40267189964652,83.40267189964652,83.40267189964652,0.014898400753736496,0.12838800065219402,1.0,14.28146650083363,,,,,,,,,,,,,,4417,Moral,2024-07-15_11h27.03.111,MoralCondition_v2,2022.2.5,30.0165992568619,
0,0,0,0,1,0,1,0,,,,,,,,,,,,,,,,,,,,,,,,,,,,,,,,,,,,,,,,,,,,,,,,,,,,,,97.71949890069664,97.71949890069664,0.009064000099897385,0.114435700699687,1.0,5.639838999137282,,,,,,,,,,,,,,4417,Moral,2024-07-15_11h27.03.111,MoralCondition_v2,2022.2.5,30.0165992568619,
0,0,0,0,2,0,2,0,,,,,,,,,,,,,,,,,,,,,,,,,,,,,,,,,,,,,,,,,,,,,,,,,,,,,,103.38584610074759,103.38584610074759,0.008821399882435799,0.09921589866280556,1.0,2.7914298996329308,,,,,,,,,,,,,,4417,Moral,2024-07-15_11h27.03.111,MoralCondition_v2,2022.2.5,30.0165992568619,
0,0,0,0,3,0,3,0,,,,,,,,,,,,,,,,,,,,,,,,,,,,,,,,,,,,,,,,,,,,,,,,,,,,,,106.23622590117157,106.23622590117157,0.009603101760149002,0.11558240093290806,1.0,0.9071530010551214,,,,,,,,,,,,,,4417,Moral,2024-07-15_11h27.03.111,MoralCondition_v2,2022.2.5,30.0165992568619,
0,0,0,0,4,0,4,0,,,,,,,,,,,,,,,,,,,,,,,,,,,,,,,,,,,,,,,,,,,,,,,,,,,,,,107.16920830123127,107.16920830123127,0.00894940085709095,0.0992600005120039,1.0,0.9580662008374929,,,,,,,,,,,,,,4417,Moral,2024-07-15_11h27.03.111,MoralCondition_v2,2022.2.5,30.0165992568619,
0,0,0,0,5,0,5,0,,,,,,,,,,,,,,,,,,,,,,,,,,,,,,,,,,,,,,,,,,,,,,,,,,,,,,108.16930180042982,108.16930180042982,0.00906440056860447,0.09924530051648617,6.0,5.8579452987760305,,,,,,,,,,,,,,4417,Moral,2024-07-15_11h27.03.111,MoralCondition_v2,2022.2.5,30.0165992568619,
0,0,0,0,6,0,6,0,,,,,,,,,,,,,,,,,,,,,,,,,,,,,,,,,,,,,,,,,,,,,,,,,,,,,,114.08590169996023,114.08590169996023,0.011267300695180893,0.11429929919540882,1.0,6.0374454986304045,,,,,,,,,,,,,,4417,Moral,2024-07-15_11h27.03.111,MoralCondition_v2,2022.2.5,30.0165992568619,
0,0,0,0,,,,,,,,,,,,,,,,,,,,,,,,,,,,,,,,,,,,,,,,,,,,,,,,,,,,,,,,,,,,,,,,120.15288550034165,120.15288550034165,0.0010925009846687317,0.09882090054452419,6.0,7.864955101162195,,,,,,,,4417,Moral,2024-07-15_11h27.03.111,MoralCondition_v2,2022.2.5,30.0165992568619,
1,0,1,0,0,0,0,0,,,,,,,,,,,,,,,,,,,,,,,128.05237230099738,9.809993207454681e-05,0.09900099970400333,134.0524288006127,6.015874000266194,134.3690323997289,134.3690323997289,0.21429939940571785,0.316159900277853,6.016188999637961,140.33599060028791,140.33599060028791,140.33599060028791,0.07043890096247196,0.18269960023462772,146.03600810095668,146.23594910092652,6.016256699338555,6.115971799939871,152.23594520054758,12.01606209948659,152.36930559948087,152.36930559948087,0.01620050147175789,0.11609929986298084,up,1.8804663997143507,154.3026269003749,5.8300793170928955e-05,0.0978728998452425,,160.33596649952233,160.33596649952233,0.028898000717163086,0.13114050030708313,1.0,3.836717300117016,,,,,,,6.09928959980607,152.33595450036228,152.33595450036228,,,,,4417,Moral,2024-07-15_11h27.03.111,MoralCondition_v2,2022.2.5,30.0165992568619,
1,0,1,0,1,0,1,0,,,,,,,,,,,,,,,,,,,,,,,,,,,,,,,,,,,,,,,,,,,,,,,,,,,,,,164.21926200017333,164.21926200017333,0.007886899635195732,0.11444279924035072,1.0,1.0742311999201775,,,,,,,,,,,,,,4417,Moral,2024-07-15_11h27.03.111,MoralCondition_v2,2022.2.5,30.0165992568619,
1,0,1,0,2,0,2,0,,,,,,,,,,,,,,,,,,,,,,,,,,,,,,,,,,,,,,,,,,,,,,,,,,,,,,165.31942580081522,165.31942580081522,0.007632998749613762,0.09910019859671593,1.0,1.225839899852872,,,,,,,,,,,,,,4417,Moral,2024-07-15_11h27.03.111,MoralCondition_v2,2022.2.5,30.0165992568619,
1,0,1,0,3,0,3,0,,,,,,,,,,,,,,,,,,,,,,,,,,,,,,,,,,,,,,,,,,,,,,,,,,,,,,166.58578270114958,166.58578270114958,0.006875200197100639,0.0983377005904913,1.0,4.5925060994923115,,,,,,,,,,,,,,4417,Moral,2024-07-15_11h27.03.111,MoralCondition_v2,2022.2.5,30.0165992568619,
1,0,1,0,4,0,4,0,,,,,,,,,,,,,,,,,,,,,,,,,,,,,,,,,,,,,,,,,,,,,,,,,,,,,,171.2194306012243,171.2194306012243,0.007017999887466431,0.09798280149698257,1.0,1.9920655004680157,,,,,,,,,,,,,,4417,Moral,2024-07-15_11h27.03.111,MoralCondition_v2,2022.2.5,30.0165992568619,
1,0,1,0,5,0,5,0,,,,,,,,,,,,,,,,,,,,,,,,,,,,,,,,,,,,,,,,,,,,,,,,,,,,,,173.2525443006307,173.2525443006307,0.007460800930857658,0.09794919937849045,6.0,4.124915899708867,,,,,,,,,,,,,,4417,Moral,2024-07-15_11h27.03.111,MoralCondition_v2,2022.2.5,30.0165992568619,
1,0,1,0,6,0,6,0,,,,,,,,,,,,,,,,,,,,,,,,,,,,,,,,,,,,,,,,,,,,,,,,,,,,,,177.41947579942644,177.41947579942644,0.00801829993724823,0.09756940044462681,1.0,3.6907295007258654,,,,,,,,,,,,,,4417,Moral,2024-07-15_11h27.03.111,MoralCondition_v2,2022.2.5,30.0165992568619,
1,0,1,0,,,,,,,,,,,,,,,,,,,,,,,,,,,,,,,,,,,,,,,,,,,,,,,,,,,,,,,,,,,,,,,,181.152926299721,181.152926299721,0.0007036998867988586,0.098776800557971,6.0,3.499336700886488,,,,,,,,4417,Moral,2024-07-15_11h27.03.111,MoralCondition_v2,2022.2.5,30.0165992568619,
2,0,2,0,0,0,0,0,,,,,,,,,,,,,,,,,,,,,,,184.6862927004695,0.00015999935567378998,0.09911809861660004,190.6693990007043,5.999045999720693,190.90286049991846,190.90286049991846,0.10564590059220791,0.21576969884335995,6.015736300498247,196.96911489963531,196.96911489963531,196.96911489963531,0.07498989999294281,0.1825553998351097,202.6693498995155,202.8693709000945,6.01587750017643,6.115770200267434,208.86929409950972,12.015804199501872,209.00262230075896,209.00262230075896,0.015960199758410454,0.11569759994745255,up,1.8875036984682083,210.95263330079615,4.830025136470795e-05,0.09781680069863796,216.9525838997215,216.9525838997215,216.9525838997215,0.007732199504971504,0.09794159978628159,1.0,3.024388499557972,,,,,,,6.082260899245739,208.96926620043814,208.96926620043814,,,,,4417,Moral,2024-07-15_11h27.03.111,MoralCondition_v2,2022.2.5,30.0165992568619,
2,0,2,0,1,0,1,0,,,,,,,,,,,,,,,,,,,,,,,,,,,,,,,,,,,,,,,,,,,,,,,,,,,,,,220.03626799955964,220.03626799955964,0.00754069909453392,0.11401929892599583,1.0,1.0742957014590502,,,,,,,,,,,,,,4417,Moral,2024-07-15_11h27.03.111,MoralCondition_v2,2022.2.5,30.0165992568619,
2,0,2,0,2,0,2,0,,,,,,,,,,,,,,,,,,,,,,,,,,,,,,,,,,,,,,,,,,,,,,,,,,,,,,221.15283450111747,221.15283450111747,0.007923800498247147,0.11391200125217438,1.0,1.6739862989634275,,,,,,,,,,,,,,4417,Moral,2024-07-15_11h27.03.111,MoralCondition_v2,2022.2.5,30.0165992568619,
2,0,2,0,3,0,3,0,,,,,,,,,,,,,,,,,,,,,,,,,,,,,,,,,,,,,,,,,,,,,,,,,,,,,,222.85268389992416,222.85268389992416,0.006546098738908768,0.09913729876279831,1.0,1.4935867991298437,,,,,,,,,,,,,,4417,Moral,2024-07-15_11h27.03.111,MoralCondition_v2,2022.2.5,30.0165992568619,
2,0,2,0,4,0,4,0,,,,,,,,,,,,,,,,,,,,,,,,,,,,,,,,,,,,,,,,,,,,,,,,,,,,,,224.3860392011702,224.3860392011702,0.0068161990493535995,0.09930899925529957,6.0,3.0934819988906384,,,,,,,,,,,,,,4417,Moral,2024-07-15_11h27.03.111,MoralCondition_v2,2022.2.5,30.0165992568619,
2,0,2,0,5,0,5,0,,,,,,,,,,,,,,,,,,,,,,,,,,,,,,,,,,,,,,,,,,,,,,,,,,,,,,227.5193745009601,227.5193745009601,0.008624300360679626,0.09731039963662624,1.0,5.156372498720884,,,,,,,,,,,,,,4417,Moral,2024-07-15_11h27.03.111,MoralCondition_v2,2022.2.5,30.0165992568619,
2,0,2,0,6,0,6,0,,,,,,,,,,,,,,,,,,,,,,,,,,,,,,,,,,,,,,,,,,,,,,,,,,,,,,232.73626399971545,232.73626399971545,0.00841750018298626,0.11433660052716732,1.0,1.5736434999853373,,,,,,,,,,,,,,4417,Moral,2024-07-15_11h27.03.111,MoralCondition_v2,2022.2.5,30.0165992568619,
2,0,2,0,,,,,,,,,,,,,,,,,,,,,,,,,,,,,,,,,,,,,,,,,,,,,,,,,,,,,,,,,,,,,,,,234.33600999973714,234.33600999973714,0.0014059990644454956,0.09791269898414612,6.0,3.3976007010787725,,,,,,,,4417,Moral,2024-07-15_11h27.03.111,MoralCondition_v2,2022.2.5,30.0165992568619,
3,0,3,0,0,0,0,0,,,,,,,,,,,,,,,,,,,,,,,237.7693540994078,0.00015139952301979065,0.09949949942529202,243.78600060008466,6.01593709923327,243.95267939940095,243.95267939940095,0.07551340013742447,0.18259570002555847,6.015928700566292,250.0528618004173,250.0528618004173,250.0528618004173,0.07312029972672462,0.18289870023727417,255.75277030095458,255.95261779986322,6.01598409935832,6.116119500249624,261.95260949991643,12.016013400629163,262.08600080013275,262.08600080013275,0.016364701092243195,0.11586880125105381,up,1.4196651987731457,263.5526273008436,4.710070788860321e-05,0.09828400053083897,269.569383000955,269.569383000955,269.569383000955,0.011133700609207153,0.11478560045361519,2.0,8.537952799350023,,,,,,,,262.05264759995043,262.05264759995043,249.95261050015688,249.95261050015688,,,4417,Moral,2024-07-15_11h27.03.111,MoralCondition_v2,2022.2.5,30.0165992568619,
3,0,3,0,1,0,1,0,,,,,,,,,,,,,,,,,,,,,,,,,,,,,,,,,,,,,,,,,,,,,,,,,,,,,,278.1360376998782,278.1360376998782,0.00766499899327755,0.09742349945008755,1.0,2.624006200581789,,,,,,,,,,,,,,4417,Moral,2024-07-15_11h27.03.111,MoralCondition_v2,2022.2.5,30.0165992568619,
3,0,3,0,2,0,2,0,,,,,,,,,,,,,,,,,,,,,,,,,,,,,,,,,,,,,,,,,,,,,,,,,,,,,,280.8029018007219,280.8029018007219,0.007799200713634491,0.09777060151100159,5.0,3.4243326988071203,,,,,,,,,,,,,,4417,Moral,2024-07-15_11h27.03.111,MoralCondition_v2,2022.2.5,30.0165992568619,
3,0,3,0,3,0,3,0,,,,,,,,,,,,,,,,,,,,,,,,,,,,,,,,,,,,,,,,,,,,,,,,,,,,,,284.26919870078564,284.26919870078564,0.006429199129343033,0.09872669912874699,1.0,3.1933736987411976,,,,,,,,,,,,,,4417,Moral,2024-07-15_11h27.03.111,MoralCondition_v2,2022.2.5,30.0165992568619,
3,0,3,0,4,0,4,0,,,,,,,,,,,,,,,,,,,,,,,,,,,,,,,,,,,,,,,,,,,,,,,,,,,,,,287.50265400111675,287.50265400111675,0.0069696009159088135,0.09909499995410442,2.0,3.1278802007436752,,,,,,,,,,,,,,4417,Moral,2024-07-15_11h27.03.111,MoralCondition_v2,2022.2.5,30.0165992568619,
3,0,3,0,5,0,5,0,,,,,,,,,,,,,,,,,,,,,,,,,,,,,,,,,,,,,,,,,,,,,,,,,,,,,,290.6861533001065,290.6861533001065,0.008586600422859192,0.11498199962079525,2.0,1.7739161010831594,,,,,,,,,,,,,,4417,Moral,2024-07-15_11h27.03.111,MoralCondition_v2,2022.2.5,30.0165992568619,
3,0,3,0,6,0,6,0,,,,,,,,,,,,,,,,,,,,,,,,,,,,,,,,,,,,,,,,,,,,,,,,,,,,,,292.4862115997821,292.4862115997821,0.006888600066304207,0.09909160062670708,3.0,5.593343898653984,,,,,,,,,,,,,,4417,Moral,2024-07-15_11h27.03.111,MoralCondition_v2,2022.2.5,30.0165992568619,
3,0,3,0,,,,,,,,,,,,,,,,,,,,,,,,,,,,,,,,,,,,,,,,,,,,,,,,,,,,,,,,,,,,,,,,298.119507400319,298.119507400319,0.0007415004074573517,0.09890510141849518,5.0,6.099595598876476,,,,,,,,4417,Moral,2024-07-15_11h27.03.111,MoralCondition_v2,2022.2.5,30.0165992568619,
4,0,4,0,0,0,0,0,,,,,,,,,,,,,,,,,,,,,,,304.2527872994542,0.00028249993920326233,0.09852319955825806,310.26925859972835,6.015252500772476,310.4694702010602,310.4694702010602,0.1107133999466896,0.2152054999023676,6.015514399856329,316.53614170104265,316.53614170104265,316.53614170104265,0.07460610009729862,0.18202310055494308,322.23626150004566,322.4359416998923,6.015321699902415,6.115295100957155,328.4359722994268,12.01523020118475,328.5693078003824,328.5693078003824,0.015342000871896744,0.11533880047500134,up,2.3361734990030527,330.96925590001047,4.879944026470184e-05,0.09796079993247986,336.9859525002539,336.9859525002539,336.9859525002539,0.011412398889660835,0.11461330018937588,1.0,4.670899400487542,,,,,,,,328.5359543003142,328.5359543003142,,,,,4417,Moral,2024-07-15_11h27.03.111,MoralCondition_v2,2022.2.5,30.0165992568619,
4,0,4,0,1,0,1,0,,,,,,,,,,,,,,,,,,,,,,,,,,,,,,,,,,,,,,,,,,,,,,,,,,,,,,341.6858815010637,341.6858815010637,0.007070699706673622,0.09907319955527782,1.0,1.7595307994633913,,,,,,,,,,,,,,4417,Moral,2024-07-15_11h27.03.111,MoralCondition_v2,2022.2.5,30.0165992568619,
4,0,4,0,2,0,2,0,,,,,,,,,,,,,,,,,,,,,,,,,,,,,,,,,,,,,,,,,,,,,,,,,,,,,,343.50261560082436,343.50261560082436,0.009412100538611412,0.11421220004558563,1.0,1.9726164992898703,,,,,,,,,,,,,,4417,Moral,2024-07-15_11h27.03.111,MoralCondition_v2,2022.2.5,30.0165992568619,
4,0,4,0,3,0,3,0,,,,,,,,,,,,,,,,,,,,,,,,,,,,,,,,,,,,,,,,,,,,,,,,,,,,,,345.50250570103526,345.50250570103526,0.008164500817656517,0.0971096009016037,6.0,2.3902800995856524,,,,,,,,,,,,,,4417,Moral,2024-07-15_11h27.03.111,MoralCondition_v2,2022.2.5,30.0165992568619,
4,0,4,0,4,0,4,0,,,,,,,,,,,,,,,,,,,,,,,,,,,,,,,,,,,,,,,,,,,,,,,,,,,,,,347.93595029972494,347.93595029972494,0.007779298350214958,0.09841199964284897,1.0,2.6583158001303673,,,,,,,,,,,,,,4417,Moral,2024-07-15_11h27.03.111,MoralCondition_v2,2022.2.5,30.0165992568619,
4,0,4,0,5,0,5,0,,,,,,,,,,,,,,,,,,,,,,,,,,,,,,,,,,,,,,,,,,,,,,,,,,,,,,350.65281020104885,350.65281020104885,0.007749298587441444,0.1142267994582653,1.0,1.041194399818778,,,,,,,,,,,,,,4417,Moral,2024-07-15_11h27.03.111,MoralCondition_v2,2022.2.5,30.0165992568619,
4,0,4,0,6,0,6,0,,,,,,,,,,,,,,,,,,,,,,,,,,,,,,,,,,,,,,,,,,,,,,,,,,,,,,351.73626060038805,351.73626060038805,0.008181801065802574,0.11431530117988586,1.0,1.5072226002812386,,,,,,,,,,,,,,4417,Moral,2024-07-15_11h27.03.111,MoralCondition_v2,2022.2.5,30.0165992568619,
4,0,4,0,,,,,,,,,,,,,,,,,,,,,,,,,,,,,,,,,,,,,,,,,,,,,,,,,,,,,,,,,,,,,,,,353.26951009966433,353.26951009966433,0.0008386000990867615,0.09892980009317398,6.0,3.832802999764681,,,,,,,,4417,Moral,2024-07-15_11h27.03.111,MoralCondition_v2,2022.2.5,30.0165992568619,
5,0,5,0,0,0,0,0,,,,,,,,,,,,,,,,,,,,,,,357.13615150004625,0.0001501999795436859,0.0994741003960371,363.13594250008464,5.9991469997912645,363.36930580064654,363.36930580064654,0.12480650097131729,0.23251410014927387,5.999171299859881,369.4356325995177,369.4356325995177,369.4356325995177,0.09488610178232193,0.1991174016147852,375.13588660024107,375.30259790085256,5.999169401824474,6.099155001342297,381.302575699985,11.99922020174563,381.4359095003456,381.4359095003456,0.00010210089385509491,0.0990890022367239,up,0.7900488991290331,382.2692591995001,2.7999281883239746e-05,0.09847220033407211,,388.30289000086486,388.30289000086486,0.02641339972615242,0.13201740011572838,1.0,3.9399862997233868,,,,,,,6.099254000931978,381.4359095003456,381.4359095003456,,,6.099164700135589,12.099148001521826,4417,Moral,2024-07-15_11h27.03.111,MoralCondition_v2,2022.2.5,30.0165992568619,
5,0,5,0,1,0,1,0,,,,,,,,,,,,,,,,,,,,,,,,,,,,,,,,,,,,,,,,,,,,,,,,,,,,,,392.2692216001451,392.2692216001451,0.007160700857639313,0.09906410053372383,1.0,1.0928566008806229,,,,,,,,,,,,,,4417,Moral,2024-07-15_11h27.03.111,MoralCondition_v2,2022.2.5,30.0165992568619,
5,0,5,0,2,0,2,0,,,,,,,,,,,,,,,,,,,,,,,,,,,,,,,,,,,,,,,,,,,,,,,,,,,,,,393.4195080008358,393.4195080008358,0.008134899660944939,0.11444109864532948,1.0,1.0739174988120794,,,,,,,,,,,,,,4417,Moral,2024-07-15_11h27.03.111,MoralCondition_v2,2022.2.5,30.0165992568619,
5,0,5,0,3,0,3,0,,,,,,,,,,,,,,,,,,,,,,,,,,,,,,,,,,,,,,,,,,,,,,,,,,,,,,394.5191371999681,394.5191371999681,0.006690800189971924,0.0993317998945713,6.0,1.8270856011658907,,,,,,,,,,,,,,4417,Moral,2024-07-15_11h27.03.111,MoralCondition_v2,2022.2.5,30.0165992568619,
5,0,5,0,4,0,4,0,,,,,,,,,,,,,,,,,,,,,,,,,,,,,,,,,,,,,,,,,,,,,,,,,,,,,,396.38595139980316,396.38595139980316,0.007174201309680939,0.09763170033693314,1.0,2.5251338984817266,,,,,,,,,,,,,,4417,Moral,2024-07-15_11h27.03.111,MoralCondition_v2,2022.2.5,30.0165992568619,
5,0,5,0,5,0,5,0,,,,,,,,,,,,,,,,,,,,,,,,,,,,,,,,,,,,,,,,,,,,,,,,,,,,,,398.96928299963474,398.96928299963474,0.00942550040781498,0.11466730013489723,1.0,1.0394830983132124,,,,,,,,,,,,,,4417,Moral,2024-07-15_11h27.03.111,MoralCondition_v2,2022.2.5,30.0165992568619,
5,0,5,0,6,0,6,0,,,,,,,,,,,,,,,,,,,,,,,,,,,,,,,,,,,,,,,,,,,,,,,,,,,,,,400.0359739009291,400.0359739009291,0.007639199495315552,0.09760669991374016,1.0,0.7912505008280277,,,,,,,,,,,,,,4417,Moral,2024-07-15_11h27.03.111,MoralCondition_v2,2022.2.5,30.0165992568619,
5,0,5,0,,,,,,,,,,,,,,,,,,,,,,,,,,,,,,,,,,,,,,,,,,,,,,,,,,,,,,,,,,,,,,,,400.8694719001651,400.8694719001651,0.001127399504184723,0.09767679870128632,6.0,2.9312382005155087,,,,,,,,4417,Moral,2024-07-15_11h27.03.111,MoralCondition_v2,2022.2.5,30.0165992568619,
6,0,6,0,0,0,0,0,,,,,,,,,,,,,,,,,,,,,,,403.8359521999955,0.0003960002213716507,0.09709339961409569,409.8359367996454,6.03052799962461,410.01911569945514,410.01911569945514,0.07063020020723343,0.1806374005973339,6.013741500675678,416.1193387005478,416.1193387005478,416.1193387005478,0.07148410007357597,0.1807240005582571,421.81922950036824,422.01926440000534,6.013846600428224,6.113763900473714,428.0192108005285,12.013789400458336,428.15254400111735,428.15254400111735,0.01402680017054081,0.11376180127263069,up,0.6092354990541935,428.81920289993286,4.830025136470795e-05,0.09779130108654499,,434.85255680046976,434.85255680046976,0.0254782997071743,0.13123559951782227,1.0,4.806691700592637,,,,,,,,428.1192115005106,428.1192115005106,416.0025171004236,416.0025171004236,,,4417,Moral,2024-07-15_11h27.03.111,MoralCondition_v2,2022.2.5,30.0165992568619,
6,0,6,0,1,0,1,0,,,,,,,,,,,,,,,,,,,,,,,,,,,,,,,,,,,,,,,,,,,,,,,,,,,,,,439.686077401042,439.686077401042,0.006499899551272392,0.0989207997918129,1.0,0.8603316992521286,,,,,,,,,,,,,,4417,Moral,2024-07-15_11h27.03.111,MoralCondition_v2,2022.2.5,30.0165992568619,
6,0,6,0,2,0,2,0,,,,,,,,,,,,,,,,,,,,,,,,,,,,,,,,,,,,,,,,,,,,,,,,,,,,,,440.58591799996793,440.58591799996793,0.006570100784301758,0.09911940060555935,1.0,3.3270530998706818,,,,,,,,,,,,,,4417,Moral,2024-07-15_11h27.03.111,MoralCondition_v2,2022.2.5,30.0165992568619,
6,0,6,0,3,0,3,0,,,,,,,,,,,,,,,,,,,,,,,,,,,,,,,,,,,,,,,,,,,,,,,,,,,,,,443.95252930000424,443.95252930000424,0.0066306013613939285,0.09916350059211254,6.0,5.693594999611378,,,,,,,,,,,,,,4417,Moral,2024-07-15_11h27.03.111,MoralCondition_v2,2022.2.5,30.0165992568619,
6,0,6,0,4,0,4,0,,,,,,,,,,,,,,,,,,,,,,,,,,,,,,,,,,,,,,,,,,,,,,,,,,,,,,449.68592520058155,449.68592520058155,0.0062180012464523315,0.09932870045304298,2.0,2.7607390992343426,,,,,,,,,,,,,,4417,Moral,2024-07-15_11h27.03.111,MoralCondition_v2,2022.2.5,30.0165992568619,
6,0,6,0,5,0,5,0,,,,,,,,,,,,,,,,,,,,,,,,,,,,,,,,,,,,,,,,,,,,,,,,,,,,,,452.50265900045633,452.50265900045633,0.008198099210858345,0.11414469964802265,2.0,1.6068321000784636,,,,,,,,,,,,,,4417,Moral,2024-07-15_11h27.03.111,MoralCondition_v2,2022.2.5,30.0165992568619,
6,0,6,0,6,0,6,0,,,,,,,,,,,,,,,,,,,,,,,,,,,,,,,,,,,,,,,,,,,,,,,,,,,,,,454.13578009977937,454.13578009977937,0.0075274016708135605,0.09771810099482536,2.0,0.9246983993798494,,,,,,,,,,,,,,4417,Moral,2024-07-15_11h27.03.111,MoralCondition_v2,2022.2.5,30.0165992568619,
6,0,6,0,,,,,,,,,,,,,,,,,,,,,,,,,,,,,,,,,,,,,,,,,,,,,,,,,,,,,,,,,,,,,,,,455.1026636008173,455.1026636008173,0.0007672999054193497,0.09886189922690392,5.0,3.5991372987627983,,,,,,,,4417,Moral,2024-07-15_11h27.03.111,MoralCondition_v2,2022.2.5,30.0165992568619,
7,0,7,0,0,0,0,0,,,,,,,,,,,,,,,,,,,,,,,458.73622590117157,0.00024789944291114807,0.09788169898092747,464.7525072004646,6.014565799385309,464.91925170086324,464.91925170086324,0.0703183002769947,0.18117590062320232,6.014485400170088,471.01941440068185,471.01941440068185,471.01941440068185,0.07088750042021275,0.18138480000197887,476.71934569999576,476.91913560032845,6.014495899900794,6.1144909001886845,482.91918000020087,12.014539901167154,483.05249390006065,483.05249390006065,0.014867100864648819,0.11442850157618523,up,0.6856495998799801,483.80246759951115,4.2300671339035034e-05,0.0978155005723238,489.81910840049386,489.81910840049386,489.81910840049386,0.008325999602675438,0.11450120061635971,1.0,4.907108200713992,,,,,,,,483.0191719997674,483.0191719997674,470.9191805999726,470.9191805999726,,,4417,Moral,2024-07-15_11h27.03.111,MoralCondition_v2,2022.2.5,30.0165992568619,
7,0,7,0,1,0,1,0,,,,,,,,,,,,,,,,,,,,,,,,,,,,,,,,,,,,,,,,,,,,,,,,,,,,,,494.75245550088584,494.75245550088584,0.007071200758218765,0.0982304997742176,1.0,3.3587079010903835,,,,,,,,,,,,,,4417,Moral,2024-07-15_11h27.03.111,MoralCondition_v2,2022.2.5,30.0165992568619,
7,0,7,0,2,0,2,0,,,,,,,,,,,,,,,,,,,,,,,,,,,,,,,,,,,,,,,,,,,,,,,,,,,,,,498.15238150022924,498.15238150022924,0.005442500114440918,0.09870949946343899,1.0,2.961148399859667,,,,,,,,,,,,,,4417,Moral,2024-07-15_11h27.03.111,MoralCondition_v2,2022.2.5,30.0165992568619,
7,0,7,0,3,0,3,0,,,,,,,,,,,,,,,,,,,,,,,,,,,,,,,,,,,,,,,,,,,,,,,,,,,,,,501.1523985005915,501.1523985005915,0.0070162005722522736,0.09882000088691711,1.0,3.0264149997383356,,,,,,,,,,,,,,4417,Moral,2024-07-15_11h27.03.111,MoralCondition_v2,2022.2.5,30.0165992568619,
7,0,7,0,4,0,4,0,,,,,,,,,,,,,,,,,,,,,,,,,,,,,,,,,,,,,,,,,,,,,,,,,,,,,,504.21925120055676,504.21925120055676,0.0066732000559568405,0.0989316999912262,6.0,2.526809198781848,,,,,,,,,,,,,,4417,Moral,2024-07-15_11h27.03.111,MoralCondition_v2,2022.2.5,30.0165992568619,
7,0,7,0,5,0,5,0,,,,,,,,,,,,,,,,,,,,,,,,,,,,,,,,,,,,,,,,,,,,,,,,,,,,,,506.78580499999225,506.78580499999225,0.0073404014110565186,0.09814790077507496,1.0,3.0250214003026485,,,,,,,,,,,,,,4417,Moral,2024-07-15_11h27.03.111,MoralCondition_v2,2022.2.5,30.0165992568619,
7,0,7,0,6,0,6,0,,,,,,,,,,,,,,,,,,,,,,,,,,,,,,,,,,,,,,,,,,,,,,,,,,,,,,509.8692279011011,509.8692279011011,0.009120399132370949,0.11414629966020584,1.0,1.2392174005508423,,,,,,,,,,,,,,4417,Moral,2024-07-15_11h27.03.111,MoralCondition_v2,2022.2.5,30.0165992568619,
7,0,7,0,,,,,,,,,,,,,,,,,,,,,,,,,,,,,,,,,,,,,,,,,,,,,,,,,,,,,,,,,,,,,,,,511.1359176002443,511.1359176002443,0.0015255007892847061,0.09758680127561092,6.0,4.297282399609685,,,,,,,,4417,Moral,2024-07-15_11h27.03.111,MoralCondition_v2,2022.2.5,30.0165992568619,
8,0,8,0,0,0,0,0,,,,,,,,,,,,,,,,,,,,,,,515.4693544004112,0.0003213007003068924,0.09757000021636486,521.4691062010825,6.030998799949884,521.6692168004811,521.6692168004811,0.087075499817729,0.1976971011608839,6.030883301049471,527.7690030001104,527.7690030001104,527.7690030001104,0.08433250151574612,0.19759200140833855,533.4690458010882,533.6691929008812,6.031022200360894,6.130849100649357,539.6690616998821,12.03087660111487,539.8025608994067,539.8025608994067,0.031047102063894272,0.13099770061671734,up,0.6477143000811338,540.5025364011526,4.659965634346008e-05,0.0979766994714737,,546.5190268009901,546.5190268009901,0.0232635997235775,0.11516209878027439,2.0,4.892384000122547,,,,,,,,539.7690680008382,539.7690680008382,527.6690660007298,527.6690660007298,,,4417,Moral,2024-07-15_11h27.03.111,MoralCondition_v2,2022.2.5,30.0165992568619,
8,0,8,0,1,0,1,0,,,,,,,,,,,,,,,,,,,,,,,,,,,,,,,,,,,,,,,,,,,,,,,,,,,,,,551.4690391011536,551.4690391011536,0.009532999247312546,0.11383869871497154,6.0,2.7385651003569365,,,,,,,,,,,,,,4417,Moral,2024-07-15_11h27.03.111,MoralCondition_v2,2022.2.5,30.0165992568619,
8,0,8,0,2,0,2,0,,,,,,,,,,,,,,,,,,,,,,,,,,,,,,,,,,,,,,,,,,,,,,,,,,,,,,554.2355647999793,554.2355647999793,0.00661890022456646,0.09945579990744591,1.0,2.761071501299739,,,,,,,,,,,,,,4417,Moral,2024-07-15_11h27.03.111,MoralCondition_v2,2022.2.5,30.0165992568619,
8,0,8,0,3,0,3,0,,,,,,,,,,,,,,,,,,,,,,,,,,,,,,,,,,,,,,,,,,,,,,,,,,,,,,557.0356598012149,557.0356598012149,0.00855410099029541,0.09793190099298954,1.0,0.8571144994348288,,,,,,,,,,,,,,4417,Moral,2024-07-15_11h27.03.111,MoralCondition_v2,2022.2.5,30.0165992568619,
8,0,8,0,4,0,4,0,,,,,,,,,,,,,,,,,,,,,,,,,,,,,,,,,,,,,,,,,,,,,,,,,,,,,,557.9357488006353,557.9357488006353,0.007183698937296867,0.0982906986027956,1.0,0.6252179984003305,,,,,,,,,,,,,,4417,Moral,2024-07-15_11h27.03.111,MoralCondition_v2,2022.2.5,30.0165992568619,
8,0,8,0,5,0,5,0,,,,,,,,,,,,,,,,,,,,,,,,,,,,,,,,,,,,,,,,,,,,,,,,,,,,,,558.6193112004548,558.6193112004548,0.009284500032663345,0.11400469951331615,1.0,1.1397304981946945,,,,,,,,,,,,,,4417,Moral,2024-07-15_11h27.03.111,MoralCondition_v2,2022.2.5,30.0165992568619,
8,0,8,0,6,0,6,0,,,,,,,,,,,,,,,,,,,,,,,,,,,,,,,,,,,,,,,,,,,,,,,,,,,,,,559.802391000092,559.802391000092,0.008784199133515358,0.11468989960849285,1.0,1.04008249938488,,,,,,,,,,,,,,4417,Moral,2024-07-15_11h27.03.111,MoralCondition_v2,2022.2.5,30.0165992568619,
8,0,8,0,,,,,,,,,,,,,,,,,,,,,,,,,,,,,,,,,,,,,,,,,,,,,,,,,,,,,,,,,,,,,,,,560.8689176999032,560.8689176999032,0.0007026996463537216,0.09897430054843426,6.0,4.232973501086235,,,,,,,,4417,Moral,2024-07-15_11h27.03.111,MoralCondition_v2,2022.2.5,30.0165992568619,
9,0,9,0,0,0,0,0,,,,,,,,,,,,,,,,,,,,,,,565.1357455998659,0.0002329014241695404,0.09801280125975609,571.1356493011117,6.03137269988656,571.3189166001976,571.3189166001976,0.07029050029814243,0.18167310021817684,6.014650400727987,577.4192568007857,577.4192568007857,577.4192568007857,0.07455450110137463,0.18135380186140537,583.118976701051,583.3188464995474,6.014540001749992,6.114615201950073,589.318901700899,12.01462590135634,589.4521765001118,589.4521765001118,0.014916401356458664,0.11461750231683254,up,0.6771876998245716,590.1856194995344,4.3198466300964355e-05,0.09795709885656834,,596.2189071998,596.2189071998,0.025673799216747284,0.1314206998795271,2.0,3.50664939917624,,,,,,,,589.4189440011978,589.4189440011978,577.3189218007028,577.3189218007028,,,4417,Moral,2024-07-15_11h27.03.111,MoralCondition_v2,2022.2.5,30.0165992568619,
9,0,9,0,1,0,1,0,,,,,,,,,,,,,,,,,,,,,,,,,,,,,,,,,,,,,,,,,,,,,,,,,,,,,,599.7521692998707,599.7521692998707,0.008113300427794456,0.0978838000446558,5.0,2.424059499055147,,,,,,,,,,,,,,4417,Moral,2024-07-15_11h27.03.111,MoralCondition_v2,2022.2.5,30.0165992568619,
9,0,9,0,2,0,2,0,,,,,,,,,,,,,,,,,,,,,,,,,,,,,,,,,,,,,,,,,,,,,,,,,,,,,,602.2357403002679,602.2357403002679,0.008188700303435326,0.11414500139653683,1.0,2.773708200082183,,,,,,,,,,,,,,4417,Moral,2024-07-15_11h27.03.111,MoralCondition_v2,2022.2.5,30.0165992568619,
9,0,9,0,3,0,3,0,,,,,,,,,,,,,,,,,,,,,,,,,,,,,,,,,,,,,,,,,,,,,,,,,,,,,,605.0354996006936,605.0354996006936,0.0065981000661849976,0.09821910038590431,4.0,3.1595684997737408,,,,,,,,,,,,,,4417,Moral,2024-07-15_11h27.03.111,MoralCondition_v2,2022.2.5,30.0165992568619,
9,0,9,0,4,0,4,0,,,,,,,,,,,,,,,,,,,,,,,,,,,,,,,,,,,,,,,,,,,,,,,,,,,,,,608.2355786003172,608.2355786003172,0.006595799699425697,0.09906820021569729,5.0,2.393520601093769,,,,,,,,,,,,,,4417,Moral,2024-07-15_11h27.03.111,MoralCondition_v2,2022.2.5,30.0165992568619,
9,0,9,0,5,0,5,0,,,,,,,,,,,,,,,,,,,,,,,,,,,,,,,,,,,,,,,,,,,,,,,,,,,,,,610.6688177008182,610.6688177008182,0.006419999524950981,0.0991406999528408,2.0,2.3601870983839035,,,,,,,,,,,,,,4417,Moral,2024-07-15_11h27.03.111,MoralCondition_v2,2022.2.5,30.0165992568619,
9,0,9,0,6,0,6,0,,,,,,,,,,,,,,,,,,,,,,,,,,,,,,,,,,,,,,,,,,,,,,,,,,,,,,613.0689499005675,613.0689499005675,0.006507400423288345,0.09926600009202957,1.0,1.7602849993854761,,,,,,,,,,,,,,4417,Moral,2024-07-15_11h27.03.111,MoralCondition_v2,2022.2.5,30.0165992568619,
9,0,9,0,,,,,,,,,,,,,,,,,,,,,,,,,,,,,,,,,,,,,,,,,,,,,,,,,,,,,,,,,,,,,,,,614.8689906001091,614.8689906001091,0.0015636999160051346,0.09781240113079548,5.0,4.430556500330567,,,,,,,,4417,Moral,2024-07-15_11h27.03.111,MoralCondition_v2,2022.2.5,30.0165992568619,
10,0,10,0,0,0,0,0,,,,,,,,,,,,,,,,,,,,,,,619.3357807993889,0.00013449974358081818,0.09944989904761314,625.352208500728,6.015641499310732,625.5189265999943,625.5189265999943,0.07391140051186085,0.18252369947731495,6.015668099746108,631.6188559010625,631.6188559010625,631.6188559010625,0.07576090097427368,0.182370500639081,637.3188288006932,637.5188647005707,6.015718100592494,6.115764901041985,643.5187919009477,12.01564310118556,643.6520994007587,643.6520994007587,0.015645701438188553,0.11567940004169941,up,0.7093113996088505,644.4187544006854,3.7999823689460754e-05,0.09772580116987228,,650.4353887997568,650.4353887997568,0.020758600905537605,0.11439360119402409,1.0,5.894563499838114,,,,,,,,643.6187248006463,643.6187248006463,631.5188641995192,631.5188641995192,,,4417,Moral,2024-07-15_11h27.03.111,MoralCondition_v2,2022.2.5,30.0165992568619,
10,0,10,0,1,0,1,0,,,,,,,,,,,,,,,,,,,,,,,,,,,,,,,,,,,,,,,,,,,,,,,,,,,,,,656.3688149005175,656.3688149005175,0.0073952991515398026,0.0981224998831749,1.0,0.9581451006233692,,,,,,,,,,,,,,4417,Moral,2024-07-15_11h27.03.111,MoralCondition_v2,2022.2.5,30.0165992568619,
10,0,10,0,2,0,2,0,,,,,,,,,,,,,,,,,,,,,,,,,,,,,,,,,,,,,,,,,,,,,,,,,,,,,,657.3686710000038,657.3686710000038,0.006396399810910225,0.09898079931735992,1.0,0.8605083003640175,,,,,,,,,,,,,,4417,Moral,2024-07-15_11h27.03.111,MoralCondition_v2,2022.2.5,30.0165992568619,
10,0,10,0,3,0,3,0,,,,,,,,,,,,,,,,,,,,,,,,,,,,,,,,,,,,,,,,,,,,,,,,,,,,,,658.2688887007535,658.2688887007535,0.006956901401281357,0.09791230037808418,1.0,1.8922854010015726,,,,,,,,,,,,,,4417,Moral,2024-07-15_11h27.03.111,MoralCondition_v2,2022.2.5,30.0165992568619,
10,0,10,0,4,0,4,0,,,,,,,,,,,,,,,,,,,,,,,,,,,,,,,,,,,,,,,,,,,,,,,,,,,,,,660.2190393004566,660.2190393004566,0.0082590002566576,0.11452239938080311,6.0,1.807447399944067,,,,,,,,,,,,,,4417,Moral,2024-07-15_11h27.03.111,MoralCondition_v2,2022.2.5,30.0165992568619,
10,0,10,0,5,0,5,0,,,,,,,,,,,,,,,,,,,,,,,,,,,,,,,,,,,,,,,,,,,,,,,,,,,,,,662.0520536005497,662.0520536005497,0.006425699219107628,0.09905439987778664,2.0,2.2936521004885435,,,,,,,,,,,,,,4417,Moral,2024-07-15_11h27.03.111,MoralCondition_v2,2022.2.5,30.0165992568619,
10,0,10,0,6,0,6,0,,,,,,,,,,,,,,,,,,,,,,,,,,,,,,,,,,,,,,,,,,,,,,,,,,,,,,664.3852786999196,664.3852786999196,0.0070066992193460464,0.09805399924516678,2.0,1.4587283991277218,,,,,,,,,,,,,,4417,Moral,2024-07-15_11h27.03.111,MoralCondition_v2,2022.2.5,30.0165992568619,
10,0,10,0,,,,,,,,,,,,,,,,,,,,,,,,,,,,,,,,,,,,,,,,,,,,,,,,,,,,,,,,,,,,,,,,665.8856236003339,665.8856236003339,0.0014655999839305878,0.0976502001285553,6.0,3.6643905993551016,,,,,,,,4417,Moral,2024-07-15_11h27.03.111,MoralCondition_v2,2022.2.5,30.0165992568619,
11,0,11,0,0,0,0,0,,,,,,,,,,,,,,,,,,,,,,,669.585430201143,0.00030590035021305084,0.09761090017855167,675.6020328998566,6.014231700450182,675.7687488999218,675.7687488999218,0.07630670070648193,0.18115870095789433,6.014243001118302,681.8686597011983,681.8686597011983,681.8686597011983,0.0822910014539957,0.18111610040068626,687.5686770007014,687.7687117997557,6.014292100444436,6.114148501306772,693.7688651010394,12.014449700713158,693.9021402001381,693.9021402001381,0.014406001195311546,0.11417660117149353,up,2.0922871977090836,696.0519984010607,2.7298927307128906e-05,0.09889820031821728,,702.0853311009705,702.0853311009705,0.02792320027947426,0.1322002988308668,2.0,3.6719386000186205,,,,,,,,693.8686859998852,693.8686859998852,681.7687206994742,681.7687206994742,,,4417,Moral,2024-07-15_11h27.03.111,MoralCondition_v2,2022.2.5,30.0165992568619,
11,0,11,0,1,0,1,0,,,,,,,,,,,,,,,,,,,,,,,,,,,,,,,,,,,,,,,,,,,,,,,,,,,,,,705.7851532995701,705.7851532995701,0.00687129981815815,0.09906109981238842,2.0,1.8602547999471426,,,,,,,,,,,,,,4417,Moral,2024-07-15_11h27.03.111,MoralCondition_v2,2022.2.5,30.0165992568619,
11,0,11,0,2,0,2,0,,,,,,,,,,,,,,,,,,,,,,,,,,,,,,,,,,,,,,,,,,,,,,,,,,,,,,707.6852129995823,707.6852129995823,0.006852500140666962,0.09934980049729347,2.0,1.1269543003290892,,,,,,,,,,,,,,4417,Moral,2024-07-15_11h27.03.111,MoralCondition_v2,2022.2.5,30.0165992568619,
11,0,11,0,3,0,3,0,,,,,,,,,,,,,,,,,,,,,,,,,,,,,,,,,,,,,,,,,,,,,,,,,,,,,,708.8520729001611,708.8520729001611,0.00671670027077198,0.09899649955332279,6.0,2.593657400459051,,,,,,,,,,,,,,4417,Moral,2024-07-15_11h27.03.111,MoralCondition_v2,2022.2.5,30.0165992568619,
11,0,11,0,4,0,4,0,,,,,,,,,,,,,,,,,,,,,,,,,,,,,,,,,,,,,,,,,,,,,,,,,,,,,,711.4851885009557,711.4851885009557,0.006934201344847679,0.09905740059912205,1.0,2.293145699426532,,,,,,,,,,,,,,4417,Moral,2024-07-15_11h27.03.111,MoralCondition_v2,2022.2.5,30.0165992568619,
11,0,11,0,5,0,5,0,,,,,,,,,,,,,,,,,,,,,,,,,,,,,,,,,,,,,,,,,,,,,,,,,,,,,,713.8184271007776,713.8184271007776,0.006567399948835373,0.09826420061290264,1.0,0.8594240993261337,,,,,,,,,,,,,,4417,Moral,2024-07-15_11h27.03.111,MoralCondition_v2,2022.2.5,30.0165992568619,
11,0,11,0,6,0,6,0,,,,,,,,,,,,,,,,,,,,,,,,,,,,,,,,,,,,,,,,,,,,,,,,,,,,,,714.7185881007463,714.7185881007463,0.007427500560879707,0.09740550071001053,1.0,0.8912254013121128,,,,,,,,,,,,,,4417,Moral,2024-07-15_11h27.03.111,MoralCondition_v2,2022.2.5,30.0165992568619,
11,0,11,0,,,,,,,,,,,,,,,,,,,,,,,,,,,,,,,,,,,,,,,,,,,,,,,,,,,,,,,,,,,,,,,,715.6519262995571,715.6519262995571,0.001368001103401184,0.0979067012667656,6.0,2.497756900265813,,,,,,,,4417,Moral,2024-07-15_11h27.03.111,MoralCondition_v2,2022.2.5,30.0165992568619,
12,0,12,0,0,0,0,0,,,,,,,,,,,,,,,,,,,,,,,718.1853743996471,0.0001390017569065094,0.09997870028018951,724.2019087001681,6.015800300985575,724.3686881996691,724.3686881996691,0.07968470081686974,0.18269170075654984,6.015918601304293,730.4684814009815,730.4684814009815,730.4684814009815,0.0781491007655859,0.18226890079677105,736.1685224995017,736.3685219995677,6.015797400847077,6.115734402090311,742.3684778995812,12.015870802104473,742.5017370004207,742.5017370004207,0.015895601361989975,0.11566610261797905,up,1.2282739989459515,743.7684960998595,4.140101373195648e-05,0.09793690033257008,,749.7850174997002,749.7850174997002,0.02492390014231205,0.11446450091898441,2.0,4.990849498659372,,,,,,,,742.4684641994536,742.4684641994536,730.3686574995518,730.3686574995518,,,4417,Moral,2024-07-15_11h27.03.111,MoralCondition_v2,2022.2.5,30.0165992568619,
12,0,12,0,1,0,1,0,,,,,,,,,,,,,,,,,,,,,,,,,,,,,,,,,,,,,,,,,,,,,,,,,,,,,,754.8184673003852,754.8184673003852,0.006197499111294746,0.0992284994572401,5.0,3.7606600001454353,,,,,,,,,,,,,,4417,Moral,2024-07-15_11h27.03.111,MoralCondition_v2,2022.2.5,30.0165992568619,
12,0,12,0,2,0,2,0,,,,,,,,,,,,,,,,,,,,,,,,,,,,,,,,,,,,,,,,,,,,,,,,,,,,,,758.6182730998844,758.6182730998844,0.006324099376797676,0.0990912988781929,1.0,2.094327298924327,,,,,,,,,,,,,,4417,Moral,2024-07-15_11h27.03.111,MoralCondition_v2,2022.2.5,30.0165992568619,
12,0,12,0,3,0,3,0,,,,,,,,,,,,,,,,,,,,,,,,,,,,,,,,,,,,,,,,,,,,,,,,,,,,,,760.7515920996666,760.7515920996666,0.0074400994926691055,0.09832810051739216,5.0,2.158500200137496,,,,,,,,,,,,,,4417,Moral,2024-07-15_11h27.03.111,MoralCondition_v2,2022.2.5,30.0165992568619,
12,0,12,0,4,0,4,0,,,,,,,,,,,,,,,,,,,,,,,,,,,,,,,,,,,,,,,,,,,,,,,,,,,,,,762.9516145996749,762.9516145996749,0.00784820131957531,0.09787940047681332,1.0,2.2575179990381002,,,,,,,,,,,,,,4417,Moral,2024-07-15_11h27.03.111,MoralCondition_v2,2022.2.5,30.0165992568619,
12,0,12,0,5,0,5,0,,,,,,,,,,,,,,,,,,,,,,,,,,,,,,,,,,,,,,,,,,,,,,,,,,,,,,765.2517809011042,765.2517809011042,0.0068043991923332214,0.09914639964699745,2.0,2.2599806003272533,,,,,,,,,,,,,,4417,Moral,2024-07-15_11h27.03.111,MoralCondition_v2,2022.2.5,30.0165992568619,
12,0,12,0,6,0,6,0,,,,,,,,,,,,,,,,,,,,,,,,,,,,,,,,,,,,,,,,,,,,,,,,,,,,,,767.5519808009267,767.5519808009267,0.00788090005517006,0.0976490005850792,2.0,1.757676798850298,,,,,,,,,,,,,,4417,Moral,2024-07-15_11h27.03.111,MoralCondition_v2,2022.2.5,30.0165992568619,
12,0,12,0,,,,,,,,,,,,,,,,,,,,,,,,,,,,,,,,,,,,,,,,,,,,,,,,,,,,,,,,,,,,,,,,769.3518186993897,769.3518186993897,0.0007185004651546478,0.09884360060095787,5.0,2.699353300035,,,,,,,,4417,Moral,2024-07-15_11h27.03.111,MoralCondition_v2,2022.2.5,30.0165992568619,
13,0,13,0,0,0,0,0,,,,,,,,,,,,,,,,,,,,,,,772.085383201018,0.00029589980840682983,0.09789599850773811,778.1017396003008,6.014535600319505,778.3016403000802,778.3016403000802,0.10123319923877716,0.2146731000393629,6.014507500454783,784.3686204999685,784.3686204999685,784.3686204999685,0.06895730085670948,0.18144099973142147,790.0683597996831,790.2683819010854,6.014571599662304,6.114479100331664,796.2683499008417,12.014531599357724,796.401715900749,796.401715900749,0.014874100685119629,0.11444560065865517,up,0.7444761991500854,797.2016257997602,3.9499253034591675e-05,0.0977691002190113,803.2015167996287,803.2015167996287,803.2015167996287,0.00957150012254715,0.09795610047876835,1.0,4.7560671009123325,,,,,,,,796.3687114007771,796.3687114007771,,,,,4417,Moral,2024-07-15_11h27.03.111,MoralCondition_v2,2022.2.5,30.0165992568619,
13,0,13,0,1,0,1,0,,,,,,,,,,,,,,,,,,,,,,,,,,,,,,,,,,,,,,,,,,,,,,,,,,,,,,808.0017777998,808.0017777998,0.006580600515007973,0.09900319948792458,5.0,2.4267452992498875,,,,,,,,,,,,,,4417,Moral,2024-07-15_11h27.03.111,MoralCondition_v2,2022.2.5,30.0165992568619,
13,0,13,0,2,0,2,0,,,,,,,,,,,,,,,,,,,,,,,,,,,,,,,,,,,,,,,,,,,,,,,,,,,,,,810.4684383012354,810.4684383012354,0.00666859932243824,0.09911779873073101,5.0,4.4268728997558355,,,,,,,,,,,,,,4417,Moral,2024-07-15_11h27.03.111,MoralCondition_v2,2022.2.5,30.0165992568619,
13,0,13,0,3,0,3,0,,,,,,,,,,,,,,,,,,,,,,,,,,,,,,,,,,,,,,,,,,,,,,,,,,,,,,814.9516864009202,814.9516864009202,0.0088128000497818,0.11418100073933601,5.0,1.1394806001335382,,,,,,,,,,,,,,4417,Moral,2024-07-15_11h27.03.111,MoralCondition_v2,2022.2.5,30.0165992568619,
13,0,13,0,4,0,4,0,,,,,,,,,,,,,,,,,,,,,,,,,,,,,,,,,,,,,,,,,,,,,,,,,,,,,,816.1181298997253,816.1181298997253,0.007508300244808197,0.0980433002114296,2.0,2.491374399513006,,,,,,,,,,,,,,4417,Moral,2024-07-15_11h27.03.111,MoralCondition_v2,2022.2.5,30.0165992568619,
13,0,13,0,5,0,5,0,,,,,,,,,,,,,,,,,,,,,,,,,,,,,,,,,,,,,,,,,,,,,,,,,,,,,,818.6516418997198,818.6516418997198,0.006529800593852997,0.09875030070543289,2.0,1.3933316003531218,,,,,,,,,,,,,,4417,Moral,2024-07-15_11h27.03.111,MoralCondition_v2,2022.2.5,30.0165992568619,
13,0,13,0,6,0,6,0,,,,,,,,,,,,,,,,,,,,,,,,,,,,,,,,,,,,,,,,,,,,,,,,,,,,,,820.084880201146,820.084880201146,0.007838699966669083,0.09757929854094982,2.0,1.4575098007917404,,,,,,,,,,,,,,4417,Moral,2024-07-15_11h27.03.111,MoralCondition_v2,2022.2.5,30.0165992568619,
13,0,13,0,,,,,,,,,,,,,,,,,,,,,,,,,,,,,,,,,,,,,,,,,,,,,,,,,,,,,,,,,,,,,,,,821.584840901196,821.584840901196,0.0013631004840135574,0.0978431012481451,5.0,4.297710500657558,,,,,,,,4417,Moral,2024-07-15_11h27.03.111,MoralCondition_v2,2022.2.5,30.0165992568619,
14,0,14,0,0,0,0,0,,,,,,,,,,,,,,,,,,,,,,,825.9183763004839,0.00013929978013038635,0.09915290027856827,831.918207000941,5.999091600999236,832.0849818009883,832.0849818009883,0.0616466011852026,0.16572490148246288,5.999130200594664,838.1848224010319,838.1848224010319,838.1848224010319,0.05262860096991062,0.16607780195772648,843.8849174994975,844.0849415995181,5.999147700145841,6.098986901342869,850.0847417004406,12.032001201063395,850.2347723003477,850.2347723003477,0.015593800693750381,0.13216630183160305,up,0.8004153985530138,851.0848019011319,5.299970507621765e-05,0.09786009974777699,,857.1181646995246,857.1181646995246,0.02779640071094036,0.13144290074706078,1.0,2.2377825994044542,,,,,,,6.099118201062083,850.1679816003889,850.1679816003889,838.0848701000214,838.0848701000214,6.099058600142598,,4417,Moral,2024-07-15_11h27.03.111,MoralCondition_v2,2022.2.5,30.0165992568619,
14,0,14,0,1,0,1,0,,,,,,,,,,,,,,,,,,,,,,,,,,,,,,,,,,,,,,,,,,,,,,,,,,,,,,859.3848113007843,859.3848113007843,0.0065001994371414185,0.09916109964251518,3.0,3.8270316999405622,,,,,,,,,,,,,,4417,Moral,2024-07-15_11h27.03.111,MoralCondition_v2,2022.2.5,30.0165992568619,
14,0,14,0,2,0,2,0,,,,,,,,,,,,,,,,,,,,,,,,,,,,,,,,,,,,,,,,,,,,,,,,,,,,,,863.2515383996069,863.2515383996069,0.007149700075387955,0.09803900122642517,5.0,2.6918882988393307,,,,,,,,,,,,,,4417,Moral,2024-07-15_11h27.03.111,MoralCondition_v2,2022.2.5,30.0165992568619,
14,0,14,0,3,0,3,0,,,,,,,,,,,,,,,,,,,,,,,,,,,,,,,,,,,,,,,,,,,,,,,,,,,,,,865.984779400751,865.984779400751,0.0072154998779296875,0.09790799953043461,2.0,4.625113599002361,,,,,,,,,,,,,,4417,Moral,2024-07-15_11h27.03.111,MoralCondition_v2,2022.2.5,30.0165992568619,
14,0,14,0,4,0,4,0,,,,,,,,,,,,,,,,,,,,,,,,,,,,,,,,,,,,,,,,,,,,,,,,,,,,,,870.6515528000891,870.6515528000891,0.007363799959421158,0.09769199974834919,2.0,1.6912593990564346,,,,,,,,,,,,,,4417,Moral,2024-07-15_11h27.03.111,MoralCondition_v2,2022.2.5,30.0165992568619,
14,0,14,0,5,0,5,0,,,,,,,,,,,,,,,,,,,,,,,,,,,,,,,,,,,,,,,,,,,,,,,,,,,,,,872.3846870008856,872.3846870008856,0.00728599913418293,0.09762180037796497,5.0,2.5578322000801563,,,,,,,,,,,,,,4417,Moral,2024-07-15_11h27.03.111,MoralCondition_v2,2022.2.5,30.0165992568619,
14,0,14,0,6,0,6,0,,,,,,,,,,,,,,,,,,,,,,,,,,,,,,,,,,,,,,,,,,,,,,,,,,,,,,874.9847091007978,874.9847091007978,0.00762149877846241,0.097716199234128,1.0,1.8578059002757072,,,,,,,,,,,,,,4417,Moral,2024-07-15_11h27.03.111,MoralCondition_v2,2022.2.5,30.0165992568619,
14,0,14,0,,,,,,,,,,,,,,,,,,,,,,,,,,,,,,,,,,,,,,,,,,,,,,,,,,,,,,,,,,,,,,,,876.884853200987,876.884853200987,0.0007325001060962677,0.09929350018501282,5.0,4.49950130097568,,,,,,,,4417,Moral,2024-07-15_11h27.03.111,MoralCondition_v2,2022.2.5,30.0165992568619,
15,0,15,0,0,0,0,0,,,,,,,,,,,,,,,,,,,,,,,881.4181343000382,0.00015039928257465363,0.09912610054016113,887.4180674999952,5.999140199273825,887.5847658999264,887.5847658999264,0.06424460001289845,0.1658915001899004,5.999060800299048,893.6847550012171,893.6847550012171,893.6847550012171,0.05603890120983124,0.16590410098433495,899.3847276009619,899.5846824999899,5.999080801382661,6.098896000534296,905.5848901998252,11.999325700104237,905.7180068995804,905.7180068995804,-5.719810724258423e-05,0.11568260192871094,up,0.8040612991899252,906.5846635010093,4.8100948333740234e-05,0.0978717003017664,,912.6011523995548,912.6011523995548,0.025333700701594353,0.11448940075933933,4.0,27.25687720067799,,,,,,,6.09906779974699,905.6846500001848,905.6846500001848,893.5847025010735,893.5847025010735,6.099111400544643,12.09905550070107,4417,Moral,2024-07-15_11h27.03.111,MoralCondition_v2,2022.2.5,30.0165992568619,
15,0,15,0,1,0,1,0,,,,,,,,,,,,,,,,,,,,,,,,,,,,,,,,,,,,,,,,,,,,,,,,,,,,,,939.9010717011988,939.9010717011988,0.0074736010283231735,0.09799849987030029,5.0,1.9913805983960629,,,,,,,,,,,,,,4417,Moral,2024-07-15_11h27.03.111,MoralCondition_v2,2022.2.5,30.0165992568619,
15,0,15,0,2,0,2,0,,,,,,,,,,,,,,,,,,,,,,,,,,,,,,,,,,,,,,,,,,,,,,,,,,,,,,941.9345530997962,941.9345530997962,0.0076471008360385895,0.09782930091023445,2.0,2.524428501725197,,,,,,,,,,,,,,4417,Moral,2024-07-15_11h27.03.111,MoralCondition_v2,2022.2.5,30.0165992568619,
15,0,15,0,3,0,3,0,,,,,,,,,,,,,,,,,,,,,,,,,,,,,,,,,,,,,,,,,,,,,,,,,,,,,,944.5180591996759,944.5180591996759,0.007754800841212273,0.11447999998927116,1.0,1.7746160998940468,,,,,,,,,,,,,,4417,Moral,2024-07-15_11h27.03.111,MoralCondition_v2,2022.2.5,30.0165992568619,
15,0,15,0,4,0,4,0,,,,,,,,,,,,,,,,,,,,,,,,,,,,,,,,,,,,,,,,,,,,,,,,,,,,,,946.3178231008351,946.3178231008351,0.0072638001292943954,0.09805779904127121,1.0,1.9249895997345448,,,,,,,,,,,,,,4417,Moral,2024-07-15_11h27.03.111,MoralCondition_v2,2022.2.5,30.0165992568619,
15,0,15,0,5,0,5,0,,,,,,,,,,,,,,,,,,,,,,,,,,,,,,,,,,,,,,,,,,,,,,,,,,,,,,948.2845463007689,948.2845463007689,0.008295601233839989,0.0981220006942749,5.0,3.5575945004820824,,,,,,,,,,,,,,4417,Moral,2024-07-15_11h27.03.111,MoralCondition_v2,2022.2.5,30.0165992568619,
15,0,15,0,6,0,6,0,,,,,,,,,,,,,,,,,,,,,,,,,,,,,,,,,,,,,,,,,,,,,,,,,,,,,,951.8844876009971,951.8844876009971,0.006612300872802734,0.09921500086784363,2.0,2.293624499812722,,,,,,,,,,,,,,4417,Moral,2024-07-15_11h27.03.111,MoralCondition_v2,2022.2.5,30.0165992568619,
15,0,15,0,,,,,,,,,,,,,,,,,,,,,,,,,,,,,,,,,,,,,,,,,,,,,,,,,,,,,,,,,,,,,,,,954.2179560996592,954.2179560996592,0.0014843996614217758,0.09744849987328053,5.0,3.797290800139308,,,,,,,,4417,Moral,2024-07-15_11h27.03.111,MoralCondition_v2,2022.2.5,30.0165992568619,
16,0,16,0,0,0,0,0,,,,,,,,,,,,,,,,,,,,,,,958.0515470001847,0.00033609941601753235,0.09808130003511906,964.0678183995187,6.0146024990826845,964.2345909997821,964.2345909997821,0.07850529998540878,0.18148750066757202,6.014649299904704,970.3345164004713,970.3345164004713,970.3345164004713,0.07041990011930466,0.18155050091445446,976.0345825999975,976.2344255000353,6.014677099883556,6.114543801173568,982.2345099002123,12.01473450101912,982.3677591010928,982.3677591010928,0.014925200492143631,0.1143433004617691,up,0.6821897998452187,983.0843992009759,4.149973392486572e-05,0.09827519953250885,989.101163700223,989.101163700223,989.101163700223,0.00967329926788807,0.11511769890785217,5.0,3.93958929926157,,,,,,,,982.3346139006317,982.3346139006317,970.2344537004828,970.2344537004828,,,4417,Moral,2024-07-15_11h27.03.111,MoralCondition_v2,2022.2.5,30.0165992568619,
16,0,16,0,1,0,1,0,,,,,,,,,,,,,,,,,,,,,,,,,,,,,,,,,,,,,,,,,,,,,,,,,,,,,,993.084658799693,993.084658799693,0.008276499807834625,0.11423430033028126,2.0,3.2405875995755196,,,,,,,,,,,,,,4417,Moral,2024-07-15_11h27.03.111,MoralCondition_v2,2022.2.5,30.0165992568619,
16,0,16,0,2,0,2,0,,,,,,,,,,,,,,,,,,,,,,,,,,,,,,,,,,,,,,,,,,,,,,,,,,,,,,996.3509736005217,996.3509736005217,0.007075900211930275,0.09897789917886257,2.0,3.992909301072359,,,,,,,,,,,,,,4417,Moral,2024-07-15_11h27.03.111,MoralCondition_v2,2022.2.5,30.0165992568619,
16,0,16,0,3,0,3,0,,,,,,,,,,,,,,,,,,,,,,,,,,,,,,,,,,,,,,,,,,,,,,,,,,,,,,1000.3843013010919,1000.3843013010919,0.007040299475193024,0.09868820011615753,5.0,3.058839099481702,,,,,,,,,,,,,,4417,Moral,2024-07-15_11h27.03.111,MoralCondition_v2,2022.2.5,30.0165992568619,
16,0,16,0,4,0,4,0,,,,,,,,,,,,,,,,,,,,,,,,,,,,,,,,,,,,,,,,,,,,,,,,,,,,,,1003.4844356011599,1003.4844356011599,0.008210500702261925,0.09770289994776249,1.0,1.957269798964262,,,,,,,,,,,,,,4417,Moral,2024-07-15_11h27.03.111,MoralCondition_v2,2022.2.5,30.0165992568619,
16,0,16,0,5,0,5,0,,,,,,,,,,,,,,,,,,,,,,,,,,,,,,,,,,,,,,,,,,,,,,,,,,,,,,1005.484527900815,1005.484527900815,0.008331799879670143,0.09755980037152767,1.0,1.990150399506092,,,,,,,,,,,,,,4417,Moral,2024-07-15_11h27.03.111,MoralCondition_v2,2022.2.5,30.0165992568619,
16,0,16,0,6,0,6,0,,,,,,,,,,,,,,,,,,,,,,,,,,,,,,,,,,,,,,,,,,,,,,,,,,,,,,1007.5175558999181,1007.5175558999181,0.007299700751900673,0.09786739945411682,1.0,0.991415599361062,,,,,,,,,,,,,,4417,Moral,2024-07-15_11h27.03.111,MoralCondition_v2,2022.2.5,30.0165992568619,
16,0,16,0,,,,,,,,,,,,,,,,,,,,,,,,,,,,,,,,,,,,,,,,,,,,,,,,,,,,,,,,,,,,,,,,1008.5508520007133,1008.5508520007133,0.0020698998123407364,0.09716800041496754,5.0,3.1964986994862556,,,,,,,,4417,Moral,2024-07-15_11h27.03.111,MoralCondition_v2,2022.2.5,30.0165992568619,
17,0,17,0,0,0,0,0,,,,,,,,,,,,,,,,,,,,,,,1011.7846074011177,0.00013440102338790894,0.09910720027983189,1017.7842923998833,5.999059099704027,1017.9509411007166,1017.9509411007166,0.06316780112683773,0.1658985000103712,6.032218299806118,1024.084334000945,1024.084334000945,1024.084334000945,0.08583550155162811,0.19907130114734173,1029.7842520009726,1029.9841454997659,6.0321448016911745,6.132168201729655,1035.9840943999588,12.032022800296545,1036.117521699518,1036.117521699518,0.032557401806116104,0.13217220082879066,up,1.075993798673153,1037.250862499699,4.990026354789734e-05,0.09777100011706352,1043.2506793998182,1043.2506793998182,1043.2506793998182,0.00910240039229393,0.09757540002465248,2.0,3.9232184011489153,,,,,,,6.099133899435401,1036.0842233002186,1036.0842233002186,1023.9509002994746,1023.9509002994746,,,4417,Moral,2024-07-15_11h27.03.111,MoralCondition_v2,2022.2.5,30.0165992568619,
17,0,17,0,1,0,1,0,,,,,,,,,,,,,,,,,,,,,,,,,,,,,,,,,,,,,,,,,,,,,,,,,,,,,,1047.2173827011138,1047.2173827011138,0.006421199068427086,0.0993712991476059,5.0,1.793714800849557,,,,,,,,,,,,,,4417,Moral,2024-07-15_11h27.03.111,MoralCondition_v2,2022.2.5,30.0165992568619,
17,0,17,0,2,0,2,0,,,,,,,,,,,,,,,,,,,,,,,,,,,,,,,,,,,,,,,,,,,,,,,,,,,,,,1049.050982400775,1049.050982400775,0.0074626002460718155,0.09739319980144501,4.0,4.457767400890589,,,,,,,,,,,,,,4417,Moral,2024-07-15_11h27.03.111,MoralCondition_v2,2022.2.5,30.0165992568619,
17,0,17,0,3,0,3,0,,,,,,,,,,,,,,,,,,,,,,,,,,,,,,,,,,,,,,,,,,,,,,,,,,,,,,1053.5509502012283,1053.5509502012283,0.006896199658513069,0.09893439896404743,1.0,2.0601275004446507,,,,,,,,,,,,,,4417,Moral,2024-07-15_11h27.03.111,MoralCondition_v2,2022.2.5,30.0165992568619,
17,0,17,0,4,0,4,0,,,,,,,,,,,,,,,,,,,,,,,,,,,,,,,,,,,,,,,,,,,,,,,,,,,,,,1055.6508211009204,1055.6508211009204,0.006587499752640724,0.09904859960079193,1.0,14.893422299996018,,,,,,,,,,,,,,4417,Moral,2024-07-15_11h27.03.111,MoralCondition_v2,2022.2.5,30.0165992568619,
17,0,17,0,5,0,5,0,,,,,,,,,,,,,,,,,,,,,,,,,,,,,,,,,,,,,,,,,,,,,,,,,,,,,,1070.584143999964,1070.584143999964,0.007111199200153351,0.09785429947078228,1.0,1.2917664982378483,,,,,,,,,,,,,,4417,Moral,2024-07-15_11h27.03.111,MoralCondition_v2,2022.2.5,30.0165992568619,
17,0,17,0,6,0,6,0,,,,,,,,,,,,,,,,,,,,,,,,,,,,,,,,,,,,,,,,,,,,,,,,,,,,,,1071.9172010999173,1071.9172010999173,0.007579699158668518,0.09748809970915318,5.0,2.390828900039196,,,,,,,,,,,,,,4417,Moral,2024-07-15_11h27.03.111,MoralCondition_v2,2022.2.5,30.0165992568619,
17,0,17,0,,,,,,,,,,,,,,,,,,,,,,,,,,,,,,,,,,,,,,,,,,,,,,,,,,,,,,,,,,,,,,,,1074.350878899917,1074.350878899917,0.001067301258444786,0.0991492010653019,5.0,2.532437300309539,,,,,,,,4417,Moral,2024-07-15_11h27.03.111,MoralCondition_v2,2022.2.5,30.0165992568619,
18,0,18,0,0,0,0,0,,,,,,,,,,,,,,,,,,,,,,,1076.9176097996533,0.00013739988207817078,0.09921769984066486,1082.9340324997902,6.015814600512385,1083.1176631003618,1083.1176631003618,0.08505469933152199,0.19942080043256283,5.999140299856663,1089.1841272003949,1089.1841272003949,1089.1841272003949,0.05826679989695549,0.16577110067009926,1094.8839589003474,1095.0839665010571,5.9991628006100655,6.099099500104785,1101.0839374996722,11.99910520017147,1101.2172810994089,1101.2172810994089,-0.0004714988172054291,0.11571099981665611,up,0.3842090982943773,1101.667272599414,1.7998740077018738e-05,0.09931879863142967,1107.6841471008956,1107.6841471008956,1107.6841471008956,0.010769899934530258,0.11585399881005287,6.0,1.9730961993336678,,,,,,,,1101.1670795995742,1101.1670795995742,1089.1841272003949,1089.1841272003949,6.09912190027535,12.09889250062406,4417,Moral,2024-07-15_11h27.03.111,MoralCondition_v2,2022.2.5,30.0165992568619,
18,0,18,0,1,0,1,0,,,,,,,,,,,,,,,,,,,,,,,,,,,,,,,,,,,,,,,,,,,,,,,,,,,,,,1109.6837614998221,1109.6837614998221,0.006566198542714119,0.09904609993100166,2.0,3.4937369003891945,,,,,,,,,,,,,,4417,Moral,2024-07-15_11h27.03.111,MoralCondition_v2,2022.2.5,30.0165992568619,
18,0,18,0,2,0,2,0,,,,,,,,,,,,,,,,,,,,,,,,,,,,,,,,,,,,,,,,,,,,,,,,,,,,,,1113.2172900997102,1113.2172900997102,0.005327699705958366,0.09895299933850765,2.0,1.2282245997339487,,,,,,,,,,,,,,4417,Moral,2024-07-15_11h27.03.111,MoralCondition_v2,2022.2.5,30.0165992568619,
18,0,18,0,3,0,3,0,,,,,,,,,,,,,,,,,,,,,,,,,,,,,,,,,,,,,,,,,,,,,,,,,,,,,,1114.4837683010846,1114.4837683010846,0.007022600620985031,0.09846450015902519,2.0,0.7590749990195036,,,,,,,,,,,,,,4417,Moral,2024-07-15_11h27.03.111,MoralCondition_v2,2022.2.5,30.0165992568619,
18,0,18,0,4,0,4,0,,,,,,,,,,,,,,,,,,,,,,,,,,,,,,,,,,,,,,,,,,,,,,,,,,,,,,1115.2838758993894,1115.2838758993894,0.007690500468015671,0.09775559976696968,1.0,1.6912063006311655,,,,,,,,,,,,,,4417,Moral,2024-07-15_11h27.03.111,MoralCondition_v2,2022.2.5,30.0165992568619,
18,0,18,0,5,0,5,0,,,,,,,,,,,,,,,,,,,,,,,,,,,,,,,,,,,,,,,,,,,,,,,,,,,,,,1117.0172701012343,1117.0172701012343,0.00721689872443676,0.09787429869174957,1.0,0.7915868014097214,,,,,,,,,,,,,,4417,Moral,2024-07-15_11h27.03.111,MoralCondition_v2,2022.2.5,30.0165992568619,
18,0,18,0,6,0,6,0,,,,,,,,,,,,,,,,,,,,,,,,,,,,,,,,,,,,,,,,,,,,,,,,,,,,,,1117.850648900494,1117.850648900494,0.007144199684262276,0.09893770143389702,2.0,3.059425501152873,,,,,,,,,,,,,,4417,Moral,2024-07-15_11h27.03.111,MoralCondition_v2,2022.2.5,30.0165992568619,
18,0,18,0,,,,,,,,,,,,,,,,,,,,,,,,,,,,,,,,,,,,,,,,,,,,,,,,,,,,,,,,,,,,,,,,1120.9506884999573,1120.9506884999573,0.0013954006135463715,0.09735320135951042,6.0,2.030613301321864,,,,,,,,4417,Moral,2024-07-15_11h27.03.111,MoralCondition_v2,2022.2.5,30.0165992568619,
19,0,19,0,0,0,0,0,,,,,,,,,,,,,,,,,,,,,,,1123.0176015999168,0.00027209892868995667,0.09778399951756,1129.0171718001366,6.031122099608183,1129.2173919994384,1129.2173919994384,0.09500049985945225,0.19802539981901646,6.0311099998652935,1135.28376840055,1135.28376840055,1135.28376840055,0.0616494994610548,0.16441220045089722,1140.9837753996253,1141.2170969005674,6.030986599624157,6.131072200834751,1147.217304199934,12.031245401129127,1147.3504397999495,1147.3504397999495,0.031219501048326492,0.13102439977228642,up,1.7712398990988731,1149.1670869011432,4.040077328681946e-05,0.09753509983420372,1155.1839272994548,1155.1839272994548,1155.1839272994548,0.008666399866342545,0.11443930119276047,6.0,2.206749700009823,,,,,,,,1147.283752700314,1147.283752700314,1135.2003566995263,1135.2003566995263,,,4417,Moral,2024-07-15_11h27.03.111,MoralCondition_v2,2022.2.5,30.0165992568619,
19,0,19,0,1,0,1,0,,,,,,,,,,,,,,,,,,,,,,,,,,,,,,,,,,,,,,,,,,,,,,,,,,,,,,1157.4171821009368,1157.4171821009368,0.0064844004809856415,0.09939409978687763,2.0,3.1938139013946056,,,,,,,,,,,,,,4417,Moral,2024-07-15_11h27.03.111,MoralCondition_v2,2022.2.5,30.0165992568619,
19,0,19,0,2,0,2,0,,,,,,,,,,,,,,,,,,,,,,,,,,,,,,,,,,,,,,,,,,,,,,,,,,,,,,1160.6503127999604,1160.6503127999604,0.0063537005335092545,0.0990143995732069,2.0,1.3271593991667032,,,,,,,,,,,,,,4417,Moral,2024-07-15_11h27.03.111,MoralCondition_v2,2022.2.5,30.0165992568619,
19,0,19,0,3,0,3,0,,,,,,,,,,,,,,,,,,,,,,,,,,,,,,,,,,,,,,,,,,,,,,,,,,,,,,1162.0173097997904,1162.0173097997904,0.0077890995889902115,0.09740469977259636,1.0,1.4588517993688583,,,,,,,,,,,,,,4417,Moral,2024-07-15_11h27.03.111,MoralCondition_v2,2022.2.5,30.0165992568619,
19,0,19,0,4,0,4,0,,,,,,,,,,,,,,,,,,,,,,,,,,,,,,,,,,,,,,,,,,,,,,,,,,,,,,1163.5170422997326,1163.5170422997326,0.006268300116062164,0.09887850098311901,1.0,0.7603440005332232,,,,,,,,,,,,,,4417,Moral,2024-07-15_11h27.03.111,MoralCondition_v2,2022.2.5,30.0165992568619,
19,0,19,0,5,0,5,0,,,,,,,,,,,,,,,,,,,,,,,,,,,,,,,,,,,,,,,,,,,,,,,,,,,,,,1164.3170187994838,1164.3170187994838,0.007557099685072899,0.09839239902794361,2.0,1.791958399116993,,,,,,,,,,,,,,4417,Moral,2024-07-15_11h27.03.111,MoralCondition_v2,2022.2.5,30.0165992568619,
19,0,19,0,6,0,6,0,,,,,,,,,,,,,,,,,,,,,,,,,,,,,,,,,,,,,,,,,,,,,,,,,,,,,,1166.1503727007657,1166.1503727007657,0.007671700790524483,0.09909429959952831,2.0,1.6592629998922348,,,,,,,,,,,,,,4417,Moral,2024-07-15_11h27.03.111,MoralCondition_v2,2022.2.5,30.0165992568619,
19,0,19,0,,,,,,,,,,,,,,,,,,,,,,,,,,,,,,,,,,,,,,,,,,,,,,,,,,,,,,,,,,,,,,,,1167.8502357006073,1167.8502357006073,0.0014119986444711685,0.09765089862048626,6.0,2.5307970996946096,,,,,,,,4417,Moral,2024-07-15_11h27.03.111,MoralCondition_v2,2022.2.5,30.0165992568619,
