loop.thisRepN,loop.thisTrialN,loop.thisN,loop.thisIndex,evaluate_all_emotions.thisRepN,evaluate_all_emotions.thisTrialN,evaluate_all_emotions.thisN,evaluate_all_emotions.thisIndex,sync_beep_1.started,p_port.started,p_port.stopped,sync_beep_1.stopped,sync_beep_2.started,sync_beep_2.stopped,sync_beep_3.started,sync_beep_3.stopped,sync_beep_4.started,sync_beep_4.stopped,baseline.started,p_port_2.started,p_port_2.stopped,baseline.stopped,p_port_3.started,Game_Start_Text.started,p_port_4.started,p_port_4.stopped,key_resp.started,key_resp.keys,key_resp.rt,fixation_cross.started,p_port_5.started,p_port_5.stopped,fixation_cross.stopped,p_port_6.started,player_image_intro.started,player_name_intro.started,p_port_7.started,p_port_7.stopped,p_port_8.started,player_image_offer.started,player_name_offer.started,proposed_split.started,p_port_9.started,p_port_9.stopped,proposed_split.stopped,accept_reject.started,p_port_15.started,p_port_15.stopped,accept_reject.stopped,p_port_10.started,arrow_instructions.started,offer_choice.started,p_port_11.started,p_port_11.stopped,offer_choice.keys,offer_choice.rt,Instructions_Affinity_Score.started,p_port_12.started,p_port_12.stopped,Emotion_Image.started,AffinityScore.started,p_port_13.started,p_port_13.stopped,AffinityScore.response,AffinityScore.rt,Instruction.started,Moral_Disgust_Score.started,p_port_14.started,p_port_14.stopped,Moral_Disgust_Score.response,Moral_Disgust_Score.rt,player_image_offer.stopped,player_name_offer.stopped,player_image_intro.stopped,player_name_intro.stopped,Instructions_Affinity_Score.stopped,p_port_6.stopped,p_port_10.stopped,p_port_8.stopped,participant,session,date,expName,psychopyVersion,frameRate,
,,,,,,,,30.915178060904143,0.0011331001296639442,0.12280680006369948,31.230522099882364,31.513956389948724,31.814030199777335,32.13086109012365,32.43071229988709,32.73074428979307,33.04736409988254,33.04736409988254,0.006692800205200911,0.10618520015850663,48.04740659985691,15.0061997002922,48.14740480016917,0.006283899769186974,0.10613630013540387,48.6140593001619,space,2.5598672996275127,,,,,,,,,,,,,,,,,,,,,,,,,,,,,,,,,,,,,,,,,,,,,,,,,,,4953,Moral,2024-08-21_12h45.52.255,MoralCondition_v2,2022.2.5,29.987794951322527,
0,0,0,0,0,0,0,0,,,,,,,,,,,,,,,,,,,,,,51.23072210000828,0.0015913997776806355,0.0982304997742176,57.23074040003121,6.031825099606067,57.54742499999702,57.54742499999702,0.18222859967499971,0.31508229952305555,6.015093399677426,63.547316499985754,63.547316499985754,63.547316499985754,0.09034759970381856,0.21499359980225563,69.24734809994698,69.41406420012936,6.015164299402386,6.1152555998414755,75.41401619976386,12.015104899648577,75.5473539000377,75.5473539000377,0.015069199725985527,0.11526309931650758,down,1.018329699523747,76.61401639971882,6.060022860765457e-05,0.0976260001771152,82.64760959986597,82.64760959986597,0.027340699918568134,0.13100870000198483,2.0,8.421395800076425,,,,,,,,,,,,,,,4953,Moral,2024-08-21_12h45.52.255,MoralCondition_v2,2022.2.5,29.987794951322527,
0,0,0,0,1,0,1,0,,,,,,,,,,,,,,,,,,,,,,,,,,,,,,,,,,,,,,,,,,,,,,,,,,,,91.11404579970986,91.11404579970986,0.009620100259780884,0.11467960011214018,1.0,2.7724315002560616,,,,,,,,,,,,,,,4953,Moral,2024-08-21_12h45.52.255,MoralCondition_v2,2022.2.5,29.987794951322527,
0,0,0,0,2,0,2,0,,,,,,,,,,,,,,,,,,,,,,,,,,,,,,,,,,,,,,,,,,,,,,,,,,,,93.91388959996402,93.91388959996402,0.009415800217539072,0.09932810021564364,5.0,3.2908858000300825,,,,,,,,,,,,,,,4953,Moral,2024-08-21_12h45.52.255,MoralCondition_v2,2022.2.5,29.987794951322527,
0,0,0,0,3,0,3,0,,,,,,,,,,,,,,,,,,,,,,,,,,,,,,,,,,,,,,,,,,,,,,,,,,,,97.26440590014681,97.26440590014681,0.010357800405472517,0.11392650008201599,5.0,1.838283599819988,,,,,,,,,,,,,,,4953,Moral,2024-08-21_12h45.52.255,MoralCondition_v2,2022.2.5,29.987794951322527,
0,0,0,0,4,0,4,0,,,,,,,,,,,,,,,,,,,,,,,,,,,,,,,,,,,,,,,,,,,,,,,,,,,,99.14721169974655,99.14721169974655,0.010129299946129322,0.11596160009503365,3.0,4.340119100175798,,,,,,,,,,,,,,,4953,Moral,2024-08-21_12h45.52.255,MoralCondition_v2,2022.2.5,29.987794951322527,
0,0,0,0,5,0,5,0,,,,,,,,,,,,,,,,,,,,,,,,,,,,,,,,,,,,,,,,,,,,,,,,,,,,103.51388379978016,103.51388379978016,0.00959909986704588,0.09909369982779026,3.0,7.1571780000813305,,,,,,,,,,,,,,,4953,Moral,2024-08-21_12h45.52.255,MoralCondition_v2,2022.2.5,29.987794951322527,
0,0,0,0,6,0,6,0,,,,,,,,,,,,,,,,,,,,,,,,,,,,,,,,,,,,,,,,,,,,,,,,,,,,110.71389929996803,110.71389929996803,0.009109300095587969,0.0991449998691678,2.0,3.7244513002224267,,,,,,,,,,,,,,,4953,Moral,2024-08-21_12h45.52.255,MoralCondition_v2,2022.2.5,29.987794951322527,
0,0,0,0,,,,,,,,,,,,,,,,,,,,,,,,,,,,,,,,,,,,,,,,,,,,,,,,,,,,,,,,,,,,,,114.48063899995759,114.48063899995759,0.0013147001154720783,0.09777599992230535,2.0,6.630970800295472,,,,,,,,,4953,Moral,2024-08-21_12h45.52.255,MoralCondition_v2,2022.2.5,29.987794951322527,
1,0,1,0,0,0,0,0,,,,,,,,,,,,,,,,,,,,,,121.14749309979379,0.000260000117123127,0.09784119995310903,127.14728759974241,6.031202100217342,127.36398060014471,127.36398060014471,0.11320400005206466,0.214544499758631,6.014507099986076,133.43080649990588,133.43080649990588,133.43080649990588,0.07549780001863837,0.18139229994267225,139.13057929975912,139.33055089972913,6.014466099906713,6.11459010001272,145.33057590015233,12.014584899879992,145.46394839975983,145.46394839975983,0.014661199878901243,0.11446049949154258,down,5.606235499959439,151.13057909999043,5.099968984723091e-05,0.09784849965944886,157.1638540001586,157.1638540001586,0.026142099872231483,0.13129719998687506,5.0,5.272790699731559,,,,,,,145.43058309983462,145.43058309983462,,,,,,,4953,Moral,2024-08-21_12h45.52.255,MoralCondition_v2,2022.2.5,29.987794951322527,
1,0,1,0,1,0,1,0,,,,,,,,,,,,,,,,,,,,,,,,,,,,,,,,,,,,,,,,,,,,,,,,,,,,162.48081649979576,162.48081649979576,0.007877500262111425,0.11387060023844242,1.0,1.9731143000535667,,,,,,,,,,,,,,,4953,Moral,2024-08-21_12h45.52.255,MoralCondition_v2,2022.2.5,29.987794951322527,
1,0,1,0,2,0,2,0,,,,,,,,,,,,,,,,,,,,,,,,,,,,,,,,,,,,,,,,,,,,,,,,,,,,164.4804135998711,164.4804135998711,0.0054301000200212,0.13261500000953674,6.0,2.4619157002307475,,,,,,,,,,,,,,,4953,Moral,2024-08-21_12h45.52.255,MoralCondition_v2,2022.2.5,29.987794951322527,
1,0,1,0,3,0,3,0,,,,,,,,,,,,,,,,,,,,,,,,,,,,,,,,,,,,,,,,,,,,,,,,,,,,166.9974058000371,166.9974058000371,0.008007700089365244,0.11429840000346303,1.0,3.4074049000628293,,,,,,,,,,,,,,,4953,Moral,2024-08-21_12h45.52.255,MoralCondition_v2,2022.2.5,29.987794951322527,
1,0,1,0,4,0,4,0,,,,,,,,,,,,,,,,,,,,,,,,,,,,,,,,,,,,,,,,,,,,,,,,,,,,170.44733220012859,170.44733220012859,0.00904530007392168,0.11409900011494756,4.0,3.872627599630505,,,,,,,,,,,,,,,4953,Moral,2024-08-21_12h45.52.255,MoralCondition_v2,2022.2.5,29.987794951322527,
1,0,1,0,5,0,5,0,,,,,,,,,,,,,,,,,,,,,,,,,,,,,,,,,,,,,,,,,,,,,,,,,,,,174.3471917998977,174.3471917998977,0.00702020013704896,0.0979809002019465,3.0,5.125526300165802,,,,,,,,,,,,,,,4953,Moral,2024-08-21_12h45.52.255,MoralCondition_v2,2022.2.5,29.987794951322527,
1,0,1,0,6,0,6,0,,,,,,,,,,,,,,,,,,,,,,,,,,,,,,,,,,,,,,,,,,,,,,,,,,,,179.51375989988446,179.51375989988446,0.007448500022292137,0.09748700028285384,5.0,1.8913263999857008,,,,,,,,,,,,,,,4953,Moral,2024-08-21_12h45.52.255,MoralCondition_v2,2022.2.5,29.987794951322527,
1,0,1,0,,,,,,,,,,,,,,,,,,,,,,,,,,,,,,,,,,,,,,,,,,,,,,,,,,,,,,,,,,,,,,181.44739399990067,181.44739399990067,0.0016777999699115753,0.09714309964329004,2.0,1.9966172999702394,,,,,,,,,4953,Moral,2024-08-21_12h45.52.255,MoralCondition_v2,2022.2.5,29.987794951322527,
2,0,2,0,0,0,0,0,,,,,,,,,,,,,,,,,,,,,,183.48076969990507,0.0002776002511382103,0.09756890032440424,189.49716380005702,6.014236400369555,189.68056489992887,189.68056489992887,0.08448630012571812,0.19756769994273782,6.030864700209349,195.78053939994425,195.78053939994425,195.78053939994425,0.09612799994647503,0.19784499984234571,201.4804877997376,201.6805134997703,6.030955499969423,6.13090609991923,207.68051669979468,12.030964999925345,207.8138095997274,207.8138095997274,0.031160099897533655,0.1307974001392722,down,1.5365327997133136,209.4139646999538,5.519995465874672e-05,0.09749790001660585,215.43044780008495,215.43044780008495,0.01046589994803071,0.11411699978634715,5.0,2.5713126002810895,,,,,,,207.78046589996666,207.78046589996666,195.68050390016288,195.68050390016288,215.43044780008495,,,,4953,Moral,2024-08-21_12h45.52.255,MoralCondition_v2,2022.2.5,29.987794951322527,
2,0,2,0,1,0,1,0,,,,,,,,,,,,,,,,,,,,,,,,,,,,,,,,,,,,,,,,,,,,,,,,,,,,218.03052010014653,218.03052010014653,0.007665600161999464,0.09869990032166243,1.0,1.6252705999650061,,,,,,,,,,,,,,,4953,Moral,2024-08-21_12h45.52.255,MoralCondition_v2,2022.2.5,29.987794951322527,
2,0,2,0,2,0,2,0,,,,,,,,,,,,,,,,,,,,,,,,,,,,,,,,,,,,,,,,,,,,,,,,,,,,219.71376259997487,219.71376259997487,0.008051400072872639,0.11414299998432398,7.0,2.607007300015539,,,,,,,,,,,,,,,4953,Moral,2024-08-21_12h45.52.255,MoralCondition_v2,2022.2.5,29.987794951322527,
2,0,2,0,3,0,3,0,,,,,,,,,,,,,,,,,,,,,,,,,,,,,,,,,,,,,,,,,,,,,,,,,,,,222.34728930005804,222.34728930005804,0.007583499886095524,0.09855870017781854,1.0,1.558705999981612,,,,,,,,,,,,,,,4953,Moral,2024-08-21_12h45.52.255,MoralCondition_v2,2022.2.5,29.987794951322527,
2,0,2,0,4,0,4,0,,,,,,,,,,,,,,,,,,,,,,,,,,,,,,,,,,,,,,,,,,,,,,,,,,,,223.94713470013812,223.94713470013812,0.006496799644082785,0.09912539971992373,5.0,3.393613699823618,,,,,,,,,,,,,,,4953,Moral,2024-08-21_12h45.52.255,MoralCondition_v2,2022.2.5,29.987794951322527,
2,0,2,0,5,0,5,0,,,,,,,,,,,,,,,,,,,,,,,,,,,,,,,,,,,,,,,,,,,,,,,,,,,,227.38035199977458,227.38035199977458,0.006589199882000685,0.09912930009886622,7.0,2.2272569998167455,,,,,,,,,,,,,,,4953,Moral,2024-08-21_12h45.52.255,MoralCondition_v2,2022.2.5,29.987794951322527,
2,0,2,0,6,0,6,0,,,,,,,,,,,,,,,,,,,,,,,,,,,,,,,,,,,,,,,,,,,,,,,,,,,,229.64762229984626,229.64762229984626,0.007914999965578318,0.09718920011073351,6.0,2.1570441001094878,,,,,,,,,,,,,,,4953,Moral,2024-08-21_12h45.52.255,MoralCondition_v2,2022.2.5,29.987794951322527,
2,0,2,0,,,,,,,,,,,,,,,,,,,,,,,,,,,,,,,,,,,,,,,,,,,,,,,,,,,,,,,,,,,,,,231.84709199983627,231.84709199983627,0.0016055000014603138,0.09806430013850331,1.0,4.364410100039095,,,,,,,,,4953,Moral,2024-08-21_12h45.52.255,MoralCondition_v2,2022.2.5,29.987794951322527,
3,0,3,0,0,0,0,0,,,,,,,,,,,,,,,,,,,,,,236.24749509990215,0.0002159997820854187,0.09875130001455545,242.2637610998936,6.015019999817014,242.4637023000978,242.4637023000978,0.10966489976271987,0.21525989985093474,6.015052599832416,248.53025289997458,248.53025289997458,248.53025289997458,0.0716887996532023,0.18197689950466156,254.23037099977955,254.43030670005828,6.015048699453473,6.115025999490172,260.4303562999703,12.015078499447554,260.56372520001605,260.56372520001605,0.015411499422043562,0.11499029956758022,up,0.8435159996151924,261.4471884998493,1.8100254237651825e-05,0.09931610012426972,267.48038640012965,267.48038640012965,0.02710700035095215,0.13260339992120862,6.0,3.4065012000501156,,,,,,,260.5305306999944,260.5305306999944,,,,,,,4953,Moral,2024-08-21_12h45.52.255,MoralCondition_v2,2022.2.5,29.987794951322527,
3,0,3,0,1,0,1,0,,,,,,,,,,,,,,,,,,,,,,,,,,,,,,,,,,,,,,,,,,,,,,,,,,,,270.9136274997145,270.9136274997145,0.0070039997808635235,0.0980842998251319,3.0,3.2917380002327263,,,,,,,,,,,,,,,4953,Moral,2024-08-21_12h45.52.255,MoralCondition_v2,2022.2.5,29.987794951322527,
3,0,3,0,2,0,2,0,,,,,,,,,,,,,,,,,,,,,,,,,,,,,,,,,,,,,,,,,,,,,,,,,,,,274.26375469984487,274.26375469984487,0.00802429998293519,0.11446679988875985,1.0,1.8073514001443982,,,,,,,,,,,,,,,4953,Moral,2024-08-21_12h45.52.255,MoralCondition_v2,2022.2.5,29.987794951322527,
3,0,3,0,3,0,3,0,,,,,,,,,,,,,,,,,,,,,,,,,,,,,,,,,,,,,,,,,,,,,,,,,,,,276.0971519998275,276.0971519998275,0.006875900086015463,0.09903939999639988,5.0,2.459871699567884,,,,,,,,,,,,,,,4953,Moral,2024-08-21_12h45.52.255,MoralCondition_v2,2022.2.5,29.987794951322527,
3,0,3,0,4,0,4,0,,,,,,,,,,,,,,,,,,,,,,,,,,,,,,,,,,,,,,,,,,,,,,,,,,,,278.59694449976087,278.59694449976087,0.006960500031709671,0.09855529991909862,1.0,2.059127999935299,,,,,,,,,,,,,,,4953,Moral,2024-08-21_12h45.52.255,MoralCondition_v2,2022.2.5,29.987794951322527,
3,0,3,0,5,0,5,0,,,,,,,,,,,,,,,,,,,,,,,,,,,,,,,,,,,,,,,,,,,,,,,,,,,,280.6970802000724,280.6970802000724,0.007100800052285194,0.09970119968056679,1.0,2.4600676000118256,,,,,,,,,,,,,,,4953,Moral,2024-08-21_12h45.52.255,MoralCondition_v2,2022.2.5,29.987794951322527,
3,0,3,0,6,0,6,0,,,,,,,,,,,,,,,,,,,,,,,,,,,,,,,,,,,,,,,,,,,,,,,,,,,,283.1968828998506,283.1968828998506,0.0065287998877465725,0.09957859991118312,1.0,1.3608220000751317,,,,,,,,,,,,,,,4953,Moral,2024-08-21_12h45.52.255,MoralCondition_v2,2022.2.5,29.987794951322527,
3,0,3,0,,,,,,,,,,,,,,,,,,,,,,,,,,,,,,,,,,,,,,,,,,,,,,,,,,,,,,,,,,,,,,284.59697279985994,284.59697279985994,0.0009404998272657394,0.09836630010977387,6.0,4.698763200081885,,,,,,,,,4953,Moral,2024-08-21_12h45.52.255,MoralCondition_v2,2022.2.5,29.987794951322527,
4,0,4,0,0,0,0,0,,,,,,,,,,,,,,,,,,,,,,289.33057909971103,0.00015479978173971176,0.09918210003525019,295.33024659985676,6.0158123997971416,295.5134642999619,295.5134642999619,0.06910450011491776,0.18247029976919293,6.0156184998340905,301.5969187999144,301.5969187999144,301.5969187999144,0.0670592999085784,0.16604299983009696,307.2971383999102,307.4971008999273,5.999371299985796,6.099126499611884,313.49690959975123,11.999188399873674,313.630230799783,313.630230799783,-2.0300503820180893e-05,0.09908709954470396,down,0.39144020015373826,314.0634074998088,0.00010569998994469643,0.09813159983605146,320.0969100999646,320.0969100999646,0.02687729988247156,0.13147659972310066,7.0,2.3388471002690494,,,,,,,313.5969161000103,313.5969161000103,301.4970193998888,301.4970193998888,,6.099129399750382,12.099146299995482,,4953,Moral,2024-08-21_12h45.52.255,MoralCondition_v2,2022.2.5,29.987794951322527,
4,0,4,0,1,0,1,0,,,,,,,,,,,,,,,,,,,,,,,,,,,,,,,,,,,,,,,,,,,,,,,,,,,,322.4641220998019,322.4641220998019,0.006956600118428469,0.09695969987660646,5.0,3.3579667997546494,,,,,,,,,,,,,,,4953,Moral,2024-08-21_12h45.52.255,MoralCondition_v2,2022.2.5,29.987794951322527,
4,0,4,0,2,0,2,0,,,,,,,,,,,,,,,,,,,,,,,,,,,,,,,,,,,,,,,,,,,,,,,,,,,,325.8804310001433,325.8804310001433,0.007801100146025419,0.11404470028355718,5.0,2.040732499677688,,,,,,,,,,,,,,,4953,Moral,2024-08-21_12h45.52.255,MoralCondition_v2,2022.2.5,29.987794951322527,
4,0,4,0,3,0,3,0,,,,,,,,,,,,,,,,,,,,,,,,,,,,,,,,,,,,,,,,,,,,,,,,,,,,327.9469443000853,327.9469443000853,0.007519899867475033,0.09825839987024665,5.0,2.59170540003106,,,,,,,,,,,,,,,4953,Moral,2024-08-21_12h45.52.255,MoralCondition_v2,2022.2.5,29.987794951322527,
4,0,4,0,4,0,4,0,,,,,,,,,,,,,,,,,,,,,,,,,,,,,,,,,,,,,,,,,,,,,,,,,,,,330.59716300014406,330.59716300014406,0.008335299789905548,0.1143316999077797,7.0,1.8403738997876644,,,,,,,,,,,,,,,4953,Moral,2024-08-21_12h45.52.255,MoralCondition_v2,2022.2.5,29.987794951322527,
4,0,4,0,5,0,5,0,,,,,,,,,,,,,,,,,,,,,,,,,,,,,,,,,,,,,,,,,,,,,,,,,,,,332.4634064999409,332.4634064999409,0.007607799954712391,0.09746409999206662,1.0,2.1580615998245776,,,,,,,,,,,,,,,4953,Moral,2024-08-21_12h45.52.255,MoralCondition_v2,2022.2.5,29.987794951322527,
4,0,4,0,6,0,6,0,,,,,,,,,,,,,,,,,,,,,,,,,,,,,,,,,,,,,,,,,,,,,,,,,,,,334.6633989997208,334.6633989997208,0.0067712003365159035,0.09942260012030602,1.0,1.1270527001470327,,,,,,,,,,,,,,,4953,Moral,2024-08-21_12h45.52.255,MoralCondition_v2,2022.2.5,29.987794951322527,
4,0,4,0,,,,,,,,,,,,,,,,,,,,,,,,,,,,,,,,,,,,,,,,,,,,,,,,,,,,,,,,,,,,,,335.83031109999865,335.83031109999865,0.0007958998903632164,0.09933379990980029,1.0,2.79928719997406,,,,,,,,,4953,Moral,2024-08-21_12h45.52.255,MoralCondition_v2,2022.2.5,29.987794951322527,
5,0,5,0,0,0,0,0,,,,,,,,,,,,,,,,,,,,,,338.6636844999157,0.00023450003936886787,0.09835619991645217,344.64666169974953,6.014785700011998,344.8469523997046,344.8469523997046,0.06974419998005033,0.18164590001106262,6.014943799935281,350.9470047997311,350.9470047997311,350.9470047997311,0.0702450000680983,0.1817582999356091,356.6467602001503,356.8467780998908,6.0149396997876465,6.114934499841183,362.8467733999714,12.01494239969179,362.98013440007344,362.98013440007344,0.01520179957151413,0.11486449977383018,down,3.8341516996733844,366.8801174997352,4.730001091957092e-05,0.09795079985633492,372.89760150015354,372.89760150015354,0.011665599886327982,0.11472930014133453,6.0,3.6707286997698247,,,,,,,362.9467723998241,362.9467723998241,350.84681909997016,350.84681909997016,372.89760150015354,,,,4953,Moral,2024-08-21_12h45.52.255,MoralCondition_v2,2022.2.5,29.987794951322527,
5,0,5,0,1,0,1,0,,,,,,,,,,,,,,,,,,,,,,,,,,,,,,,,,,,,,,,,,,,,,,,,,,,,376.59679239988327,376.59679239988327,0.0071066999807953835,0.09828989999368787,5.0,1.6586326998658478,,,,,,,,,,,,,,,4953,Moral,2024-08-21_12h45.52.255,MoralCondition_v2,2022.2.5,29.987794951322527,
5,0,5,0,2,0,2,0,,,,,,,,,,,,,,,,,,,,,,,,,,,,,,,,,,,,,,,,,,,,,,,,,,,,378.2966267997399,378.2966267997399,0.006679600104689598,0.09913939982652664,1.0,2.02671069977805,,,,,,,,,,,,,,,4953,Moral,2024-08-21_12h45.52.255,MoralCondition_v2,2022.2.5,29.987794951322527,
5,0,5,0,3,0,3,0,,,,,,,,,,,,,,,,,,,,,,,,,,,,,,,,,,,,,,,,,,,,,,,,,,,,380.36331319995224,380.36331319995224,0.0077137998305261135,0.09759959997609258,5.0,2.6909989998675883,,,,,,,,,,,,,,,4953,Moral,2024-08-21_12h45.52.255,MoralCondition_v2,2022.2.5,29.987794951322527,
5,0,5,0,4,0,4,0,,,,,,,,,,,,,,,,,,,,,,,,,,,,,,,,,,,,,,,,,,,,,,,,,,,,383.0966273001395,383.0966273001395,0.007179100066423416,0.09816400008276105,1.0,1.5918601998127997,,,,,,,,,,,,,,,4953,Moral,2024-08-21_12h45.52.255,MoralCondition_v2,2022.2.5,29.987794951322527,
5,0,5,0,5,0,5,0,,,,,,,,,,,,,,,,,,,,,,,,,,,,,,,,,,,,,,,,,,,,,,,,,,,,384.73011799994856,384.73011799994856,0.0067714001052081585,0.0992323998361826,5.0,2.2267269999720156,,,,,,,,,,,,,,,4953,Moral,2024-08-21_12h45.52.255,MoralCondition_v2,2022.2.5,29.987794951322527,
5,0,5,0,6,0,6,0,,,,,,,,,,,,,,,,,,,,,,,,,,,,,,,,,,,,,,,,,,,,,,,,,,,,386.99660329986364,386.99660329986364,0.006916900165379047,0.09837380005046725,6.0,1.6938051003962755,,,,,,,,,,,,,,,4953,Moral,2024-08-21_12h45.52.255,MoralCondition_v2,2022.2.5,29.987794951322527,
5,0,5,0,,,,,,,,,,,,,,,,,,,,,,,,,,,,,,,,,,,,,,,,,,,,,,,,,,,,,,,,,,,,,,388.730169699993,388.730169699993,0.0014709997922182083,0.09788409993052483,2.0,2.0978459999896586,,,,,,,,,4953,Moral,2024-08-21_12h45.52.255,MoralCondition_v2,2022.2.5,29.987794951322527,
6,0,6,0,0,0,0,0,,,,,,,,,,,,,,,,,,,,,,390.8636175999418,0.000274099875241518,0.09775449987500906,396.8633773000911,6.031146100256592,397.0636016000062,397.0636016000062,0.08913929993286729,0.19775409996509552,6.031027500052005,403.1631994000636,403.1631994000636,403.1631994000636,0.0864756996743381,0.1979807997122407,408.8633312000893,409.06329539977014,6.031066099647433,6.1310807997360826,415.0632597999647,12.031033799983561,415.196788799949,415.196788799949,0.03180289966985583,0.13134629977867007,up,1.8009135001339018,417.0633109998889,6.440002471208572e-05,0.09790939977392554,423.0799690000713,423.0799690000713,0.01002809964120388,0.11442389991134405,2.0,3.2721520997583866,,,,,,,415.1634551999159,415.1634551999159,403.06332649989054,403.06332649989054,423.0799690000713,,,,4953,Moral,2024-08-21_12h45.52.255,MoralCondition_v2,2022.2.5,29.987794951322527,
6,0,6,0,1,0,1,0,,,,,,,,,,,,,,,,,,,,,,,,,,,,,,,,,,,,,,,,,,,,,,,,,,,,426.3797319000587,426.3797319000587,0.0077450997196137905,0.09774589957669377,1.0,1.5243931002914906,,,,,,,,,,,,,,,4953,Moral,2024-08-21_12h45.52.255,MoralCondition_v2,2022.2.5,29.987794951322527,
6,0,6,0,2,0,2,0,,,,,,,,,,,,,,,,,,,,,,,,,,,,,,,,,,,,,,,,,,,,,,,,,,,,427.9465700997971,427.9465700997971,0.00744110019877553,0.09764990024268627,5.0,2.2577869999222457,,,,,,,,,,,,,,,4953,Moral,2024-08-21_12h45.52.255,MoralCondition_v2,2022.2.5,29.987794951322527,
6,0,6,0,3,0,3,0,,,,,,,,,,,,,,,,,,,,,,,,,,,,,,,,,,,,,,,,,,,,,,,,,,,,430.2465570997447,430.2465570997447,0.007209199946373701,0.09794189967215061,1.0,2.12515340000391,,,,,,,,,,,,,,,4953,Moral,2024-08-21_12h45.52.255,MoralCondition_v2,2022.2.5,29.987794951322527,
6,0,6,0,4,0,4,0,,,,,,,,,,,,,,,,,,,,,,,,,,,,,,,,,,,,,,,,,,,,,,,,,,,,432.41331980004907,432.41331980004907,0.007804700173437595,0.09734980016946793,7.0,1.9906651000492275,,,,,,,,,,,,,,,4953,Moral,2024-08-21_12h45.52.255,MoralCondition_v2,2022.2.5,29.987794951322527,
6,0,6,0,5,0,5,0,,,,,,,,,,,,,,,,,,,,,,,,,,,,,,,,,,,,,,,,,,,,,,,,,,,,434.4634079998359,434.4634079998359,0.00781949982047081,0.11455659987404943,1.0,3.2407730002887547,,,,,,,,,,,,,,,4953,Moral,2024-08-21_12h45.52.255,MoralCondition_v2,2022.2.5,29.987794951322527,
6,0,6,0,6,0,6,0,,,,,,,,,,,,,,,,,,,,,,,,,,,,,,,,,,,,,,,,,,,,,,,,,,,,437.72983710002154,437.72983710002154,0.007014199625700712,0.09818740002810955,4.0,4.225651300046593,,,,,,,,,,,,,,,4953,Moral,2024-08-21_12h45.52.255,MoralCondition_v2,2022.2.5,29.987794951322527,
6,0,6,0,,,,,,,,,,,,,,,,,,,,,,,,,,,,,,,,,,,,,,,,,,,,,,,,,,,,,,,,,,,,,,441.9967029998079,441.9967029998079,0.0007054000161588192,0.09939590003341436,6.0,2.566519499756396,,,,,,,,,4953,Moral,2024-08-21_12h45.52.255,MoralCondition_v2,2022.2.5,29.987794951322527,
7,0,7,0,0,0,0,0,,,,,,,,,,,,,,,,,,,,,,444.5965800001286,0.0001370999962091446,0.09884139988571405,450.6131355999969,6.015738199930638,450.77965499972925,450.77965499972925,0.07434329949319363,0.1822160999290645,6.015651099849492,456.8799001998268,456.8799001998268,456.8799001998268,0.07679439941421151,0.18249059980735183,462.57989980001,462.7801179997623,6.0159179996699095,6.115548999514431,468.7797958999872,12.01564469980076,468.91312799975276,468.91312799975276,0.015561599750071764,0.11566379945725203,down,13.180607500020415,482.1297073001042,7.600011304020882e-05,0.09783340012654662,488.1629874999635,488.1629874999635,0.025334300007671118,0.1311145001091063,1.0,2.140206899959594,,,,,,,468.8796950997785,468.8796950997785,456.76301620015875,456.76301620015875,,,,,4953,Moral,2024-08-21_12h45.52.255,MoralCondition_v2,2022.2.5,29.987794951322527,
7,0,7,0,1,0,1,0,,,,,,,,,,,,,,,,,,,,,,,,,,,,,,,,,,,,,,,,,,,,,,,,,,,,490.3464065999724,490.3464065999724,0.009571800008416176,0.11411590036004782,5.0,2.8054471001960337,,,,,,,,,,,,,,,4953,Moral,2024-08-21_12h45.52.255,MoralCondition_v2,2022.2.5,29.987794951322527,
7,0,7,0,2,0,2,0,,,,,,,,,,,,,,,,,,,,,,,,,,,,,,,,,,,,,,,,,,,,,,,,,,,,493.17959439987317,493.17959439987317,0.007224800065159798,0.09872870007529855,6.0,1.592499100137502,,,,,,,,,,,,,,,4953,Moral,2024-08-21_12h45.52.255,MoralCondition_v2,2022.2.5,29.987794951322527,
7,0,7,0,3,0,3,0,,,,,,,,,,,,,,,,,,,,,,,,,,,,,,,,,,,,,,,,,,,,,,,,,,,,494.8131801998243,494.8131801998243,0.006743500009179115,0.09720609989017248,6.0,3.0251467004418373,,,,,,,,,,,,,,,4953,Moral,2024-08-21_12h45.52.255,MoralCondition_v2,2022.2.5,29.987794951322527,
7,0,7,0,4,0,4,0,,,,,,,,,,,,,,,,,,,,,,,,,,,,,,,,,,,,,,,,,,,,,,,,,,,,497.87974470015615,497.87974470015615,0.006580699700862169,0.09928629966452718,6.0,2.4932874999940395,,,,,,,,,,,,,,,4953,Moral,2024-08-21_12h45.52.255,MoralCondition_v2,2022.2.5,29.987794951322527,
7,0,7,0,5,0,5,0,,,,,,,,,,,,,,,,,,,,,,,,,,,,,,,,,,,,,,,,,,,,,,,,,,,,500.41284540016204,500.41284540016204,0.0069678002037107944,0.09941740008071065,1.0,3.25986220035702,,,,,,,,,,,,,,,4953,Moral,2024-08-21_12h45.52.255,MoralCondition_v2,2022.2.5,29.987794951322527,
7,0,7,0,6,0,6,0,,,,,,,,,,,,,,,,,,,,,,,,,,,,,,,,,,,,,,,,,,,,,,,,,,,,503.7131460001692,503.7131460001692,0.006526200100779533,0.09917180007323623,5.0,3.360283700283617,,,,,,,,,,,,,,,4953,Moral,2024-08-21_12h45.52.255,MoralCondition_v2,2022.2.5,29.987794951322527,
7,0,7,0,,,,,,,,,,,,,,,,,,,,,,,,,,,,,,,,,,,,,,,,,,,,,,,,,,,,,,,,,,,,,,507.11286089988425,507.11286089988425,0.002046099863946438,0.09722549980506301,2.0,2.93030419992283,,,,,,,,,4953,Moral,2024-08-21_12h45.52.255,MoralCondition_v2,2022.2.5,29.987794951322527,
8,0,8,0,0,0,0,0,,,,,,,,,,,,,,,,,,,,,,510.0799652999267,0.00029559992253780365,0.09809719957411289,516.0963010000996,6.014653299935162,516.2629686999135,516.2629686999135,0.07788819959387183,0.1812446997500956,6.014511399902403,522.3629744001664,522.3629744001664,522.3629744001664,0.0778586994856596,0.1814658995717764,528.0629142997786,528.263048000168,6.01469949958846,6.114537099841982,534.2628961997107,12.01454779971391,534.3961851000786,534.3961851000786,0.014531399589031935,0.11462369933724403,up,1.4183340999297798,535.8630079999566,4.429975524544716e-05,0.09778489964082837,541.8794104997069,541.8794104997069,0.00989339966326952,0.11454049963504076,5.0,5.805485900025815,,,,,,,534.3460737997666,534.3460737997666,522.2631155997515,522.2631155997515,541.8794104997069,,,,4953,Moral,2024-08-21_12h45.52.255,MoralCondition_v2,2022.2.5,29.987794951322527,
8,0,8,0,1,0,1,0,,,,,,,,,,,,,,,,,,,,,,,,,,,,,,,,,,,,,,,,,,,,,,,,,,,,547.7297426001169,547.7297426001169,0.008294499944895506,0.11435340018942952,1.0,1.8737043999135494,,,,,,,,,,,,,,,4953,Moral,2024-08-21_12h45.52.255,MoralCondition_v2,2022.2.5,29.987794951322527,
8,0,8,0,2,0,2,0,,,,,,,,,,,,,,,,,,,,,,,,,,,,,,,,,,,,,,,,,,,,,,,,,,,,549.6293569998816,549.6293569998816,0.010558499954640865,0.09715500008314848,5.0,5.7875808998942375,,,,,,,,,,,,,,,4953,Moral,2024-08-21_12h45.52.255,MoralCondition_v2,2022.2.5,29.987794951322527,
8,0,8,0,3,0,3,0,,,,,,,,,,,,,,,,,,,,,,,,,,,,,,,,,,,,,,,,,,,,,,,,,,,,555.4627288999036,555.4627288999036,0.006682399660348892,0.09928509965538979,1.0,1.5271272002719343,,,,,,,,,,,,,,,4953,Moral,2024-08-21_12h45.52.255,MoralCondition_v2,2022.2.5,29.987794951322527,
8,0,8,0,4,0,4,0,,,,,,,,,,,,,,,,,,,,,,,,,,,,,,,,,,,,,,,,,,,,,,,,,,,,557.0293185999617,557.0293185999617,0.0069194999523460865,0.09749670000746846,6.0,1.691440699622035,,,,,,,,,,,,,,,4953,Moral,2024-08-21_12h45.52.255,MoralCondition_v2,2022.2.5,29.987794951322527,
8,0,8,0,5,0,5,0,,,,,,,,,,,,,,,,,,,,,,,,,,,,,,,,,,,,,,,,,,,,,,,,,,,,558.7627765997313,558.7627765997313,0.008773499634116888,0.09741579974070191,6.0,2.856487600132823,,,,,,,,,,,,,,,4953,Moral,2024-08-21_12h45.52.255,MoralCondition_v2,2022.2.5,29.987794951322527,
8,0,8,0,6,0,6,0,,,,,,,,,,,,,,,,,,,,,,,,,,,,,,,,,,,,,,,,,,,,,,,,,,,,561.6626412998885,561.6626412998885,0.006735699716955423,0.09920870000496507,5.0,1.893378300126642,,,,,,,,,,,,,,,4953,Moral,2024-08-21_12h45.52.255,MoralCondition_v2,2022.2.5,29.987794951322527,
8,0,8,0,,,,,,,,,,,,,,,,,,,,,,,,,,,,,,,,,,,,,,,,,,,,,,,,,,,,,,,,,,,,,,563.5960404998623,563.5960404998623,0.0020190998911857605,0.09707179991528392,2.0,2.6297162999399006,,,,,,,,,4953,Moral,2024-08-21_12h45.52.255,MoralCondition_v2,2022.2.5,29.987794951322527,
9,0,9,0,0,0,0,0,,,,,,,,,,,,,,,,,,,,,,566.2631624001078,0.000138899777084589,0.0994370998814702,572.2793907001615,6.015928799752146,572.4460694999434,572.4460694999434,0.07767619984224439,0.18267619982361794,6.015781099908054,578.5460500000045,578.5460500000045,578.5460500000045,0.07816179981455207,0.1827562996186316,584.2461394998245,584.446112900041,6.015922699589282,6.1157735995948315,590.4461117000319,12.015925099607557,590.5793490000069,590.5793490000069,0.01609249971807003,0.11568929953500628,up,0.6590990000404418,591.2794543998316,4.1400082409381866e-05,0.09764490043744445,597.2791761001572,597.2791761001572,0.00422890018671751,0.09779790043830872,1.0,5.694320099893957,,,,,,,590.5461222999729,590.5461222999729,578.4460821999237,578.4460821999237,597.2791761001572,,,,4953,Moral,2024-08-21_12h45.52.255,MoralCondition_v2,2022.2.5,29.987794951322527,
9,0,9,0,1,0,1,0,,,,,,,,,,,,,,,,,,,,,,,,,,,,,,,,,,,,,,,,,,,,,,,,,,,,603.0293870000169,603.0293870000169,0.010330900084227324,0.11448909994214773,4.0,4.304945600219071,,,,,,,,,,,,,,,4953,Moral,2024-08-21_12h45.52.255,MoralCondition_v2,2022.2.5,29.987794951322527,
9,0,9,0,2,0,2,0,,,,,,,,,,,,,,,,,,,,,,,,,,,,,,,,,,,,,,,,,,,,,,,,,,,,607.3625440998003,607.3625440998003,0.006729200016707182,0.09919149987399578,1.0,1.5936259999871254,,,,,,,,,,,,,,,4953,Moral,2024-08-21_12h45.52.255,MoralCondition_v2,2022.2.5,29.987794951322527,
9,0,9,0,3,0,3,0,,,,,,,,,,,,,,,,,,,,,,,,,,,,,,,,,,,,,,,,,,,,,,,,,,,,608.9959221999161,608.9959221999161,0.006736000068485737,0.09926760010421276,6.0,2.1931594000197947,,,,,,,,,,,,,,,4953,Moral,2024-08-21_12h45.52.255,MoralCondition_v2,2022.2.5,29.987794951322527,
9,0,9,0,4,0,4,0,,,,,,,,,,,,,,,,,,,,,,,,,,,,,,,,,,,,,,,,,,,,,,,,,,,,611.2293500998057,611.2293500998057,0.007477799896150827,0.0976326996460557,7.0,2.1247280999086797,,,,,,,,,,,,,,,4953,Moral,2024-08-21_12h45.52.255,MoralCondition_v2,2022.2.5,29.987794951322527,
9,0,9,0,5,0,5,0,,,,,,,,,,,,,,,,,,,,,,,,,,,,,,,,,,,,,,,,,,,,,,,,,,,,613.3960098000243,613.3960098000243,0.008193599991500378,0.09855660004541278,1.0,3.291751999873668,,,,,,,,,,,,,,,4953,Moral,2024-08-21_12h45.52.255,MoralCondition_v2,2022.2.5,29.987794951322527,
9,0,9,0,6,0,6,0,,,,,,,,,,,,,,,,,,,,,,,,,,,,,,,,,,,,,,,,,,,,,,,,,,,,616.7295705997385,616.7295705997385,0.0075135002844035625,0.09803480003029108,1.0,1.291435900144279,,,,,,,,,,,,,,,4953,Moral,2024-08-21_12h45.52.255,MoralCondition_v2,2022.2.5,29.987794951322527,
9,0,9,0,,,,,,,,,,,,,,,,,,,,,,,,,,,,,,,,,,,,,,,,,,,,,,,,,,,,,,,,,,,,,,618.0627875998616,618.0627875998616,0.0012552998960018158,0.09780809981748462,6.0,2.5312322000972927,,,,,,,,,4953,Moral,2024-08-21_12h45.52.255,MoralCondition_v2,2022.2.5,29.987794951322527,
10,0,10,0,0,0,0,0,,,,,,,,,,,,,,,,,,,,,,620.6295086001046,0.00032819993793964386,0.09783100010827184,626.6292372001335,6.031270199920982,626.9125374001451,626.9125374001451,0.1709222998470068,0.28109769988805056,6.014428399968892,632.9124134997837,632.9124134997837,632.9124134997837,0.07099789986386895,0.18121449975296855,638.6124677001499,638.8124468000606,6.014407800044864,6.114534699823707,644.8125652000308,12.014519599732012,644.9457561997697,644.9457561997697,0.014517699833959341,0.11442360002547503,up,5.668133699800819,650.6624119998887,2.5200191885232925e-05,0.09867259999737144,656.6792748998851,656.6792748998851,0.009022300131618977,0.11538359988480806,6.0,2.0741787999868393,,,,,,,644.9124150997959,644.9124150997959,,,656.6792748998851,,,,4953,Moral,2024-08-21_12h45.52.255,MoralCondition_v2,2022.2.5,29.987794951322527,
10,0,10,0,1,0,1,0,,,,,,,,,,,,,,,,,,,,,,,,,,,,,,,,,,,,,,,,,,,,,,,,,,,,658.7791423001327,658.7791423001327,0.006685200147330761,0.0991122997365892,1.0,2.1602958999574184,,,,,,,,,,,,,,,4953,Moral,2024-08-21_12h45.52.255,MoralCondition_v2,2022.2.5,29.987794951322527,
10,0,10,0,2,0,2,0,,,,,,,,,,,,,,,,,,,,,,,,,,,,,,,,,,,,,,,,,,,,,,,,,,,,660.9790750998072,660.9790750998072,0.008118399884551764,0.09756310004740953,1.0,1.4903588998131454,,,,,,,,,,,,,,,4953,Moral,2024-08-21_12h45.52.255,MoralCondition_v2,2022.2.5,29.987794951322527,
10,0,10,0,3,0,3,0,,,,,,,,,,,,,,,,,,,,,,,,,,,,,,,,,,,,,,,,,,,,,,,,,,,,662.5123426998034,662.5123426998034,0.0072917998768389225,0.09816910000517964,4.0,1.6251215003430843,,,,,,,,,,,,,,,4953,Moral,2024-08-21_12h45.52.255,MoralCondition_v2,2022.2.5,29.987794951322527,
10,0,10,0,4,0,4,0,,,,,,,,,,,,,,,,,,,,,,,,,,,,,,,,,,,,,,,,,,,,,,,,,,,,664.1789567000233,664.1789567000233,0.006712399888783693,0.09945499990135431,7.0,1.6270382003858685,,,,,,,,,,,,,,,4953,Moral,2024-08-21_12h45.52.255,MoralCondition_v2,2022.2.5,29.987794951322527,
10,0,10,0,5,0,5,0,,,,,,,,,,,,,,,,,,,,,,,,,,,,,,,,,,,,,,,,,,,,,,,,,,,,665.8458599001169,665.8458599001169,0.00701920036226511,0.09849050035700202,1.0,2.4594835001043975,,,,,,,,,,,,,,,4953,Moral,2024-08-21_12h45.52.255,MoralCondition_v2,2022.2.5,29.987794951322527,
10,0,10,0,6,0,6,0,,,,,,,,,,,,,,,,,,,,,,,,,,,,,,,,,,,,,,,,,,,,,,,,,,,,668.3457184000872,668.3457184000872,0.0074489000253379345,0.09788870019838214,2.0,1.5916881002485752,,,,,,,,,,,,,,,4953,Moral,2024-08-21_12h45.52.255,MoralCondition_v2,2022.2.5,29.987794951322527,
10,0,10,0,,,,,,,,,,,,,,,,,,,,,,,,,,,,,,,,,,,,,,,,,,,,,,,,,,,,,,,,,,,,,,669.979272800032,669.979272800032,0.002418600022792816,0.09693749994039536,6.0,2.462267499882728,,,,,,,,,4953,Moral,2024-08-21_12h45.52.255,MoralCondition_v2,2022.2.5,29.987794951322527,
11,0,11,0,0,0,0,0,,,,,,,,,,,,,,,,,,,,,,672.4794422001578,0.00033450033515691757,0.09760830039158463,678.4959281999618,6.0142873004078865,678.662288099993,678.662288099993,0.07014260021969676,0.1809116001240909,6.0142198000103235,684.7624487997964,684.7624487997964,684.7624487997964,0.06992139993235469,0.18095269985496998,690.4623556998558,690.6623960998841,6.014384100213647,6.114422000013292,696.6622695997357,12.014250800013542,696.7957791001536,696.7957791001536,0.014583500102162361,0.11424840008839965,down,0.7943319999612868,697.6289188000374,4.630023613572121e-05,0.09785749996080995,703.6455596000887,703.6455596000887,0.009398899972438812,0.11471380013972521,5.0,3.3062823000364006,,,,,,,696.7624599998817,696.7624599998817,684.6625558999367,684.6625558999367,703.6455596000887,,,,4953,Moral,2024-08-21_12h45.52.255,MoralCondition_v2,2022.2.5,29.987794951322527,
11,0,11,0,1,0,1,0,,,,,,,,,,,,,,,,,,,,,,,,,,,,,,,,,,,,,,,,,,,,,,,,,,,,706.9788000001572,706.9788000001572,0.00777229992672801,0.09762689983472228,6.0,1.3579551000148058,,,,,,,,,,,,,,,4953,Moral,2024-08-21_12h45.52.255,MoralCondition_v2,2022.2.5,29.987794951322527,
11,0,11,0,2,0,2,0,,,,,,,,,,,,,,,,,,,,,,,,,,,,,,,,,,,,,,,,,,,,,,,,,,,,708.3957567000762,708.3957567000762,0.008424699772149324,0.11425729980692267,7.0,2.373521799687296,,,,,,,,,,,,,,,4953,Moral,2024-08-21_12h45.52.255,MoralCondition_v2,2022.2.5,29.987794951322527,
11,0,11,0,3,0,3,0,,,,,,,,,,,,,,,,,,,,,,,,,,,,,,,,,,,,,,,,,,,,,,,,,,,,710.7956165000796,710.7956165000796,0.005986600182950497,0.09912210004404187,6.0,2.427385900169611,,,,,,,,,,,,,,,4953,Moral,2024-08-21_12h45.52.255,MoralCondition_v2,2022.2.5,29.987794951322527,
11,0,11,0,4,0,4,0,,,,,,,,,,,,,,,,,,,,,,,,,,,,,,,,,,,,,,,,,,,,,,,,,,,,713.2621912001632,713.2621912001632,0.006478799972683191,0.09910180000588298,1.0,3.2269935002550483,,,,,,,,,,,,,,,4953,Moral,2024-08-21_12h45.52.255,MoralCondition_v2,2022.2.5,29.987794951322527,
11,0,11,0,5,0,5,0,,,,,,,,,,,,,,,,,,,,,,,,,,,,,,,,,,,,,,,,,,,,,,,,,,,,716.5288586998358,716.5288586998358,0.007124899886548519,0.09831529995426536,1.0,1.9253163002431393,,,,,,,,,,,,,,,4953,Moral,2024-08-21_12h45.52.255,MoralCondition_v2,2022.2.5,29.987794951322527,
11,0,11,0,6,0,6,0,,,,,,,,,,,,,,,,,,,,,,,,,,,,,,,,,,,,,,,,,,,,,,,,,,,,718.4953962001018,718.4953962001018,0.007599800359457731,0.09755629999563098,2.0,6.591064400039613,,,,,,,,,,,,,,,4953,Moral,2024-08-21_12h45.52.255,MoralCondition_v2,2022.2.5,29.987794951322527,
11,0,11,0,,,,,,,,,,,,,,,,,,,,,,,,,,,,,,,,,,,,,,,,,,,,,,,,,,,,,,,,,,,,,,725.1289777997881,725.1289777997881,0.0006778002716600895,0.09920629998669028,2.0,6.799517699982971,,,,,,,,,4953,Moral,2024-08-21_12h45.52.255,MoralCondition_v2,2022.2.5,29.987794951322527,
12,0,12,0,0,0,0,0,,,,,,,,,,,,,,,,,,,,,,731.9624968999997,0.0004819999448955059,0.09763119975104928,737.9788386998698,6.014333399944007,738.1457054000348,738.1457054000348,0.06576190004125237,0.18084160005673766,6.014409299939871,744.2454002001323,744.2454002001323,744.2454002001323,0.07032389985397458,0.18098879978060722,749.9454374997877,750.1454479000531,6.014240799937397,6.114191599655896,756.1454024999402,12.014195899944752,756.2787697999738,756.2787697999738,0.014477199874818325,0.11417369963601232,up,0.7034482997842133,757.0453801001422,5.260016769170761e-05,0.0978120001964271,763.0626229997724,763.0626229997724,0.010527700185775757,0.11469370033591986,4.0,2.9382305000908673,,,,,,,756.2454388998449,756.2454388998449,744.1454415000044,744.1454415000044,763.0626229997724,,,,4953,Moral,2024-08-21_12h45.52.255,MoralCondition_v2,2022.2.5,29.987794951322527,
12,0,12,0,1,0,1,0,,,,,,,,,,,,,,,,,,,,,,,,,,,,,,,,,,,,,,,,,,,,,,,,,,,,766.0288158999756,766.0288158999756,0.006866900250315666,0.09890760015696287,1.0,1.9598098997958004,,,,,,,,,,,,,,,4953,Moral,2024-08-21_12h45.52.255,MoralCondition_v2,2022.2.5,29.987794951322527,
12,0,12,0,2,0,2,0,,,,,,,,,,,,,,,,,,,,,,,,,,,,,,,,,,,,,,,,,,,,,,,,,,,,768.0285494001582,768.0285494001582,0.006761299911886454,0.09918579971417785,6.0,7.593506699893624,,,,,,,,,,,,,,,4953,Moral,2024-08-21_12h45.52.255,MoralCondition_v2,2022.2.5,29.987794951322527,
12,0,12,0,3,0,3,0,,,,,,,,,,,,,,,,,,,,,,,,,,,,,,,,,,,,,,,,,,,,,,,,,,,,775.6622254997492,775.6622254997492,0.006613300181925297,0.0992760001681745,2.0,3.7604749999009073,,,,,,,,,,,,,,,4953,Moral,2024-08-21_12h45.52.255,MoralCondition_v2,2022.2.5,29.987794951322527,
12,0,12,0,4,0,4,0,,,,,,,,,,,,,,,,,,,,,,,,,,,,,,,,,,,,,,,,,,,,,,,,,,,,779.4621548000723,779.4621548000723,0.006983499974012375,0.09737559966742992,5.0,2.2248990000225604,,,,,,,,,,,,,,,4953,Moral,2024-08-21_12h45.52.255,MoralCondition_v2,2022.2.5,29.987794951322527,
12,0,12,0,5,0,5,0,,,,,,,,,,,,,,,,,,,,,,,,,,,,,,,,,,,,,,,,,,,,,,,,,,,,781.7286510998383,781.7286510998383,0.007745600305497646,0.0979516003280878,1.0,7.991251700092107,,,,,,,,,,,,,,,4953,Moral,2024-08-21_12h45.52.255,MoralCondition_v2,2022.2.5,29.987794951322527,
12,0,12,0,6,0,6,0,,,,,,,,,,,,,,,,,,,,,,,,,,,,,,,,,,,,,,,,,,,,,,,,,,,,789.7619950999506,789.7619950999506,0.00661829998716712,0.09913530014455318,1.0,2.193727199919522,,,,,,,,,,,,,,,4953,Moral,2024-08-21_12h45.52.255,MoralCondition_v2,2022.2.5,29.987794951322527,
12,0,12,0,,,,,,,,,,,,,,,,,,,,,,,,,,,,,,,,,,,,,,,,,,,,,,,,,,,,,,,,,,,,,,791.9953954000957,791.9953954000957,0.0006917002610862255,0.09902109997346997,6.0,2.366029600147158,,,,,,,,,4953,Moral,2024-08-21_12h45.52.255,MoralCondition_v2,2022.2.5,29.987794951322527,
13,0,13,0,0,0,0,0,,,,,,,,,,,,,,,,,,,,,,794.3952428000048,0.00013749999925494194,0.09919109987094998,800.4121598997153,6.015812200028449,800.5784033997916,800.5784033997916,0.07015250017866492,0.18231250019744039,6.0158055000938475,806.6784628997557,806.6784628997557,806.6784628997557,0.0689865997992456,0.18246829975396395,812.3788755997084,812.5785316997208,6.01583159994334,6.115758799947798,818.5786457001232,12.015914000105113,818.7118417001329,818.7118417001329,0.015921199694275856,0.11561559978872538,up,3.1340268994681537,821.8951841001399,6.949994713068008e-05,0.0976950996555388,827.9116255999543,827.9116255999543,0.026065999642014503,0.11416919995099306,1.0,2.289192299824208,,,,,,,818.6784692001529,818.6784692001529,806.5788178998046,806.5788178998046,,,,,4953,Moral,2024-08-21_12h45.52.255,MoralCondition_v2,2022.2.5,29.987794951322527,
13,0,13,0,1,0,1,0,,,,,,,,,,,,,,,,,,,,,,,,,,,,,,,,,,,,,,,,,,,,,,,,,,,,830.2621363997459,830.2621363997459,0.008269799873232841,0.11467219982296228,4.0,7.473929000087082,,,,,,,,,,,,,,,4953,Moral,2024-08-21_12h45.52.255,MoralCondition_v2,2022.2.5,29.987794951322527,
13,0,13,0,2,0,2,0,,,,,,,,,,,,,,,,,,,,,,,,,,,,,,,,,,,,,,,,,,,,,,,,,,,,837.7619003998116,837.7619003998116,0.008363899774849415,0.09747319994494319,1.0,2.1566686001606286,,,,,,,,,,,,,,,4953,Moral,2024-08-21_12h45.52.255,MoralCondition_v2,2022.2.5,29.987794951322527,
13,0,13,0,3,0,3,0,,,,,,,,,,,,,,,,,,,,,,,,,,,,,,,,,,,,,,,,,,,,,,,,,,,,839.9617750998586,839.9617750998586,0.007887099869549274,0.09782679984346032,1.0,1.9575645998120308,,,,,,,,,,,,,,,4953,Moral,2024-08-21_12h45.52.255,MoralCondition_v2,2022.2.5,29.987794951322527,
13,0,13,0,4,0,4,0,,,,,,,,,,,,,,,,,,,,,,,,,,,,,,,,,,,,,,,,,,,,,,,,,,,,841.961766500026,841.961766500026,0.006855600047856569,0.09728179965168238,6.0,1.9580938001163304,,,,,,,,,,,,,,,4953,Moral,2024-08-21_12h45.52.255,MoralCondition_v2,2022.2.5,29.987794951322527,
13,0,13,0,5,0,5,0,,,,,,,,,,,,,,,,,,,,,,,,,,,,,,,,,,,,,,,,,,,,,,,,,,,,843.9615909000859,843.9615909000859,0.007333099842071533,0.09810760011896491,6.0,7.491879700217396,,,,,,,,,,,,,,,4953,Moral,2024-08-21_12h45.52.255,MoralCondition_v2,2022.2.5,29.987794951322527,
13,0,13,0,6,0,6,0,,,,,,,,,,,,,,,,,,,,,,,,,,,,,,,,,,,,,,,,,,,,,,,,,,,,851.4950524000451,851.4950524000451,0.006600799970328808,0.09905949980020523,1.0,4.426844900008291,,,,,,,,,,,,,,,4953,Moral,2024-08-21_12h45.52.255,MoralCondition_v2,2022.2.5,29.987794951322527,
13,0,13,0,,,,,,,,,,,,,,,,,,,,,,,,,,,,,,,,,,,,,,,,,,,,,,,,,,,,,,,,,,,,,,855.9616852998734,855.9616852998734,0.001471600029617548,0.09766700025647879,6.0,2.097498900257051,,,,,,,,,4953,Moral,2024-08-21_12h45.52.255,MoralCondition_v2,2022.2.5,29.987794951322527,
14,0,14,0,0,0,0,0,,,,,,,,,,,,,,,,,,,,,,858.0952499997802,0.00014989962801337242,0.0992362997494638,864.0950051997788,5.999361999798566,864.2953460998833,864.2953460998833,0.08528729993849993,0.19943089969456196,5.999196599703282,870.3617706000805,870.3617706000805,870.3617706000805,0.056741499807685614,0.16583169950172305,876.0616092998534,876.2615558998659,5.999058699700981,6.099156899843365,882.261586799752,11.999169999733567,882.39489089977,882.39489089977,-0.0002818005159497261,0.0991578996181488,up,0.5147940996102989,882.9449370000511,1.7700251191854477e-05,0.09914570022374392,888.9782132999972,888.9782132999972,0.02739429986104369,0.13254990009590983,1.0,1.8393492000177503,,,,,,,882.3447581999935,882.3447581999935,870.3617706000805,870.3617706000805,,,12.098968599457294,6.099224499892443,4953,Moral,2024-08-21_12h45.52.255,MoralCondition_v2,2022.2.5,29.987794951322527,
14,0,14,0,1,0,1,0,,,,,,,,,,,,,,,,,,,,,,,,,,,,,,,,,,,,,,,,,,,,,,,,,,,,890.8447861000896,890.8447861000896,0.0075587001629173756,0.09773939987644553,6.0,1.5246880003251135,,,,,,,,,,,,,,,4953,Moral,2024-08-21_12h45.52.255,MoralCondition_v2,2022.2.5,29.987794951322527,
14,0,14,0,2,0,2,0,,,,,,,,,,,,,,,,,,,,,,,,,,,,,,,,,,,,,,,,,,,,,,,,,,,,892.4115333999507,892.4115333999507,0.007315000053495169,0.0978124001994729,4.0,6.491540200076997,,,,,,,,,,,,,,,4953,Moral,2024-08-21_12h45.52.255,MoralCondition_v2,2022.2.5,29.987794951322527,
14,0,14,0,3,0,3,0,,,,,,,,,,,,,,,,,,,,,,,,,,,,,,,,,,,,,,,,,,,,,,,,,,,,898.944848800078,898.944848800078,0.006771299988031387,0.09925089962780476,1.0,2.7267927997745574,,,,,,,,,,,,,,,4953,Moral,2024-08-21_12h45.52.255,MoralCondition_v2,2022.2.5,29.987794951322527,
14,0,14,0,4,0,4,0,,,,,,,,,,,,,,,,,,,,,,,,,,,,,,,,,,,,,,,,,,,,,,,,,,,,901.7115331999958,901.7115331999958,0.006967300083488226,0.09915939997881651,1.0,6.093223599717021,,,,,,,,,,,,,,,4953,Moral,2024-08-21_12h45.52.255,MoralCondition_v2,2022.2.5,29.987794951322527,
14,0,14,0,5,0,5,0,,,,,,,,,,,,,,,,,,,,,,,,,,,,,,,,,,,,,,,,,,,,,,,,,,,,907.8448752998374,907.8448752998374,0.0073009999468922615,0.09944939985871315,1.0,2.0930547998286784,,,,,,,,,,,,,,,4953,Moral,2024-08-21_12h45.52.255,MoralCondition_v2,2022.2.5,29.987794951322527,
14,0,14,0,6,0,6,0,,,,,,,,,,,,,,,,,,,,,,,,,,,,,,,,,,,,,,,,,,,,,,,,,,,,909.9782667998224,909.9782667998224,0.007588699925690889,0.09845850011333823,7.0,6.724677499849349,,,,,,,,,,,,,,,4953,Moral,2024-08-21_12h45.52.255,MoralCondition_v2,2022.2.5,29.987794951322527,
14,0,14,0,,,,,,,,,,,,,,,,,,,,,,,,,,,,,,,,,,,,,,,,,,,,,,,,,,,,,,,,,,,,,,916.74484820012,916.74484820012,0.001334100030362606,0.09825190016999841,6.0,1.831543699838221,,,,,,,,,4953,Moral,2024-08-21_12h45.52.255,MoralCondition_v2,2022.2.5,29.987794951322527,
15,0,15,0,0,0,0,0,,,,,,,,,,,,,,,,,,,,,,918.6114179999568,0.00038059987127780914,0.09739790018647909,924.6113952999003,6.030650699976832,924.7949304999784,924.7949304999784,0.07718589995056391,0.18085270002484322,6.014119999948889,930.8946499000303,930.8946499000303,930.8946499000303,0.07425539987161756,0.18063939968124032,936.5947318999097,936.7947049997747,6.013951499946415,6.113839499652386,942.7947152000852,12.013965100049973,942.9280248000287,942.9280248000287,0.014162699691951275,0.11359529988840222,up,4.718126799445599,947.7111829998903,4.700012505054474e-05,0.09759330004453659,953.7117939000018,953.7117939000018,0.009552200324833393,0.09755770023912191,1.0,3.0890783998183906,,,,,,,942.8947704997845,942.8947704997845,930.7947188001126,930.7947188001126,953.7117939000018,,,,4953,Moral,2024-08-21_12h45.52.255,MoralCondition_v2,2022.2.5,29.987794951322527,
15,0,15,0,1,0,1,0,,,,,,,,,,,,,,,,,,,,,,,,,,,,,,,,,,,,,,,,,,,,,,,,,,,,956.8612790000625,956.8612790000625,0.007596200332045555,0.11472820024937391,1.0,1.9412532998248935,,,,,,,,,,,,,,,4953,Moral,2024-08-21_12h45.52.255,MoralCondition_v2,2022.2.5,29.987794951322527,
15,0,15,0,2,0,2,0,,,,,,,,,,,,,,,,,,,,,,,,,,,,,,,,,,,,,,,,,,,,,,,,,,,,958.8448582999408,958.8448582999408,0.007961700204759836,0.11430779984220862,7.0,1.8074158998206258,,,,,,,,,,,,,,,4953,Moral,2024-08-21_12h45.52.255,MoralCondition_v2,2022.2.5,29.987794951322527,
15,0,15,0,3,0,3,0,,,,,,,,,,,,,,,,,,,,,,,,,,,,,,,,,,,,,,,,,,,,,,,,,,,,960.6778548001312,960.6778548001312,0.0072514996863901615,0.09821579977869987,4.0,2.0251385997980833,,,,,,,,,,,,,,,4953,Moral,2024-08-21_12h45.52.255,MoralCondition_v2,2022.2.5,29.987794951322527,
15,0,15,0,4,0,4,0,,,,,,,,,,,,,,,,,,,,,,,,,,,,,,,,,,,,,,,,,,,,,,,,,,,,962.7444708999246,962.7444708999246,0.007259800098836422,0.09732179995626211,3.0,3.7576158000156283,,,,,,,,,,,,,,,4953,Moral,2024-08-21_12h45.52.255,MoralCondition_v2,2022.2.5,29.987794951322527,
15,0,15,0,5,0,5,0,,,,,,,,,,,,,,,,,,,,,,,,,,,,,,,,,,,,,,,,,,,,,,,,,,,,966.5447015999816,966.5447015999816,0.005458900239318609,0.09904340002685785,1.0,2.6280739000067115,,,,,,,,,,,,,,,4953,Moral,2024-08-21_12h45.52.255,MoralCondition_v2,2022.2.5,29.987794951322527,
15,0,15,0,6,0,6,0,,,,,,,,,,,,,,,,,,,,,,,,,,,,,,,,,,,,,,,,,,,,,,,,,,,,969.2112420001067,969.2112420001067,0.00735530024394393,0.09794040024280548,6.0,5.791466200258583,,,,,,,,,,,,,,,4953,Moral,2024-08-21_12h45.52.255,MoralCondition_v2,2022.2.5,29.987794951322527,
15,0,15,0,,,,,,,,,,,,,,,,,,,,,,,,,,,,,,,,,,,,,,,,,,,,,,,,,,,,,,,,,,,,,,975.0446715001017,975.0446715001017,0.0010157003998756409,0.09911840036511421,6.0,1.799303499981761,,,,,,,,,4953,Moral,2024-08-21_12h45.52.255,MoralCondition_v2,2022.2.5,29.987794951322527,
16,0,16,0,0,0,0,0,,,,,,,,,,,,,,,,,,,,,,976.8778327000327,0.00022879987955093384,0.09806070011109114,982.8610696997494,6.014589299913496,983.0609821998514,983.0609821998514,0.07483569998294115,0.18130839988589287,6.014650399796665,989.1609594998881,989.1609594998881,989.1609594998881,0.07200709963217378,0.181290699634701,994.8611125997268,995.0611481000669,6.014707199763507,6.1147228996269405,1001.0611284999177,12.014656099956483,1001.1944548999891,1001.1944548999891,0.014761199709028006,0.11471169954165816,up,0.8833436998538673,1002.1277346001007,1.6300007700920105e-05,0.09925199998542666,1008.1448789001442,1008.1448789001442,0.028151500038802624,0.11597400018945336,6.0,1.9887544000521302,,,,,,,1001.1610797997564,1001.1610797997564,989.0611347998492,989.0611347998492,,,,,4953,Moral,2024-08-21_12h45.52.255,MoralCondition_v2,2022.2.5,29.987794951322527,
16,0,16,0,1,0,1,0,,,,,,,,,,,,,,,,,,,,,,,,,,,,,,,,,,,,,,,,,,,,,,,,,,,,1010.1777540999465,1010.1777540999465,0.006053500343114138,0.09855489991605282,1.0,2.3601780999451876,,,,,,,,,,,,,,,4953,Moral,2024-08-21_12h45.52.255,MoralCondition_v2,2022.2.5,29.987794951322527,
16,0,16,0,2,0,2,0,,,,,,,,,,,,,,,,,,,,,,,,,,,,,,,,,,,,,,,,,,,,,,,,,,,,1012.5777112999931,1012.5777112999931,0.007246300112456083,0.09728100011125207,1.0,1.691216400358826,,,,,,,,,,,,,,,4953,Moral,2024-08-21_12h45.52.255,MoralCondition_v2,2022.2.5,29.987794951322527,
16,0,16,0,3,0,3,0,,,,,,,,,,,,,,,,,,,,,,,,,,,,,,,,,,,,,,,,,,,,,,,,,,,,1014.3111919001676,1014.3111919001676,0.006655099801719189,0.09895879961550236,2.0,3.626797300297767,,,,,,,,,,,,,,,4953,Moral,2024-08-21_12h45.52.255,MoralCondition_v2,2022.2.5,29.987794951322527,
16,0,16,0,4,0,4,0,,,,,,,,,,,,,,,,,,,,,,,,,,,,,,,,,,,,,,,,,,,,,,,,,,,,1017.9777485998347,1017.9777485998347,0.007527799811214209,0.09866319969296455,1.0,1.9254222000017762,,,,,,,,,,,,,,,4953,Moral,2024-08-21_12h45.52.255,MoralCondition_v2,2022.2.5,29.987794951322527,
16,0,16,0,5,0,5,0,,,,,,,,,,,,,,,,,,,,,,,,,,,,,,,,,,,,,,,,,,,,,,,,,,,,1019.9444156000391,1019.9444156000391,0.008077800273895264,0.0973229999653995,7.0,7.2570310002192855,,,,,,,,,,,,,,,4953,Moral,2024-08-21_12h45.52.255,MoralCondition_v2,2022.2.5,29.987794951322527,
16,0,16,0,6,0,6,0,,,,,,,,,,,,,,,,,,,,,,,,,,,,,,,,,,,,,,,,,,,,,,,,,,,,1027.244381699711,1027.244381699711,0.007663299795240164,0.09752980014309287,4.0,2.824277800042182,,,,,,,,,,,,,,,4953,Moral,2024-08-21_12h45.52.255,MoralCondition_v2,2022.2.5,29.987794951322527,
16,0,16,0,,,,,,,,,,,,,,,,,,,,,,,,,,,,,,,,,,,,,,,,,,,,,,,,,,,,,,,,,,,,,,1030.1111666997895,1030.1111666997895,0.0012042997404932976,0.09779389994218946,6.0,2.5976840001530945,,,,,,,,,4953,Moral,2024-08-21_12h45.52.255,MoralCondition_v2,2022.2.5,29.987794951322527,
17,0,17,0,0,0,0,0,,,,,,,,,,,,,,,,,,,,,,1032.7446129000746,0.0003514997661113739,0.09742399957031012,1038.7609522999264,6.0140221999026835,1038.927487200126,1038.927487200126,0.068484699819237,0.18072649976238608,6.014178299810737,1045.0277034998871,1045.0277034998871,1045.0277034998871,0.06908669974654913,0.1809100997634232,1050.7275809999555,1050.9275357997976,6.014022099785507,6.114050799515098,1056.9275305001065,12.014040799811482,1057.060906900093,1057.060906900093,0.014175799675285816,0.11398279946297407,down,0.6570029999129474,1057.7608754001558,3.719981759786606e-05,0.09806849993765354,1063.7939733001404,1063.7939733001404,0.030619199853390455,0.13120009982958436,1.0,2.468362499959767,,,,,,,1057.0275380001403,1057.0275380001403,1044.9275915999897,1044.9275915999897,,,,,4953,Moral,2024-08-21_12h45.52.255,MoralCondition_v2,2022.2.5,29.987794951322527,
17,0,17,0,1,0,1,0,,,,,,,,,,,,,,,,,,,,,,,,,,,,,,,,,,,,,,,,,,,,,,,,,,,,1066.294051699806,1066.294051699806,0.005623399745672941,0.11572499992325902,1.0,0.9945688000880182,,,,,,,,,,,,,,,4953,Moral,2024-08-21_12h45.52.255,MoralCondition_v2,2022.2.5,29.987794951322527,
17,0,17,0,2,0,2,0,,,,,,,,,,,,,,,,,,,,,,,,,,,,,,,,,,,,,,,,,,,,,,,,,,,,1067.3274309998378,1067.3274309998378,0.008592299651354551,0.0980393998324871,6.0,1.8572862003929913,,,,,,,,,,,,,,,4953,Moral,2024-08-21_12h45.52.255,MoralCondition_v2,2022.2.5,29.987794951322527,
17,0,17,0,3,0,3,0,,,,,,,,,,,,,,,,,,,,,,,,,,,,,,,,,,,,,,,,,,,,,,,,,,,,1069.2274607997388,1069.2274607997388,0.006612699944525957,0.09924939973279834,5.0,2.2267795000225306,,,,,,,,,,,,,,,4953,Moral,2024-08-21_12h45.52.255,MoralCondition_v2,2022.2.5,29.987794951322527,
17,0,17,0,4,0,4,0,,,,,,,,,,,,,,,,,,,,,,,,,,,,,,,,,,,,,,,,,,,,,,,,,,,,1071.494243499823,1071.494243499823,0.006911299657076597,0.09962379978969693,7.0,1.5933599998243153,,,,,,,,,,,,,,,4953,Moral,2024-08-21_12h45.52.255,MoralCondition_v2,2022.2.5,29.987794951322527,
17,0,17,0,5,0,5,0,,,,,,,,,,,,,,,,,,,,,,,,,,,,,,,,,,,,,,,,,,,,,,,,,,,,1073.127472099848,1073.127472099848,0.00784670002758503,0.09762139990925789,5.0,5.657415100373328,,,,,,,,,,,,,,,4953,Moral,2024-08-21_12h45.52.255,MoralCondition_v2,2022.2.5,29.987794951322527,
17,0,17,0,6,0,6,0,,,,,,,,,,,,,,,,,,,,,,,,,,,,,,,,,,,,,,,,,,,,,,,,,,,,1078.8276603999548,1078.8276603999548,0.006997999735176563,0.09852659981697798,6.0,1.8591678999364376,,,,,,,,,,,,,,,4953,Moral,2024-08-21_12h45.52.255,MoralCondition_v2,2022.2.5,29.987794951322527,
17,0,17,0,,,,,,,,,,,,,,,,,,,,,,,,,,,,,,,,,,,,,,,,,,,,,,,,,,,,,,,,,,,,,,1080.7276916000992,1080.7276916000992,0.0007100999355316162,0.09928430011495948,1.0,2.266044700052589,,,,,,,,,4953,Moral,2024-08-21_12h45.52.255,MoralCondition_v2,2022.2.5,29.987794951322527,
18,0,18,0,0,0,0,0,,,,,,,,,,,,,,,,,,,,,,1083.0275139999576,0.00043689971789717674,0.09764569997787476,1089.0273243999109,6.030864299740642,1089.2105856998824,1089.2105856998824,0.07523710001260042,0.18093399982899427,6.014293399639428,1095.3107223999687,1095.3107223999687,1095.3107223999687,0.08045379957184196,0.18089639954268932,1101.0108129000291,1101.2107032998465,6.014265999663621,6.114216199610382,1107.2110636997968,12.01455679954961,1107.3439985997975,1107.3439985997975,0.014483699575066566,0.11415509972721338,down,0.3420803998596966,1107.7439192999154,4.329998046159744e-05,0.09788830019533634,1113.7773198001087,1113.7773198001087,0.02600339986383915,0.13112450018525124,4.0,2.239441900048405,,,,,,,1107.3106566998176,1107.3106566998176,1095.210705500096,1095.210705500096,,,,,4953,Moral,2024-08-21_12h45.52.255,MoralCondition_v2,2022.2.5,29.987794951322527,
18,0,18,0,1,0,1,0,,,,,,,,,,,,,,,,,,,,,,,,,,,,,,,,,,,,,,,,,,,,,,,,,,,,1116.0438807997853,1116.0438807997853,0.006719800177961588,0.09927750006318092,6.0,6.726782000157982,,,,,,,,,,,,,,,4953,Moral,2024-08-21_12h45.52.255,MoralCondition_v2,2022.2.5,29.987794951322527,
18,0,18,0,2,0,2,0,,,,,,,,,,,,,,,,,,,,,,,,,,,,,,,,,,,,,,,,,,,,,,,,,,,,1122.8107000999153,1122.8107000999153,0.006616000086069107,0.09920979989692569,6.0,1.4601679998449981,,,,,,,,,,,,,,,4953,Moral,2024-08-21_12h45.52.255,MoralCondition_v2,2022.2.5,29.987794951322527,
18,0,18,0,3,0,3,0,,,,,,,,,,,,,,,,,,,,,,,,,,,,,,,,,,,,,,,,,,,,,,,,,,,,1124.3106843000278,1124.3106843000278,0.009506800211966038,0.09740480035543442,7.0,1.4892823998816311,,,,,,,,,,,,,,,4953,Moral,2024-08-21_12h45.52.255,MoralCondition_v2,2022.2.5,29.987794951322527,
18,0,18,0,4,0,4,0,,,,,,,,,,,,,,,,,,,,,,,,,,,,,,,,,,,,,,,,,,,,,,,,,,,,1125.843940100167,1125.843940100167,0.00720639992505312,0.09773749997839332,1.0,3.458165400195867,,,,,,,,,,,,,,,4953,Moral,2024-08-21_12h45.52.255,MoralCondition_v2,2022.2.5,29.987794951322527,
18,0,18,0,5,0,5,0,,,,,,,,,,,,,,,,,,,,,,,,,,,,,,,,,,,,,,,,,,,,,,,,,,,,1129.3608921999112,1129.3608921999112,0.008242900017648935,0.11437000008299947,1.0,1.2404585001058877,,,,,,,,,,,,,,,4953,Moral,2024-08-21_12h45.52.255,MoralCondition_v2,2022.2.5,29.987794951322527,
18,0,18,0,6,0,6,0,,,,,,,,,,,,,,,,,,,,,,,,,,,,,,,,,,,,,,,,,,,,,,,,,,,,1130.644137099851,1130.644137099851,0.008538799826055765,0.11436939984560013,6.0,8.306989000178874,,,,,,,,,,,,,,,4953,Moral,2024-08-21_12h45.52.255,MoralCondition_v2,2022.2.5,29.987794951322527,
18,0,18,0,,,,,,,,,,,,,,,,,,,,,,,,,,,,,,,,,,,,,,,,,,,,,,,,,,,,,,,,,,,,,,1138.9773458000273,1138.9773458000273,0.001193000003695488,0.09810010017827153,1.0,2.6978900996036828,,,,,,,,,4953,Moral,2024-08-21_12h45.52.255,MoralCondition_v2,2022.2.5,29.987794951322527,
19,0,19,0,0,0,0,0,,,,,,,,,,,,,,,,,,,,,,1141.7108697998337,0.0001317998394370079,0.09944749996066093,1147.6936805997975,5.999152599833906,1147.860319700092,1147.860319700092,0.04272009991109371,0.1493281996808946,6.015981100033969,1153.993824500125,1153.993824500125,1153.993824500125,0.0751665998250246,0.18294359976425767,1159.6937854997814,1159.8937622001395,6.01594219962135,6.116133799776435,1165.8937673997134,12.015956999734044,1166.0272391997278,1166.0272391997278,0.01626399951055646,0.11606859974563122,up,1.4265458998270333,1167.4937354000285,4.459964111447334e-05,0.0980729996226728,1173.5106553998776,1173.5106553998776,0.009695499669760466,0.1148265996016562,4.0,3.572700200136751,,,,,,,1165.9938313998282,1165.9938313998282,1153.8604758000001,1153.8604758000001,1173.5106553998776,6.082607800140977,,,4953,Moral,2024-08-21_12h45.52.255,MoralCondition_v2,2022.2.5,29.987794951322527,
19,0,19,0,1,0,1,0,,,,,,,,,,,,,,,,,,,,,,,,,,,,,,,,,,,,,,,,,,,,,,,,,,,,1177.1102843000554,1177.1102843000554,0.0079950001090765,0.09765700018033385,2.0,4.5240364000201225,,,,,,,,,,,,,,,4953,Moral,2024-08-21_12h45.52.255,MoralCondition_v2,2022.2.5,29.987794951322527,
19,0,19,0,2,0,2,0,,,,,,,,,,,,,,,,,,,,,,,,,,,,,,,,,,,,,,,,,,,,,,,,,,,,1181.6770291998982,1181.6770291998982,0.007699900306761265,0.0984722999855876,2.0,4.358208899851888,,,,,,,,,,,,,,,4953,Moral,2024-08-21_12h45.52.255,MoralCondition_v2,2022.2.5,29.987794951322527,
19,0,19,0,3,0,3,0,,,,,,,,,,,,,,,,,,,,,,,,,,,,,,,,,,,,,,,,,,,,,,,,,,,,1186.0768387997523,1186.0768387997523,0.009163499809801579,0.09787510009482503,1.0,4.123209199868143,,,,,,,,,,,,,,,4953,Moral,2024-08-21_12h45.52.255,MoralCondition_v2,2022.2.5,29.987794951322527,
19,0,19,0,4,0,4,0,,,,,,,,,,,,,,,,,,,,,,,,,,,,,,,,,,,,,,,,,,,,,,,,,,,,1190.260396800004,1190.260396800004,0.008335900027304888,0.11408310011029243,2.0,4.306522899772972,,,,,,,,,,,,,,,4953,Moral,2024-08-21_12h45.52.255,MoralCondition_v2,2022.2.5,29.987794951322527,
19,0,19,0,5,0,5,0,,,,,,,,,,,,,,,,,,,,,,,,,,,,,,,,,,,,,,,,,,,,,,,,,,,,1194.5937501001172,1194.5937501001172,0.008555700071156025,0.09824489988386631,6.0,6.656784699764103,,,,,,,,,,,,,,,4953,Moral,2024-08-21_12h45.52.255,MoralCondition_v2,2022.2.5,29.987794951322527,
19,0,19,0,6,0,6,0,,,,,,,,,,,,,,,,,,,,,,,,,,,,,,,,,,,,,,,,,,,,,,,,,,,,1201.293664699886,1201.293664699886,0.007438899949193001,0.09800769994035363,1.0,1.824806499760598,,,,,,,,,,,,,,,4953,Moral,2024-08-21_12h45.52.255,MoralCondition_v2,2022.2.5,29.987794951322527,
19,0,19,0,,,,,,,,,,,,,,,,,,,,,,,,,,,,,,,,,,,,,,,,,,,,,,,,,,,,,,,,,,,,,,1203.1602658000775,1203.1602658000775,0.000694899819791317,0.09911849955096841,1.0,1.632765400223434,,,,,,,,,4953,Moral,2024-08-21_12h45.52.255,MoralCondition_v2,2022.2.5,29.987794951322527,
