loop.thisRepN,loop.thisTrialN,loop.thisN,loop.thisIndex,evaluate_all_emotions.thisRepN,evaluate_all_emotions.thisTrialN,evaluate_all_emotions.thisN,evaluate_all_emotions.thisIndex,sync_beep_1.started,p_port.started,p_port.stopped,sync_beep_2.started,sync_beep_3.started,sync_beep_3.stopped,sync_beep_4.started,sync_beep_4.stopped,baseline.started,p_port_2.started,p_port_2.stopped,baseline.stopped,p_port_3.started,Game_Start_Text.started,p_port_4.started,p_port_4.stopped,key_resp.started,key_resp.keys,key_resp.rt,fixation_cross.started,p_port_5.started,p_port_5.stopped,fixation_cross.stopped,p_port_6.started,player_image_intro.started,player_name_intro.started,p_port_7.started,p_port_7.stopped,p_port_8.started,player_image_offer.started,player_name_offer.started,proposed_split.started,p_port_9.started,p_port_9.stopped,proposed_split.stopped,accept_reject.started,p_port_15.started,p_port_15.stopped,accept_reject.stopped,p_port_10.started,arrow_instructions.started,offer_choice.started,p_port_11.started,p_port_11.stopped,offer_choice.keys,offer_choice.rt,Instructions_Affinity_Score.started,p_port_12.started,p_port_12.stopped,Emotion_Image.started,AffinityScore.started,p_port_13.started,p_port_13.stopped,AffinityScore.response,AffinityScore.rt,Instruction.started,Moral_Disgust_Score.started,p_port_14.started,p_port_14.stopped,Moral_Disgust_Score.response,Moral_Disgust_Score.rt,player_image_intro.stopped,player_name_intro.stopped,player_image_offer.stopped,player_name_offer.stopped,p_port_6.stopped,Instructions_Affinity_Score.stopped,p_port_8.stopped,p_port_10.stopped,participant,session,date,expName,psychopyVersion,frameRate,
,,,,,,,,15.390081846714018,0.0007764995098114014,0.11737019941210747,15.987801649048924,16.587860448658468,16.887840200215578,17.187851949036123,17.50457390025258,17.50457390025258,0.017585398629307747,0.11754489876329899,32.50433939881623,15.000581700354815,32.62131579965353,0.0011030007153749466,0.10082560032606125,33.07099529914558,space,1.2579705007374287,,,,,,,,,,,,,,,,,,,,,,,,,,,,,,,,,,,,,,,,,,,,,,,,,,,5010,Moral,2024-07-08_19h33.09.540,MoralCondition_v2,2022.2.5,29.993461473378428,
0,0,0,0,0,0,0,0,,,,,,,,,,,,,,,,,,,,34.387891098856926,0.0015668999403715134,0.09839559905230999,40.40447819977999,6.015111999586225,40.67116959951818,40.67116959951818,0.14672300033271313,0.2817834001034498,6.015080099925399,46.7046172991395,46.7046172991395,46.7046172991395,0.08005999960005283,0.21510029956698418,52.40460759960115,52.57112680003047,6.015091700479388,6.115030599758029,58.571092300117016,12.015090599656105,58.70434399880469,58.70434399880469,0.015328500419855118,0.11498649977147579,down,2.992288999259472,61.73795489966869,4.540011286735535e-05,0.09769829921424389,67.77100299857557,67.77100299857557,0.0286117997020483,0.13118059933185577,3.0,10.386938599869609,,,,,,,,,,,,,,,5010,Moral,2024-07-08_19h33.09.540,MoralCondition_v2,2022.2.5,29.993461473378428,
0,0,0,0,1,0,1,0,,,,,,,,,,,,,,,,,,,,,,,,,,,,,,,,,,,,,,,,,,,,,,,,,,78.18785860016942,78.18785860016942,0.009327499195933342,0.09882720001041889,5.0,3.890658000484109,,,,,,,,,,,,,,,5010,Moral,2024-07-08_19h33.09.540,MoralCondition_v2,2022.2.5,29.993461473378428,
0,0,0,0,2,0,2,0,,,,,,,,,,,,,,,,,,,,,,,,,,,,,,,,,,,,,,,,,,,,,,,,,,82.13792159967124,82.13792159967124,0.017932100221514702,0.11560590006411076,5.0,3.232286399230361,,,,,,,,,,,,,,,5010,Moral,2024-07-08_19h33.09.540,MoralCondition_v2,2022.2.5,29.993461473378428,
0,0,0,0,3,0,3,0,,,,,,,,,,,,,,,,,,,,,,,,,,,,,,,,,,,,,,,,,,,,,,,,,,85.40442179888487,85.40442179888487,0.008113598451018333,0.09757889993488789,3.0,4.6904924008995295,,,,,,,,,,,,,,,5010,Moral,2024-07-08_19h33.09.540,MoralCondition_v2,2022.2.5,29.993461473378428,
0,0,0,0,4,0,4,0,,,,,,,,,,,,,,,,,,,,,,,,,,,,,,,,,,,,,,,,,,,,,,,,,,90.15455240011215,90.15455240011215,0.011118900030851364,0.11611369997262955,6.0,2.8726669996976852,,,,,,,,,,,,,,,5010,Moral,2024-07-08_19h33.09.540,MoralCondition_v2,2022.2.5,29.993461473378428,
0,0,0,0,5,0,5,0,,,,,,,,,,,,,,,,,,,,,,,,,,,,,,,,,,,,,,,,,,,,,,,,,,93.07106909900904,93.07106909900904,0.01072629913687706,0.1145337987691164,6.0,4.004922900348902,,,,,,,,,,,,,,,5010,Moral,2024-07-08_19h33.09.540,MoralCondition_v2,2022.2.5,29.993461473378428,
0,0,0,0,6,0,6,0,,,,,,,,,,,,,,,,,,,,,,,,,,,,,,,,,,,,,,,,,,,,,,,,,,97.12093430012465,97.12093430012465,0.019224299117922783,0.11451230011880398,4.0,9.36283460073173,,,,,,,,,,,,,,,5010,Moral,2024-07-08_19h33.09.540,MoralCondition_v2,2022.2.5,29.993461473378428,
0,0,0,0,,,,,,,,,,,,,,,,,,,,,,,,,,,,,,,,,,,,,,,,,,,,,,,,,,,,,,,,,,,,106.52083309926093,106.52083309926093,0.001367298886179924,0.09772570058703423,3.0,6.697575798258185,,,,,,,,,5010,Moral,2024-07-08_19h33.09.540,MoralCondition_v2,2022.2.5,29.993461473378428,
1,0,1,0,0,0,0,0,,,,,,,,,,,,,,,,,,,,113.25473359972239,0.00021499954164028168,0.0982121005654335,119.27093429863453,6.014963099732995,119.4545913990587,119.4545913990587,0.08156079985201359,0.198488000780344,6.031528100371361,125.5543958991766,125.5543958991766,125.5543958991766,0.08737990073859692,0.1984673012048006,131.25447409972548,131.4543209001422,6.031586300581694,6.131531700491905,137.45431749895215,12.031579900532961,137.58771950006485,137.58771950006485,0.0317631009966135,0.1314789019525051,down,2.0530849006026983,139.68764329887927,3.929995000362396e-05,0.0979629997164011,145.72141169942915,145.72141169942915,0.025624500587582588,0.1314838994294405,2.0,3.606947099789977,,,,,,,125.45430419966578,125.45430419966578,137.5543014984578,137.5543014984578,,,,,5010,Moral,2024-07-08_19h33.09.540,MoralCondition_v2,2022.2.5,29.993461473378428,
1,0,1,0,1,0,1,0,,,,,,,,,,,,,,,,,,,,,,,,,,,,,,,,,,,,,,,,,,,,,,,,,,149.37117149867117,149.37117149867117,0.008216500282287598,0.11425079964101315,5.0,2.2737796995788813,,,,,,,,,,,,,,,5010,Moral,2024-07-08_19h33.09.540,MoralCondition_v2,2022.2.5,29.993461473378428,
1,0,1,0,2,0,2,0,,,,,,,,,,,,,,,,,,,,,,,,,,,,,,,,,,,,,,,,,,,,,,,,,,151.6712795998901,151.6712795998901,0.006821500137448311,0.09824270009994507,5.0,3.992371501401067,,,,,,,,,,,,,,,5010,Moral,2024-07-08_19h33.09.540,MoralCondition_v2,2022.2.5,29.993461473378428,
1,0,1,0,3,0,3,0,,,,,,,,,,,,,,,,,,,,,,,,,,,,,,,,,,,,,,,,,,,,,,,,,,155.72114050015807,155.72114050015807,0.00831570103764534,0.11401110142469406,5.0,2.0733998995274305,,,,,,,,,,,,,,,5010,Moral,2024-07-08_19h33.09.540,MoralCondition_v2,2022.2.5,29.993461473378428,
1,0,1,0,4,0,4,0,,,,,,,,,,,,,,,,,,,,,,,,,,,,,,,,,,,,,,,,,,,,,,,,,,157.83787229843438,157.83787229843438,0.007650300860404968,0.11436170153319836,3.0,3.0410639997571707,,,,,,,,,,,,,,,5010,Moral,2024-07-08_19h33.09.540,MoralCondition_v2,2022.2.5,29.993461473378428,
1,0,1,0,5,0,5,0,,,,,,,,,,,,,,,,,,,,,,,,,,,,,,,,,,,,,,,,,,,,,,,,,,160.90408659912646,160.90408659912646,0.0068129003047943115,0.09903430007398129,6.0,1.6935855001211166,,,,,,,,,,,,,,,5010,Moral,2024-07-08_19h33.09.540,MoralCondition_v2,2022.2.5,29.993461473378428,
1,0,1,0,6,0,6,0,,,,,,,,,,,,,,,,,,,,,,,,,,,,,,,,,,,,,,,,,,,,,,,,,,162.63749829865992,162.63749829865992,0.006606699898838997,0.0990062989294529,4.0,4.193541498854756,,,,,,,,,,,,,,,5010,Moral,2024-07-08_19h33.09.540,MoralCondition_v2,2022.2.5,29.993461473378428,
1,0,1,0,,,,,,,,,,,,,,,,,,,,,,,,,,,,,,,,,,,,,,,,,,,,,,,,,,,,,,,,,,,,166.87100929953158,166.87100929953158,0.0013145003467798233,0.0975928008556366,2.0,2.2641333993524313,,,,,,,,,5010,Moral,2024-07-08_19h33.09.540,MoralCondition_v2,2022.2.5,29.993461473378428,
2,0,2,0,0,0,0,0,,,,,,,,,,,,,,,,,,,,169.17117359861732,0.00021739862859249115,0.09826689958572388,175.1708742994815,6.031615298241377,175.3874658998102,175.3874658998102,0.10796280018985271,0.21516979858279228,6.014900200068951,181.4542014990002,181.4542014990002,181.4542014990002,0.07593310065567493,0.181785698980093,187.15415959991515,187.3543133996427,6.015075799077749,6.114865699782968,193.35419279895723,12.01494500041008,193.48752279952168,193.48752279952168,0.015130599960684776,0.11484299972653389,up,0.6725983023643494,194.20417409949005,4.350021481513977e-05,0.09791599959135056,200.22075359895825,200.22075359895825,0.026350699365139008,0.114461999386549,2.0,3.722605800256133,,,,,,,,,193.45434789918363,193.45434789918363,,,,,5010,Moral,2024-07-08_19h33.09.540,MoralCondition_v2,2022.2.5,29.993461473378428,
2,0,2,0,1,0,1,0,,,,,,,,,,,,,,,,,,,,,,,,,,,,,,,,,,,,,,,,,,,,,,,,,,203.98744799941778,203.98744799941778,0.006803199648857117,0.0992858000099659,5.0,2.526680998504162,,,,,,,,,,,,,,,5010,Moral,2024-07-08_19h33.09.540,MoralCondition_v2,2022.2.5,29.993461473378428,
2,0,2,0,2,0,2,0,,,,,,,,,,,,,,,,,,,,,,,,,,,,,,,,,,,,,,,,,,,,,,,,,,206.5541229993105,206.5541229993105,0.006685798987746239,0.09943119995296001,3.0,2.1604497991502285,,,,,,,,,,,,,,,5010,Moral,2024-07-08_19h33.09.540,MoralCondition_v2,2022.2.5,29.993461473378428,
2,0,2,0,3,0,3,0,,,,,,,,,,,,,,,,,,,,,,,,,,,,,,,,,,,,,,,,,,,,,,,,,,208.75410049967468,208.75410049967468,0.008036799728870392,0.09924570098519325,2.0,2.392154600471258,,,,,,,,,,,,,,,5010,Moral,2024-07-08_19h33.09.540,MoralCondition_v2,2022.2.5,29.993461473378428,
2,0,2,0,4,0,4,0,,,,,,,,,,,,,,,,,,,,,,,,,,,,,,,,,,,,,,,,,,,,,,,,,,211.187386399135,211.187386399135,0.007365800440311432,0.09746289998292923,5.0,1.7249537017196417,,,,,,,,,,,,,,,5010,Moral,2024-07-08_19h33.09.540,MoralCondition_v2,2022.2.5,29.993461473378428,
2,0,2,0,5,0,5,0,,,,,,,,,,,,,,,,,,,,,,,,,,,,,,,,,,,,,,,,,,,,,,,,,,212.9542038999498,212.9542038999498,0.007758699357509613,0.0979153998196125,3.0,2.7244029995054007,,,,,,,,,,,,,,,5010,Moral,2024-07-08_19h33.09.540,MoralCondition_v2,2022.2.5,29.993461473378428,
2,0,2,0,6,0,6,0,,,,,,,,,,,,,,,,,,,,,,,,,,,,,,,,,,,,,,,,,,,,,,,,,,215.72074569948018,215.72074569948018,0.0070379991084337234,0.09815610013902187,3.0,1.7255454994738102,,,,,,,,,,,,,,,5010,Moral,2024-07-08_19h33.09.540,MoralCondition_v2,2022.2.5,29.993461473378428,
2,0,2,0,,,,,,,,,,,,,,,,,,,,,,,,,,,,,,,,,,,,,,,,,,,,,,,,,,,,,,,,,,,,217.48759419843554,217.48759419843554,0.0006748009473085403,0.09898200072348118,5.0,5.099542999640107,,,,,,,,,5010,Moral,2024-07-08_19h33.09.540,MoralCondition_v2,2022.2.5,29.993461473378428,
3,0,3,0,0,0,0,0,,,,,,,,,,,,,,,,,,,,222.62109379842877,0.0003437995910644531,0.09770629927515984,228.637372398749,6.014265498146415,228.80405540019274,228.80405540019274,0.07815410010516644,0.18113460019230843,6.01436460018158,234.90385549888015,234.90385549888015,234.90385549888015,0.07369690015912056,0.1809128001332283,240.60406919941306,240.8040418997407,6.014275100082159,6.114222899079323,246.80412700027227,12.014363400638103,246.93734859861434,246.93734859861434,0.014535600319504738,0.11413330025970936,down,1.9994700010865927,248.97094909846783,0.00011310167610645294,0.09763270057737827,254.98749299906194,254.98749299906194,0.025588801130652428,0.11458440124988556,2.0,5.156529199331999,,,,,,,234.80403910018504,234.80403910018504,246.90409079939127,246.90409079939127,,,,,5010,Moral,2024-07-08_19h33.09.540,MoralCondition_v2,2022.2.5,29.993461473378428,
3,0,3,0,1,0,1,0,,,,,,,,,,,,,,,,,,,,,,,,,,,,,,,,,,,,,,,,,,,,,,,,,,260.1873856987804,260.1873856987804,0.008400499820709229,0.09730410017073154,6.0,3.0230669006705284,,,,,,,,,,,,,,,5010,Moral,2024-07-08_19h33.09.540,MoralCondition_v2,2022.2.5,29.993461473378428,
3,0,3,0,2,0,2,0,,,,,,,,,,,,,,,,,,,,,,,,,,,,,,,,,,,,,,,,,,,,,,,,,,263.25387809984386,263.25387809984386,0.006819600239396095,0.09921560063958168,6.0,2.926885599270463,,,,,,,,,,,,,,,5010,Moral,2024-07-08_19h33.09.540,MoralCondition_v2,2022.2.5,29.993461473378428,
3,0,3,0,3,0,3,0,,,,,,,,,,,,,,,,,,,,,,,,,,,,,,,,,,,,,,,,,,,,,,,,,,266.2207067999989,266.2207067999989,0.006759699434041977,0.09929319843649864,5.0,2.0603216998279095,,,,,,,,,,,,,,,5010,Moral,2024-07-08_19h33.09.540,MoralCondition_v2,2022.2.5,29.993461473378428,
3,0,3,0,4,0,4,0,,,,,,,,,,,,,,,,,,,,,,,,,,,,,,,,,,,,,,,,,,,,,,,,,,268.33735840022564,268.33735840022564,0.0089820995926857,0.11384519934654236,5.0,1.9729420002549887,,,,,,,,,,,,,,,5010,Moral,2024-07-08_19h33.09.540,MoralCondition_v2,2022.2.5,29.993461473378428,
3,0,3,0,5,0,5,0,,,,,,,,,,,,,,,,,,,,,,,,,,,,,,,,,,,,,,,,,,,,,,,,,,270.3374145999551,270.3374145999551,0.006909700110554695,0.09917780011892319,3.0,2.1933896001428366,,,,,,,,,,,,,,,5010,Moral,2024-07-08_19h33.09.540,MoralCondition_v2,2022.2.5,29.993461473378428,
3,0,3,0,6,0,6,0,,,,,,,,,,,,,,,,,,,,,,,,,,,,,,,,,,,,,,,,,,,,,,,,,,272.58750739879906,272.58750739879906,0.008715100586414337,0.11414599977433681,4.0,4.5064247995615005,,,,,,,,,,,,,,,5010,Moral,2024-07-08_19h33.09.540,MoralCondition_v2,2022.2.5,29.993461473378428,
3,0,3,0,,,,,,,,,,,,,,,,,,,,,,,,,,,,,,,,,,,,,,,,,,,,,,,,,,,,,,,,,,,,277.12097909860313,277.12097909860313,0.0014978982508182526,0.09733689948916435,2.0,2.4972083996981382,,,,,,,,,5010,Moral,2024-07-08_19h33.09.540,MoralCondition_v2,2022.2.5,29.993461473378428,
4,0,4,0,0,0,0,0,,,,,,,,,,,,,,,,,,,,279.6542827989906,0.00032899901270866394,0.0979251004755497,285.6371943000704,6.014530200511217,285.82055009901524,285.82055009901524,0.0596149992197752,0.16476730071008205,6.031168699264526,291.9538758993149,291.9538758993149,291.9538758993149,0.09336720034480095,0.1978485006839037,297.65389179997146,297.85387159883976,6.031216600909829,6.131273301318288,303.8538629002869,12.031240001320839,303.98729799874127,303.98729799874127,0.03146140091121197,0.1312906015664339,up,2.2369887996464968,306.28719099983573,4.279986023902893e-05,0.098021000623703,312.3042442984879,312.3042442984879,0.024763399735093117,0.11471590027213097,6.0,1.957660399377346,,,,,,,291.82055339962244,291.82055339962244,303.9539378993213,303.9539378993213,6.097685199230909,,,,5010,Moral,2024-07-08_19h33.09.540,MoralCondition_v2,2022.2.5,29.993461473378428,
4,0,4,0,1,0,1,0,,,,,,,,,,,,,,,,,,,,,,,,,,,,,,,,,,,,,,,,,,,,,,,,,,314.3038147985935,314.3038147985935,0.0069135986268520355,0.0980530995875597,3.0,2.2928627002984285,,,,,,,,,,,,,,,5010,Moral,2024-07-08_19h33.09.540,MoralCondition_v2,2022.2.5,29.993461473378428,
4,0,4,0,2,0,2,0,,,,,,,,,,,,,,,,,,,,,,,,,,,,,,,,,,,,,,,,,,,,,,,,,,316.6371503993869,316.6371503993869,0.00725569948554039,0.09916239976882935,5.0,1.9262160994112492,,,,,,,,,,,,,,,5010,Moral,2024-07-08_19h33.09.540,MoralCondition_v2,2022.2.5,29.993461473378428,
4,0,4,0,3,0,3,0,,,,,,,,,,,,,,,,,,,,,,,,,,,,,,,,,,,,,,,,,,,,,,,,,,318.603814098984,318.603814098984,0.006782699376344681,0.09925780072808266,4.0,5.627273801714182,,,,,,,,,,,,,,,5010,Moral,2024-07-08_19h33.09.540,MoralCondition_v2,2022.2.5,29.993461473378428,
4,0,4,0,4,0,4,0,,,,,,,,,,,,,,,,,,,,,,,,,,,,,,,,,,,,,,,,,,,,,,,,,,324.27058159932494,324.27058159932494,0.008557198569178581,0.09746040031313896,3.0,2.556902000680566,,,,,,,,,,,,,,,5010,Moral,2024-07-08_19h33.09.540,MoralCondition_v2,2022.2.5,29.993461473378428,
4,0,4,0,5,0,5,0,,,,,,,,,,,,,,,,,,,,,,,,,,,,,,,,,,,,,,,,,,,,,,,,,,326.8704779986292,326.8704779986292,0.007145799696445465,0.0973947998136282,3.0,1.8579709995537996,,,,,,,,,,,,,,,5010,Moral,2024-07-08_19h33.09.540,MoralCondition_v2,2022.2.5,29.993461473378428,
4,0,4,0,6,0,6,0,,,,,,,,,,,,,,,,,,,,,,,,,,,,,,,,,,,,,,,,,,,,,,,,,,328.78728279843926,328.78728279843926,0.008675800636410713,0.11460470035672188,3.0,2.8403733000159264,,,,,,,,,,,,,,,5010,Moral,2024-07-08_19h33.09.540,MoralCondition_v2,2022.2.5,29.993461473378428,
4,0,4,0,,,,,,,,,,,,,,,,,,,,,,,,,,,,,,,,,,,,,,,,,,,,,,,,,,,,,,,,,,,,331.653904998675,331.653904998675,0.0007194001227617264,0.09895640052855015,3.0,2.89952389895916,,,,,,,,,5010,Moral,2024-07-08_19h33.09.540,MoralCondition_v2,2022.2.5,29.993461473378428,
5,0,5,0,0,0,0,0,,,,,,,,,,,,,,,,,,,,334.58734349906445,0.0002732016146183014,0.09796970151364803,340.58703929930925,6.031272200867534,340.853544799611,340.853544799611,0.14824840053915977,0.264605401083827,6.031217901036143,346.8869623001665,346.8869623001665,346.8869623001665,0.08658160082995892,0.19814050197601318,352.5869951993227,352.7870054990053,6.031243700534105,6.131138501688838,358.78711929917336,12.03137000091374,358.92031409963965,358.92031409963965,0.03138530254364014,0.13104090094566345,down,1.6406221017241478,360.6203329991549,4.5999884605407715e-05,0.0980651006102562,366.65355909988284,366.65355909988284,0.02752850018441677,0.1313382014632225,6.0,2.37159620039165,,,,,,,,,358.8869604989886,358.8869604989886,,,,,5010,Moral,2024-07-08_19h33.09.540,MoralCondition_v2,2022.2.5,29.993461473378428,
5,0,5,0,1,0,1,0,,,,,,,,,,,,,,,,,,,,,,,,,,,,,,,,,,,,,,,,,,,,,,,,,,369.0705273002386,369.0705273002386,0.008723100647330284,0.11454140022397041,5.0,2.406801899895072,,,,,,,,,,,,,,,5010,Moral,2024-07-08_19h33.09.540,MoralCondition_v2,2022.2.5,29.993461473378428,
5,0,5,0,2,0,2,0,,,,,,,,,,,,,,,,,,,,,,,,,,,,,,,,,,,,,,,,,,,,,,,,,,371.5036618988961,371.5036618988961,0.006802098825573921,0.09891209937632084,4.0,3.0932180993258953,,,,,,,,,,,,,,,5010,Moral,2024-07-08_19h33.09.540,MoralCondition_v2,2022.2.5,29.993461473378428,
5,0,5,0,3,0,3,0,,,,,,,,,,,,,,,,,,,,,,,,,,,,,,,,,,,,,,,,,,,,,,,,,,374.63686859980226,374.63686859980226,0.007161499932408333,0.09809049963951111,3.0,2.558670001104474,,,,,,,,,,,,,,,5010,Moral,2024-07-08_19h33.09.540,MoralCondition_v2,2022.2.5,29.993461473378428,
5,0,5,0,4,0,4,0,,,,,,,,,,,,,,,,,,,,,,,,,,,,,,,,,,,,,,,,,,,,,,,,,,377.236939098686,377.236939098686,0.006853599101305008,0.09906020015478134,5.0,1.6601033005863428,,,,,,,,,,,,,,,5010,Moral,2024-07-08_19h33.09.540,MoralCondition_v2,2022.2.5,29.993461473378428,
5,0,5,0,5,0,5,0,,,,,,,,,,,,,,,,,,,,,,,,,,,,,,,,,,,,,,,,,,,,,,,,,,378.9370341990143,378.9370341990143,0.006370401009917259,0.09922810085117817,4.0,3.694183299317956,,,,,,,,,,,,,,,5010,Moral,2024-07-08_19h33.09.540,MoralCondition_v2,2022.2.5,29.993461473378428,
5,0,5,0,6,0,6,0,,,,,,,,,,,,,,,,,,,,,,,,,,,,,,,,,,,,,,,,,,,,,,,,,,382.6702060997486,382.6702060997486,0.007536599412560463,0.09790029935538769,3.0,1.9914630986750126,,,,,,,,,,,,,,,5010,Moral,2024-07-08_19h33.09.540,MoralCondition_v2,2022.2.5,29.993461473378428,
5,0,5,0,,,,,,,,,,,,,,,,,,,,,,,,,,,,,,,,,,,,,,,,,,,,,,,,,,,,,,,,,,,,384.70337750017643,384.70337750017643,0.0018783006817102432,0.09719439968466759,2.0,2.2965891994535923,,,,,,,,,5010,Moral,2024-07-08_19h33.09.540,MoralCondition_v2,2022.2.5,29.993461473378428,
6,0,6,0,0,0,0,0,,,,,,,,,,,,,,,,,,,,387.036978200078,0.00037339888513088226,0.0975652989000082,393.0535546001047,6.014257399365306,393.2202217001468,393.2202217001468,0.07004540041089058,0.18129290081560612,6.01423230022192,399.32034209929407,399.32034209929407,399.32034209929407,0.06611880101263523,0.1810196004807949,405.02018420025706,405.22017389908433,6.0142625998705626,6.114231899380684,411.22012209892273,12.014250200241804,411.3366789985448,411.3366789985448,0.014106299728155136,0.0973323006182909,up,0.9761515017598867,412.3701440989971,3.429874777793884e-05,0.09810139983892441,418.4033358991146,418.4033358991146,0.027631599456071854,0.13115299865603447,3.0,3.1043689008802176,,,,,,,399.20331969857216,399.20331969857216,411.30332509987056,411.30332509987056,,,,,5010,Moral,2024-07-08_19h33.09.540,MoralCondition_v2,2022.2.5,29.993461473378428,
6,0,6,0,1,0,1,0,,,,,,,,,,,,,,,,,,,,,,,,,,,,,,,,,,,,,,,,,,,,,,,,,,421.5366706997156,421.5366706997156,0.006365898996591568,0.09926879964768887,5.0,3.094065800309181,,,,,,,,,,,,,,,5010,Moral,2024-07-08_19h33.09.540,MoralCondition_v2,2022.2.5,29.993461473378428,
6,0,6,0,2,0,2,0,,,,,,,,,,,,,,,,,,,,,,,,,,,,,,,,,,,,,,,,,,,,,,,,,,424.68703920021653,424.68703920021653,0.007927600294351578,0.11453890055418015,3.0,2.2748181000351906,,,,,,,,,,,,,,,5010,Moral,2024-07-08_19h33.09.540,MoralCondition_v2,2022.2.5,29.993461473378428,
6,0,6,0,3,0,3,0,,,,,,,,,,,,,,,,,,,,,,,,,,,,,,,,,,,,,,,,,,,,,,,,,,426.98664729855955,426.98664729855955,0.006440499797463417,0.09919629991054535,5.0,2.0270943995565176,,,,,,,,,,,,,,,5010,Moral,2024-07-08_19h33.09.540,MoralCondition_v2,2022.2.5,29.993461473378428,
6,0,6,0,4,0,4,0,,,,,,,,,,,,,,,,,,,,,,,,,,,,,,,,,,,,,,,,,,,,,,,,,,429.0534728989005,429.0534728989005,0.007454799488186836,0.09782079979777336,4.0,3.0246724002063274,,,,,,,,,,,,,,,5010,Moral,2024-07-08_19h33.09.540,MoralCondition_v2,2022.2.5,29.993461473378428,
6,0,6,0,5,0,5,0,,,,,,,,,,,,,,,,,,,,,,,,,,,,,,,,,,,,,,,,,,,,,,,,,,432.12012629956007,432.12012629956007,0.007377699017524719,0.09790140017867088,5.0,2.89180420152843,,,,,,,,,,,,,,,5010,Moral,2024-07-08_19h33.09.540,MoralCondition_v2,2022.2.5,29.993461473378428,
6,0,6,0,6,0,6,0,,,,,,,,,,,,,,,,,,,,,,,,,,,,,,,,,,,,,,,,,,,,,,,,,,435.05343030020595,435.05343030020595,0.007597699761390686,0.09762759879231453,6.0,1.657753400504589,,,,,,,,,,,,,,,5010,Moral,2024-07-08_19h33.09.540,MoralCondition_v2,2022.2.5,29.993461473378428,
6,0,6,0,,,,,,,,,,,,,,,,,,,,,,,,,,,,,,,,,,,,,,,,,,,,,,,,,,,,,,,,,,,,436.7534929998219,436.7534929998219,0.0006827991455793381,0.09912929870188236,4.0,5.4329701997339725,,,,,,,,,5010,Moral,2024-07-08_19h33.09.540,MoralCondition_v2,2022.2.5,29.993461473378428,
7,0,7,0,0,0,0,0,,,,,,,,,,,,,,,,,,,,442.22044339962304,0.00024399906396865845,0.098055399954319,448.21996679902077,6.031293598935008,448.4367587994784,448.4367587994784,0.10644610039889812,0.2145588994026184,6.014766499400139,454.50343439914286,454.50343439914286,454.50343439914286,0.0680989008396864,0.18141569942235947,460.20333299972117,460.40329849906266,6.014637200161815,6.114432500675321,466.40332569926977,12.01465079933405,466.5367267988622,466.5367267988622,0.014695899561047554,0.1145957000553608,down,1.6719301007688046,468.2699302993715,4.1600316762924194e-05,0.09775299951434135,474.2865885999054,474.2865885999054,0.010913999751210213,0.11444569937884808,2.0,2.5044702999293804,,,,,,,,,466.503281198442,466.503281198442,,474.2865885999054,,,5010,Moral,2024-07-08_19h33.09.540,MoralCondition_v2,2022.2.5,29.993461473378428,
7,0,7,0,1,0,1,0,,,,,,,,,,,,,,,,,,,,,,,,,,,,,,,,,,,,,,,,,,,,,,,,,,476.8367836996913,476.8367836996913,0.007889999076724052,0.1140953004360199,3.0,2.3072905987501144,,,,,,,,,,,,,,,5010,Moral,2024-07-08_19h33.09.540,MoralCondition_v2,2022.2.5,29.993461473378428,
7,0,7,0,2,0,2,0,,,,,,,,,,,,,,,,,,,,,,,,,,,,,,,,,,,,,,,,,,,,,,,,,,479.1698099989444,479.1698099989444,0.006701299920678139,0.09908449836075306,3.0,3.826620701700449,,,,,,,,,,,,,,,5010,Moral,2024-07-08_19h33.09.540,MoralCondition_v2,2022.2.5,29.993461473378428,
7,0,7,0,3,0,3,0,,,,,,,,,,,,,,,,,,,,,,,,,,,,,,,,,,,,,,,,,,,,,,,,,,483.0536611992866,483.0536611992866,0.007849600166082382,0.1141956988722086,3.0,2.1407389994710684,,,,,,,,,,,,,,,5010,Moral,2024-07-08_19h33.09.540,MoralCondition_v2,2022.2.5,29.993461473378428,
7,0,7,0,4,0,4,0,,,,,,,,,,,,,,,,,,,,,,,,,,,,,,,,,,,,,,,,,,,,,,,,,,485.2198331002146,485.2198331002146,0.007401099428534508,0.09786859899759293,5.0,1.624796399846673,,,,,,,,,,,,,,,5010,Moral,2024-07-08_19h33.09.540,MoralCondition_v2,2022.2.5,29.993461473378428,
7,0,7,0,5,0,5,0,,,,,,,,,,,,,,,,,,,,,,,,,,,,,,,,,,,,,,,,,,,,,,,,,,486.88658439926803,486.88658439926803,0.0070715006440877914,0.09943860024213791,6.0,1.159757200628519,,,,,,,,,,,,,,,5010,Moral,2024-07-08_19h33.09.540,MoralCondition_v2,2022.2.5,29.993461473378428,
7,0,7,0,6,0,6,0,,,,,,,,,,,,,,,,,,,,,,,,,,,,,,,,,,,,,,,,,,,,,,,,,,488.08675189875066,488.08675189875066,0.00684489868581295,0.09943689964711666,3.0,3.74362269975245,,,,,,,,,,,,,,,5010,Moral,2024-07-08_19h33.09.540,MoralCondition_v2,2022.2.5,29.993461473378428,
7,0,7,0,,,,,,,,,,,,,,,,,,,,,,,,,,,,,,,,,,,,,,,,,,,,,,,,,,,,,,,,,,,,491.8696403000504,491.8696403000504,0.00046980008482933044,0.09919589944183826,2.0,2.0332913007587194,,,,,,,,,5010,Moral,2024-07-08_19h33.09.540,MoralCondition_v2,2022.2.5,29.993461473378428,
8,0,8,0,0,0,0,0,,,,,,,,,,,,,,,,,,,,493.9363968987018,9.180046617984772e-05,0.09932279959321022,499.9366560988128,5.999469799920917,500.10296179912984,500.10296179912984,0.06360570155084133,0.16623570024967194,5.9993157014250755,506.2031788993627,506.2031788993627,506.2031788993627,0.06137460097670555,0.16623010113835335,511.903193898499,512.1032764986157,5.999598601832986,6.099300401285291,518.1030216999352,11.999314600601792,518.2364675998688,518.2364675998688,0.00024290196597576141,0.09930930100381374,up,0.612133800983429,518.9030566997826,4.260055720806122e-05,0.09789020009338856,524.9200860988349,524.9200860988349,0.008754799142479897,0.11461479961872101,5.0,2.273566998541355,,,,,,,506.10309590026736,506.10309590026736,518.2030429001898,518.2030429001898,6.0993670001626015,524.9200860988349,6.0994005016982555,12.099408101290464,5010,Moral,2024-07-08_19h33.09.540,MoralCondition_v2,2022.2.5,29.993461473378428,
8,0,8,0,1,0,1,0,,,,,,,,,,,,,,,,,,,,,,,,,,,,,,,,,,,,,,,,,,,,,,,,,,527.2366684991866,527.2366684991866,0.007829198613762856,0.11396019905805588,6.0,2.1407743990421295,,,,,,,,,,,,,,,5010,Moral,2024-07-08_19h33.09.540,MoralCondition_v2,2022.2.5,29.993461473378428,
8,0,8,0,2,0,2,0,,,,,,,,,,,,,,,,,,,,,,,,,,,,,,,,,,,,,,,,,,,,,,,,,,529.4030630998313,529.4030630998313,0.007959600538015366,0.0979044009000063,3.0,1.5907925982028246,,,,,,,,,,,,,,,5010,Moral,2024-07-08_19h33.09.540,MoralCondition_v2,2022.2.5,29.993461473378428,
8,0,8,0,3,0,3,0,,,,,,,,,,,,,,,,,,,,,,,,,,,,,,,,,,,,,,,,,,,,,,,,,,531.0363640990108,531.0363640990108,0.006738699972629547,0.09926250018179417,5.0,1.5600533988326788,,,,,,,,,,,,,,,5010,Moral,2024-07-08_19h33.09.540,MoralCondition_v2,2022.2.5,29.993461473378428,
8,0,8,0,4,0,4,0,,,,,,,,,,,,,,,,,,,,,,,,,,,,,,,,,,,,,,,,,,,,,,,,,,532.6361673995852,532.6361673995852,0.00763930007815361,0.0977070014923811,3.0,2.1600058991461992,,,,,,,,,,,,,,,5010,Moral,2024-07-08_19h33.09.540,MoralCondition_v2,2022.2.5,29.993461473378428,
8,0,8,0,5,0,5,0,,,,,,,,,,,,,,,,,,,,,,,,,,,,,,,,,,,,,,,,,,,,,,,,,,534.8368700984865,534.8368700984865,0.008239900693297386,0.09763140045106411,5.0,1.8235839996486902,,,,,,,,,,,,,,,5010,Moral,2024-07-08_19h33.09.540,MoralCondition_v2,2022.2.5,29.993461473378428,
8,0,8,0,6,0,6,0,,,,,,,,,,,,,,,,,,,,,,,,,,,,,,,,,,,,,,,,,,,,,,,,,,536.7029272001237,536.7029272001237,0.007624199613928795,0.09792489930987358,3.0,3.9246913008391857,,,,,,,,,,,,,,,5010,Moral,2024-07-08_19h33.09.540,MoralCondition_v2,2022.2.5,29.993461473378428,
8,0,8,0,,,,,,,,,,,,,,,,,,,,,,,,,,,,,,,,,,,,,,,,,,,,,,,,,,,,,,,,,,,,540.6698936000466,540.6698936000466,0.0007215999066829681,0.09928269870579243,5.0,2.8995552007108927,,,,,,,,,5010,Moral,2024-07-08_19h33.09.540,MoralCondition_v2,2022.2.5,29.993461473378428,
9,0,9,0,0,0,0,0,,,,,,,,,,,,,,,,,,,,543.6031571999192,0.0001414995640516281,0.09934369847178459,549.6032323986292,5.9992913994938135,549.7697202991694,549.7697202991694,0.05480320006608963,0.16610779985785484,5.999148299917579,555.8694287985563,555.8694287985563,555.8694287985563,0.05704469978809357,0.1657979991286993,561.569546898827,561.7695438992232,5.999174900352955,6.099122300744057,567.769725298509,11.999337699264288,567.9028409998864,567.9028409998864,9.999983012676239e-05,0.09925170056521893,up,0.8425153009593487,568.8028716985136,4.540011286735535e-05,0.0978643000125885,574.8195917997509,574.8195917997509,0.008065799251198769,0.1147571001201868,3.0,1.7074091993272305,,,,,,,555.7695482000709,555.7695482000709,567.8695422988385,567.8695422988385,6.099436599761248,574.8195917997509,6.099193500354886,12.09917120076716,5010,Moral,2024-07-08_19h33.09.540,MoralCondition_v2,2022.2.5,29.993461473378428,
9,0,9,0,1,0,1,0,,,,,,,,,,,,,,,,,,,,,,,,,,,,,,,,,,,,,,,,,,,,,,,,,,576.5527056995779,576.5527056995779,0.006607498973608017,0.09935769997537136,3.0,2.226867200806737,,,,,,,,,,,,,,,5010,Moral,2024-07-08_19h33.09.540,MoralCondition_v2,2022.2.5,29.993461473378428,
9,0,9,0,2,0,2,0,,,,,,,,,,,,,,,,,,,,,,,,,,,,,,,,,,,,,,,,,,,,,,,,,,578.8195596002042,578.8195596002042,0.007840998470783234,0.09743399918079376,5.0,1.690735699608922,,,,,,,,,,,,,,,5010,Moral,2024-07-08_19h33.09.540,MoralCondition_v2,2022.2.5,29.993461473378428,
9,0,9,0,3,0,3,0,,,,,,,,,,,,,,,,,,,,,,,,,,,,,,,,,,,,,,,,,,,,,,,,,,580.5529821999371,580.5529821999371,0.007167300209403038,0.09821699932217598,2.0,1.7918843999505043,,,,,,,,,,,,,,,5010,Moral,2024-07-08_19h33.09.540,MoralCondition_v2,2022.2.5,29.993461473378428,
9,0,9,0,4,0,4,0,,,,,,,,,,,,,,,,,,,,,,,,,,,,,,,,,,,,,,,,,,,,,,,,,,582.403278099373,582.403278099373,0.008156098425388336,0.11397659964859486,4.0,2.4070370011031628,,,,,,,,,,,,,,,5010,Moral,2024-07-08_19h33.09.540,MoralCondition_v2,2022.2.5,29.993461473378428,
9,0,9,0,5,0,5,0,,,,,,,,,,,,,,,,,,,,,,,,,,,,,,,,,,,,,,,,,,,,,,,,,,584.8362756986171,584.8362756986171,0.007684899494051933,0.09823779948055744,6.0,2.8247078005224466,,,,,,,,,,,,,,,5010,Moral,2024-07-08_19h33.09.540,MoralCondition_v2,2022.2.5,29.993461473378428,
9,0,9,0,6,0,6,0,,,,,,,,,,,,,,,,,,,,,,,,,,,,,,,,,,,,,,,,,,,,,,,,,,587.7027992997319,587.7027992997319,0.0076266005635261536,0.09823630005121231,3.0,2.4247907996177673,,,,,,,,,,,,,,,5010,Moral,2024-07-08_19h33.09.540,MoralCondition_v2,2022.2.5,29.993461473378428,
9,0,9,0,,,,,,,,,,,,,,,,,,,,,,,,,,,,,,,,,,,,,,,,,,,,,,,,,,,,,,,,,,,,590.1695038992912,590.1695038992912,0.0012685004621744156,0.09766630083322525,4.0,2.6310262996703386,,,,,,,,,5010,Moral,2024-07-08_19h33.09.540,MoralCondition_v2,2022.2.5,29.993461473378428,
10,0,10,0,0,0,0,0,,,,,,,,,,,,,,,,,,,,592.8363689985126,0.00013429857790470123,0.09961229935288429,598.8528354987502,6.0158338993787766,599.0196297001094,599.0196297001094,0.0752520002424717,0.18262740038335323,6.015921799466014,605.1195443999022,605.1195443999022,605.1195443999022,0.07492779940366745,0.1826127003878355,610.8193285986781,611.019310599193,6.015733499079943,6.115754099562764,617.0192478001118,12.015675500035286,617.1527232993394,617.1527232993394,0.016009900718927383,0.11567670106887817,down,3.088094102218747,620.2860233988613,4.8099085688591003e-05,0.09755389951169491,626.3026856984943,626.3026856984943,0.025058899074792862,0.11407719925045967,6.0,2.5903075989335775,,,,,,,605.0193312000483,605.0193312000483,617.1194380987436,617.1194380987436,,,,,5010,Moral,2024-07-08_19h33.09.540,MoralCondition_v2,2022.2.5,29.993461473378428,
10,0,10,0,1,0,1,0,,,,,,,,,,,,,,,,,,,,,,,,,,,,,,,,,,,,,,,,,,,,,,,,,,628.9359453991055,628.9359453991055,0.008935300633311272,0.09929149970412254,3.0,1.6580231990665197,,,,,,,,,,,,,,,5010,Moral,2024-07-08_19h33.09.540,MoralCondition_v2,2022.2.5,29.993461473378428,
10,0,10,0,2,0,2,0,,,,,,,,,,,,,,,,,,,,,,,,,,,,,,,,,,,,,,,,,,,,,,,,,,630.6360608991235,630.6360608991235,0.006815601140260696,0.0993598010390997,3.0,1.7267114985734224,,,,,,,,,,,,,,,5010,Moral,2024-07-08_19h33.09.540,MoralCondition_v2,2022.2.5,29.993461473378428,
10,0,10,0,3,0,3,0,,,,,,,,,,,,,,,,,,,,,,,,,,,,,,,,,,,,,,,,,,,,,,,,,,632.4027225989848,632.4027225989848,0.007826101034879684,0.09754490107297897,5.0,1.523997100070119,,,,,,,,,,,,,,,5010,Moral,2024-07-08_19h33.09.540,MoralCondition_v2,2022.2.5,29.993461473378428,
10,0,10,0,4,0,4,0,,,,,,,,,,,,,,,,,,,,,,,,,,,,,,,,,,,,,,,,,,,,,,,,,,633.9695557001978,633.9695557001978,0.0074713993817567825,0.09780759923160076,4.0,4.0913085006177425,,,,,,,,,,,,,,,5010,Moral,2024-07-08_19h33.09.540,MoralCondition_v2,2022.2.5,29.993461473378428,
10,0,10,0,5,0,5,0,,,,,,,,,,,,,,,,,,,,,,,,,,,,,,,,,,,,,,,,,,,,,,,,,,638.1025487985462,638.1025487985462,0.006421901285648346,0.09893259964883327,5.0,1.2267725989222527,,,,,,,,,,,,,,,5010,Moral,2024-07-08_19h33.09.540,MoralCondition_v2,2022.2.5,29.993461473378428,
10,0,10,0,6,0,6,0,,,,,,,,,,,,,,,,,,,,,,,,,,,,,,,,,,,,,,,,,,,,,,,,,,639.3692213986069,639.3692213986069,0.006689500063657761,0.09905510023236275,5.0,2.19353000074625,,,,,,,,,,,,,,,5010,Moral,2024-07-08_19h33.09.540,MoralCondition_v2,2022.2.5,29.993461473378428,
10,0,10,0,,,,,,,,,,,,,,,,,,,,,,,,,,,,,,,,,,,,,,,,,,,,,,,,,,,,,,,,,,,,641.6026735994965,641.6026735994965,0.0016370993107557297,0.09772139973938465,2.0,3.397181900218129,,,,,,,,,5010,Moral,2024-07-08_19h33.09.540,MoralCondition_v2,2022.2.5,29.993461473378428,
11,0,11,0,0,0,0,0,,,,,,,,,,,,,,,,,,,,645.0361035000533,0.00015589967370033264,0.09933860041201115,651.0190522000194,5.999009700492024,651.1856773998588,651.1856773998588,0.03719410113990307,0.14919930137693882,6.015680901706219,657.3192032985389,657.3192032985389,657.3192032985389,0.06802810169756413,0.18269780091941357,663.0191348996013,663.2191492002457,6.015854001045227,6.11592430062592,669.219276798889,12.01597380079329,669.3526411000639,669.3526411000639,0.016056301072239876,0.11581270210444927,up,0.7917422018945217,670.1857922002673,4.060007631778717e-05,0.0980846006423235,676.2024303991348,676.2024303991348,0.011181600391864777,0.1146658007055521,5.0,2.438025901094079,,,,,,,657.1690292991698,657.1690292991698,669.3191622998565,669.3191622998565,6.082327200099826,676.2024303991348,,,5010,Moral,2024-07-08_19h33.09.540,MoralCondition_v2,2022.2.5,29.993461473378428,
11,0,11,0,1,0,1,0,,,,,,,,,,,,,,,,,,,,,,,,,,,,,,,,,,,,,,,,,,,,,,,,,,678.6691461000592,678.6691461000592,0.0064557995647192,0.09891299903392792,3.0,4.093475600704551,,,,,,,,,,,,,,,5010,Moral,2024-07-08_19h33.09.540,MoralCondition_v2,2022.2.5,29.993461473378428,
11,0,11,0,2,0,2,0,,,,,,,,,,,,,,,,,,,,,,,,,,,,,,,,,,,,,,,,,,,,,,,,,,682.8024565987289,682.8024565987289,0.0060026999562978745,0.0987870991230011,5.0,2.793484700843692,,,,,,,,,,,,,,,5010,Moral,2024-07-08_19h33.09.540,MoralCondition_v2,2022.2.5,29.993461473378428,
11,0,11,0,3,0,3,0,,,,,,,,,,,,,,,,,,,,,,,,,,,,,,,,,,,,,,,,,,,,,,,,,,685.6356840990484,685.6356840990484,0.007019098848104477,0.0992990992963314,5.0,1.7266415990889072,,,,,,,,,,,,,,,5010,Moral,2024-07-08_19h33.09.540,MoralCondition_v2,2022.2.5,29.993461473378428,
11,0,11,0,4,0,4,0,,,,,,,,,,,,,,,,,,,,,,,,,,,,,,,,,,,,,,,,,,,,,,,,,,687.4024163000286,687.4024163000286,0.006394900381565094,0.09939239919185638,6.0,1.6937482990324497,,,,,,,,,,,,,,,5010,Moral,2024-07-08_19h33.09.540,MoralCondition_v2,2022.2.5,29.993461473378428,
11,0,11,0,5,0,5,0,,,,,,,,,,,,,,,,,,,,,,,,,,,,,,,,,,,,,,,,,,,,,,,,,,689.1526797991246,689.1526797991246,0.00912179984152317,0.11403520032763481,3.0,4.4389816001057625,,,,,,,,,,,,,,,5010,Moral,2024-07-08_19h33.09.540,MoralCondition_v2,2022.2.5,29.993461473378428,
11,0,11,0,6,0,6,0,,,,,,,,,,,,,,,,,,,,,,,,,,,,,,,,,,,,,,,,,,,,,,,,,,693.635918898508,693.635918898508,0.007919499650597572,0.11419099941849709,5.0,1.5073910001665354,,,,,,,,,,,,,,,5010,Moral,2024-07-08_19h33.09.540,MoralCondition_v2,2022.2.5,29.993461473378428,
11,0,11,0,,,,,,,,,,,,,,,,,,,,,,,,,,,,,,,,,,,,,,,,,,,,,,,,,,,,,,,,,,,,695.1689828000963,695.1689828000963,0.0006626006215810776,0.09925520047545433,3.0,2.0328863002359867,,,,,,,,,5010,Moral,2024-07-08_19h33.09.540,MoralCondition_v2,2022.2.5,29.993461473378428,
12,0,12,0,0,0,0,0,,,,,,,,,,,,,,,,,,,,697.235829198733,0.00023220106959342957,0.11468060128390789,703.2522301990539,6.014928000047803,703.4188502989709,703.4188502989709,0.0787753015756607,0.1815325003117323,6.01481700129807,709.5190292987972,709.5190292987972,709.5190292987972,0.07135720178484917,0.181750001385808,715.2189092002809,715.4188674986362,6.014772601425648,6.115058301016688,721.4188698995858,12.01477000117302,721.5521681997925,721.5521681997925,0.014747701585292816,0.11470770090818405,up,2.080103401094675,723.6688515990973,4.200078547000885e-05,0.09804479964077473,729.7023807987571,729.7023807987571,0.026089999824762344,0.13149790093302727,5.0,1.7396408002823591,,,,,,,709.4020290989429,709.4020290989429,721.518766598776,721.518766598776,,,,,5010,Moral,2024-07-08_19h33.09.540,MoralCondition_v2,2022.2.5,29.993461473378428,
12,0,12,0,1,0,1,0,,,,,,,,,,,,,,,,,,,,,,,,,,,,,,,,,,,,,,,,,,,,,,,,,,731.4691115990281,731.4691115990281,0.007511299103498459,0.09740770049393177,3.0,1.4915705993771553,,,,,,,,,,,,,,,5010,Moral,2024-07-08_19h33.09.540,MoralCondition_v2,2022.2.5,29.993461473378428,
12,0,12,0,2,0,2,0,,,,,,,,,,,,,,,,,,,,,,,,,,,,,,,,,,,,,,,,,,,,,,,,,,733.002148900181,733.002148900181,0.007758300751447678,0.0982016995549202,3.0,1.8246024996042252,,,,,,,,,,,,,,,5010,Moral,2024-07-08_19h33.09.540,MoralCondition_v2,2022.2.5,29.993461473378428,
12,0,12,0,3,0,3,0,,,,,,,,,,,,,,,,,,,,,,,,,,,,,,,,,,,,,,,,,,,,,,,,,,734.8686426989734,734.8686426989734,0.007862800732254982,0.09800440073013306,3.0,4.990909900516272,,,,,,,,,,,,,,,5010,Moral,2024-07-08_19h33.09.540,MoralCondition_v2,2022.2.5,29.993461473378428,
12,0,12,0,4,0,4,0,,,,,,,,,,,,,,,,,,,,,,,,,,,,,,,,,,,,,,,,,,,,,,,,,,739.9190944992006,739.9190944992006,0.009063100442290306,0.11453470028936863,3.0,3.273080300539732,,,,,,,,,,,,,,,5010,Moral,2024-07-08_19h33.09.540,MoralCondition_v2,2022.2.5,29.993461473378428,
12,0,12,0,5,0,5,0,,,,,,,,,,,,,,,,,,,,,,,,,,,,,,,,,,,,,,,,,,,,,,,,,,743.2188467998058,743.2188467998058,0.0075802989304065704,0.09813439846038818,3.0,1.2912687007337809,,,,,,,,,,,,,,,5010,Moral,2024-07-08_19h33.09.540,MoralCondition_v2,2022.2.5,29.993461473378428,
12,0,12,0,6,0,6,0,,,,,,,,,,,,,,,,,,,,,,,,,,,,,,,,,,,,,,,,,,,,,,,,,,744.552177099511,744.552177099511,0.007582699880003929,0.09742600098252296,6.0,2.0247673988342285,,,,,,,,,,,,,,,5010,Moral,2024-07-08_19h33.09.540,MoralCondition_v2,2022.2.5,29.993461473378428,
12,0,12,0,,,,,,,,,,,,,,,,,,,,,,,,,,,,,,,,,,,,,,,,,,,,,,,,,,,,,,,,,,,,746.6188944987953,746.6188944987953,0.0007205009460449219,0.09903980046510696,5.0,3.5995729994028807,,,,,,,,,5010,Moral,2024-07-08_19h33.09.540,MoralCondition_v2,2022.2.5,29.993461473378428,
13,0,13,0,0,0,0,0,,,,,,,,,,,,,,,,,,,,750.2523375991732,0.00016349926590919495,0.0992421992123127,756.2520821001381,5.999235399067402,756.4186145998538,756.4186145998538,0.05483599938452244,0.16578779928386211,5.999117199331522,762.5186377000064,762.5186377000064,762.5186377000064,0.0536964014172554,0.16601609997451305,768.2186723984778,768.4186805002391,5.999150199815631,6.0990957003086805,774.4186391998082,11.99910300038755,774.5351141002029,774.5351141002029,-0.0007446985691785812,0.0823655016720295,up,0.7938727997243404,775.3686475995928,3.9400532841682434e-05,0.09791480004787445,781.4022727999836,781.4022727999836,0.02572759985923767,0.13134519942104816,2.0,2.573200000450015,,,,,,,762.418767798692,762.418767798692,774.518457999453,774.518457999453,6.0991805996745825,,6.099308600649238,12.098871599882841,5010,Moral,2024-07-08_19h33.09.540,MoralCondition_v2,2022.2.5,29.993461473378428,
13,0,13,0,1,0,1,0,,,,,,,,,,,,,,,,,,,,,,,,,,,,,,,,,,,,,,,,,,,,,,,,,,784.0020041000098,784.0020041000098,0.006580900400876999,0.09924480132758617,3.0,2.9935077000409365,,,,,,,,,,,,,,,5010,Moral,2024-07-08_19h33.09.540,MoralCondition_v2,2022.2.5,29.993461473378428,
13,0,13,0,2,0,2,0,,,,,,,,,,,,,,,,,,,,,,,,,,,,,,,,,,,,,,,,,,,,,,,,,,787.0352344997227,787.0352344997227,0.006947198882699013,0.09924150072038174,6.0,1.5601452998816967,,,,,,,,,,,,,,,5010,Moral,2024-07-08_19h33.09.540,MoralCondition_v2,2022.2.5,29.993461473378428,
13,0,13,0,3,0,3,0,,,,,,,,,,,,,,,,,,,,,,,,,,,,,,,,,,,,,,,,,,,,,,,,,,788.6352749001235,788.6352749001235,0.007378200069069862,0.09775389917194843,3.0,4.158828299492598,,,,,,,,,,,,,,,5010,Moral,2024-07-08_19h33.09.540,MoralCondition_v2,2022.2.5,29.993461473378428,
13,0,13,0,4,0,4,0,,,,,,,,,,,,,,,,,,,,,,,,,,,,,,,,,,,,,,,,,,,,,,,,,,792.8355872984976,792.8355872984976,0.008094199001789093,0.09748129919171333,4.0,1.7233729008585215,,,,,,,,,,,,,,,5010,Moral,2024-07-08_19h33.09.540,MoralCondition_v2,2022.2.5,29.993461473378428,
13,0,13,0,5,0,5,0,,,,,,,,,,,,,,,,,,,,,,,,,,,,,,,,,,,,,,,,,,,,,,,,,,794.6019482985139,794.6019482985139,0.008624400943517685,0.09842950105667114,2.0,2.390803201124072,,,,,,,,,,,,,,,5010,Moral,2024-07-08_19h33.09.540,MoralCondition_v2,2022.2.5,29.993461473378428,
13,0,13,0,6,0,6,0,,,,,,,,,,,,,,,,,,,,,,,,,,,,,,,,,,,,,,,,,,,,,,,,,,797.0355362985283,797.0355362985283,0.007916798815131187,0.09779499843716621,3.0,1.4909041989594698,,,,,,,,,,,,,,,5010,Moral,2024-07-08_19h33.09.540,MoralCondition_v2,2022.2.5,29.993461473378428,
13,0,13,0,,,,,,,,,,,,,,,,,,,,,,,,,,,,,,,,,,,,,,,,,,,,,,,,,,,,,,,,,,,,798.5686497986317,798.5686497986317,0.001240300014615059,0.09807929955422878,5.0,2.2644807007163763,,,,,,,,,5010,Moral,2024-07-08_19h33.09.540,MoralCondition_v2,2022.2.5,29.993461473378428,
14,0,14,0,0,0,0,0,,,,,,,,,,,,,,,,,,,,800.8685178998858,0.00044579990208148956,0.0972668007016182,806.8684832993895,6.0304126013070345,807.051688298583,807.051688298583,0.0810978002846241,0.18049440160393715,6.013746101409197,813.151961999014,813.151961999014,813.151961999014,0.07214540243148804,0.18038290180265903,818.8519092984498,819.0517537984997,6.013758402317762,6.1136413011699915,825.0517592988908,12.013775801286101,825.1850680988282,825.1850680988282,0.013850502669811249,0.11365790106356144,up,1.1119108013808727,826.3350942991674,2.609938383102417e-05,0.09861250035464764,832.3685876987875,832.3685876987875,0.02774669975042343,0.13194929994642735,3.0,2.338732099160552,,,,,,,813.0350062996149,813.0350062996149,825.1517587993294,825.1517587993294,,,,,5010,Moral,2024-07-08_19h33.09.540,MoralCondition_v2,2022.2.5,29.993461473378428,
14,0,14,0,1,0,1,0,,,,,,,,,,,,,,,,,,,,,,,,,,,,,,,,,,,,,,,,,,,,,,,,,,834.735029399395,834.735029399395,0.0065011996775865555,0.09924950078129768,5.0,1.427063899114728,,,,,,,,,,,,,,,5010,Moral,2024-07-08_19h33.09.540,MoralCondition_v2,2022.2.5,29.993461473378428,
14,0,14,0,2,0,2,0,,,,,,,,,,,,,,,,,,,,,,,,,,,,,,,,,,,,,,,,,,,,,,,,,,836.2018601000309,836.2018601000309,0.007626699283719063,0.09805099852383137,2.0,1.9576984997838736,,,,,,,,,,,,,,,5010,Moral,2024-07-08_19h33.09.540,MoralCondition_v2,2022.2.5,29.993461473378428,
14,0,14,0,3,0,3,0,,,,,,,,,,,,,,,,,,,,,,,,,,,,,,,,,,,,,,,,,,,,,,,,,,838.201614798978,838.201614798978,0.007536100223660469,0.09737680107355118,3.0,4.357614099979401,,,,,,,,,,,,,,,5010,Moral,2024-07-08_19h33.09.540,MoralCondition_v2,2022.2.5,29.993461473378428,
14,0,14,0,4,0,4,0,,,,,,,,,,,,,,,,,,,,,,,,,,,,,,,,,,,,,,,,,,,,,,,,,,842.6016287989914,842.6016287989914,0.006963901221752167,0.09817360155284405,4.0,1.8254141006618738,,,,,,,,,,,,,,,5010,Moral,2024-07-08_19h33.09.540,MoralCondition_v2,2022.2.5,29.993461473378428,
14,0,14,0,5,0,5,0,,,,,,,,,,,,,,,,,,,,,,,,,,,,,,,,,,,,,,,,,,,,,,,,,,844.468394799158,844.468394799158,0.007775600999593735,0.09851109981536865,6.0,2.024729199707508,,,,,,,,,,,,,,,5010,Moral,2024-07-08_19h33.09.540,MoralCondition_v2,2022.2.5,29.993461473378428,
14,0,14,0,6,0,6,0,,,,,,,,,,,,,,,,,,,,,,,,,,,,,,,,,,,,,,,,,,,,,,,,,,846.5350796002895,846.5350796002895,0.007205899804830551,0.09830199927091599,3.0,2.025518700480461,,,,,,,,,,,,,,,5010,Moral,2024-07-08_19h33.09.540,MoralCondition_v2,2022.2.5,29.993461473378428,
14,0,14,0,,,,,,,,,,,,,,,,,,,,,,,,,,,,,,,,,,,,,,,,,,,,,,,,,,,,,,,,,,,,848.6018914990127,848.6018914990127,0.0022569000720977783,0.0976794995367527,4.0,3.8298704996705055,,,,,,,,,5010,Moral,2024-07-08_19h33.09.540,MoralCondition_v2,2022.2.5,29.993461473378428,
15,0,15,0,0,0,0,0,,,,,,,,,,,,,,,,,,,,852.4684906993061,0.00047159940004348755,0.09675329923629761,858.4849513992667,6.013357600197196,858.6515893992037,858.6515893992037,0.06863250024616718,0.18021059967577457,6.013359500095248,864.7349344994873,864.7349344994873,864.7349344994873,0.06394349969923496,0.16332809999585152,870.4347600992769,870.6682893000543,6.030080700293183,6.129978200420737,876.6682554986328,12.030064299702644,876.8015659991652,876.8015659991652,0.03025970049202442,0.12992800027132034,up,0.7114826999604702,877.5515227988362,3.780052065849304e-05,0.09802679903805256,883.5520764999092,883.5520764999092,0.009001700207591057,0.0979680996388197,2.0,2.1898145992308855,,,,,,,864.6516439989209,864.6516439989209,876.7349640000612,876.7349640000612,,883.5520764999092,,,5010,Moral,2024-07-08_19h33.09.540,MoralCondition_v2,2022.2.5,29.993461473378428,
15,0,15,0,1,0,1,0,,,,,,,,,,,,,,,,,,,,,,,,,,,,,,,,,,,,,,,,,,,,,,,,,,885.7848556991667,885.7848556991667,0.007623899728059769,0.09742660075426102,3.0,1.6243072990328074,,,,,,,,,,,,,,,5010,Moral,2024-07-08_19h33.09.540,MoralCondition_v2,2022.2.5,29.993461473378428,
15,0,15,0,2,0,2,0,,,,,,,,,,,,,,,,,,,,,,,,,,,,,,,,,,,,,,,,,,,,,,,,,,887.4514929000288,887.4514929000288,0.00733950175344944,0.09798300080001354,3.0,1.4915194995701313,,,,,,,,,,,,,,,5010,Moral,2024-07-08_19h33.09.540,MoralCondition_v2,2022.2.5,29.993461473378428,
15,0,15,0,3,0,3,0,,,,,,,,,,,,,,,,,,,,,,,,,,,,,,,,,,,,,,,,,,,,,,,,,,889.0015354994684,889.0015354994684,0.007839199155569077,0.1142135988920927,6.0,2.540752299129963,,,,,,,,,,,,,,,5010,Moral,2024-07-08_19h33.09.540,MoralCondition_v2,2022.2.5,29.993461473378428,
15,0,15,0,4,0,4,0,,,,,,,,,,,,,,,,,,,,,,,,,,,,,,,,,,,,,,,,,,,,,,,,,,891.5684299990535,891.5684299990535,0.007858499884605408,0.09754239954054356,3.0,1.4256414007395506,,,,,,,,,,,,,,,5010,Moral,2024-07-08_19h33.09.540,MoralCondition_v2,2022.2.5,29.993461473378428,
15,0,15,0,5,0,5,0,,,,,,,,,,,,,,,,,,,,,,,,,,,,,,,,,,,,,,,,,,,,,,,,,,893.0348172001541,893.0348172001541,0.007405200973153114,0.09838810004293919,3.0,1.6252992991358042,,,,,,,,,,,,,,,5010,Moral,2024-07-08_19h33.09.540,MoralCondition_v2,2022.2.5,29.993461473378428,
15,0,15,0,6,0,6,0,,,,,,,,,,,,,,,,,,,,,,,,,,,,,,,,,,,,,,,,,,,,,,,,,,894.718176599592,894.718176599592,0.007838400080800056,0.1143191996961832,6.0,1.974279299378395,,,,,,,,,,,,,,,5010,Moral,2024-07-08_19h33.09.540,MoralCondition_v2,2022.2.5,29.993461473378428,
15,0,15,0,,,,,,,,,,,,,,,,,,,,,,,,,,,,,,,,,,,,,,,,,,,,,,,,,,,,,,,,,,,,896.7179163992405,896.7179163992405,0.0013085007667541504,0.09740030020475388,5.0,2.897341201081872,,,,,,,,,5010,Moral,2024-07-08_19h33.09.540,MoralCondition_v2,2022.2.5,29.993461473378428,
16,0,16,0,0,0,0,0,,,,,,,,,,,,,,,,,,,,899.6517415996641,0.00013559870421886444,0.09923839941620827,905.6680821999907,6.015798998996615,905.8350213002414,905.8350213002414,0.07295659929513931,0.18269789963960648,6.015786599367857,911.9349445998669,911.9349445998669,911.9349445998669,0.07112540118396282,0.18249280005693436,917.6348116993904,917.8346601985395,6.015769001096487,6.115608399733901,923.8347575999796,12.015869200229645,923.9679950997233,923.9679950997233,0.015870200470089912,0.11574950069189072,up,0.7121715005487204,924.7347081992775,4.900060594081879e-05,0.09792519919574261,930.7513318993151,930.7513318993151,0.02263299934566021,0.11445700004696846,5.0,2.5595656000077724,,,,,,,911.8348779994994,911.8348779994994,923.9346322994679,923.9346322994679,,,,,5010,Moral,2024-07-08_19h33.09.540,MoralCondition_v2,2022.2.5,29.993461473378428,
16,0,16,0,1,0,1,0,,,,,,,,,,,,,,,,,,,,,,,,,,,,,,,,,,,,,,,,,,,,,,,,,,933.3681965991855,933.3681965991855,0.007481500506401062,0.11379959993064404,3.0,2.0072163995355368,,,,,,,,,,,,,,,5010,Moral,2024-07-08_19h33.09.540,MoralCondition_v2,2022.2.5,29.993461473378428,
16,0,16,0,2,0,2,0,,,,,,,,,,,,,,,,,,,,,,,,,,,,,,,,,,,,,,,,,,,,,,,,,,935.4182291999459,935.4182291999459,0.009175101295113564,0.1141814012080431,2.0,2.7392025999724865,,,,,,,,,,,,,,,5010,Moral,2024-07-08_19h33.09.540,MoralCondition_v2,2022.2.5,29.993461473378428,
16,0,16,0,3,0,3,0,,,,,,,,,,,,,,,,,,,,,,,,,,,,,,,,,,,,,,,,,,,,,,,,,,938.201584899798,938.201584899798,0.007709799334406853,0.11428230069577694,6.0,1.6095628999173641,,,,,,,,,,,,,,,5010,Moral,2024-07-08_19h33.09.540,MoralCondition_v2,2022.2.5,29.993461473378428,
16,0,16,0,4,0,4,0,,,,,,,,,,,,,,,,,,,,,,,,,,,,,,,,,,,,,,,,,,,,,,,,,,939.8346202988178,939.8346202988178,0.007438700646162033,0.09790370054543018,3.0,2.191668100655079,,,,,,,,,,,,,,,5010,Moral,2024-07-08_19h33.09.540,MoralCondition_v2,2022.2.5,29.993461473378428,
16,0,16,0,5,0,5,0,,,,,,,,,,,,,,,,,,,,,,,,,,,,,,,,,,,,,,,,,,,,,,,,,,942.0848145000637,942.0848145000637,0.007508700713515282,0.11474760062992573,5.0,1.6080546993762255,,,,,,,,,,,,,,,5010,Moral,2024-07-08_19h33.09.540,MoralCondition_v2,2022.2.5,29.993461473378428,
16,0,16,0,6,0,6,0,,,,,,,,,,,,,,,,,,,,,,,,,,,,,,,,,,,,,,,,,,,,,,,,,,943.7180201001465,943.7180201001465,0.007480200380086899,0.09755409881472588,3.0,2.057721199467778,,,,,,,,,,,,,,,5010,Moral,2024-07-08_19h33.09.540,MoralCondition_v2,2022.2.5,29.993461473378428,
16,0,16,0,,,,,,,,,,,,,,,,,,,,,,,,,,,,,,,,,,,,,,,,,,,,,,,,,,,,,,,,,,,,945.8180773984641,945.8180773984641,0.0019372999668121338,0.09714609943330288,5.0,2.696424400433898,,,,,,,,,5010,Moral,2024-07-08_19h33.09.540,MoralCondition_v2,2022.2.5,29.993461473378428,
17,0,17,0,0,0,0,0,,,,,,,,,,,,,,,,,,,,948.5514938998967,0.00013330020010471344,0.09914910048246384,954.5511620994657,5.9990103002637625,954.7179041001946,954.7179041001946,0.05895310081541538,0.16596540063619614,5.999253300949931,960.8179882001132,960.8179882001132,960.8179882001132,0.05747700110077858,0.16584479995071888,966.5179675985128,966.7511347997934,6.0323581006377935,6.132301200181246,972.751249499619,12.032461600378156,972.8844702988863,972.8844702988863,0.03241890110075474,0.13234880194067955,up,0.684238201007247,973.6178941987455,4.779919981956482e-05,0.09800760075449944,979.6342567000538,979.6342567000538,0.024681800976395607,0.11460320092737675,5.0,1.5242822989821434,,,,,,,960.7180941998959,960.7180941998959,972.817776998505,972.817776998505,6.099042899906635,,6.099335800856352,,5010,Moral,2024-07-08_19h33.09.540,MoralCondition_v2,2022.2.5,29.993461473378428,
17,0,17,0,1,0,1,0,,,,,,,,,,,,,,,,,,,,,,,,,,,,,,,,,,,,,,,,,,,,,,,,,,981.2013075985014,981.2013075985014,0.007870901376008987,0.09785940125584602,3.0,1.5243283994495869,,,,,,,,,,,,,,,5010,Moral,2024-07-08_19h33.09.540,MoralCondition_v2,2022.2.5,29.993461473378428,
17,0,17,0,2,0,2,0,,,,,,,,,,,,,,,,,,,,,,,,,,,,,,,,,,,,,,,,,,,,,,,,,,982.7677040994167,982.7677040994167,0.00749409943819046,0.09749549999833107,3.0,1.0579423997551203,,,,,,,,,,,,,,,5010,Moral,2024-07-08_19h33.09.540,MoralCondition_v2,2022.2.5,29.993461473378428,
17,0,17,0,3,0,3,0,,,,,,,,,,,,,,,,,,,,,,,,,,,,,,,,,,,,,,,,,,,,,,,,,,983.8845654986799,983.8845654986799,0.00791429914534092,0.11347739957273006,6.0,1.9733033999800682,,,,,,,,,,,,,,,5010,Moral,2024-07-08_19h33.09.540,MoralCondition_v2,2022.2.5,29.993461473378428,
17,0,17,0,4,0,4,0,,,,,,,,,,,,,,,,,,,,,,,,,,,,,,,,,,,,,,,,,,,,,,,,,,985.8845348991454,985.8845348991454,0.007302500307559967,0.09815150126814842,4.0,3.0586057994514704,,,,,,,,,,,,,,,5010,Moral,2024-07-08_19h33.09.540,MoralCondition_v2,2022.2.5,29.993461473378428,
17,0,17,0,5,0,5,0,,,,,,,,,,,,,,,,,,,,,,,,,,,,,,,,,,,,,,,,,,,,,,,,,,988.9845449998975,988.9845449998975,0.007638499140739441,0.09803729876875877,3.0,1.591261100023985,,,,,,,,,,,,,,,5010,Moral,2024-07-08_19h33.09.540,MoralCondition_v2,2022.2.5,29.993461473378428,
17,0,17,0,6,0,6,0,,,,,,,,,,,,,,,,,,,,,,,,,,,,,,,,,,,,,,,,,,,,,,,,,,990.6177462991327,990.6177462991327,0.009092498570680618,0.09903649985790253,3.0,1.7908911984413862,,,,,,,,,,,,,,,5010,Moral,2024-07-08_19h33.09.540,MoralCondition_v2,2022.2.5,29.993461473378428,
17,0,17,0,,,,,,,,,,,,,,,,,,,,,,,,,,,,,,,,,,,,,,,,,,,,,,,,,,,,,,,,,,,,992.451213799417,992.451213799417,0.0010752994567155838,0.09792730025947094,5.0,1.8982188999652863,,,,,,,,,5010,Moral,2024-07-08_19h33.09.540,MoralCondition_v2,2022.2.5,29.993461473378428,
18,0,18,0,0,0,0,0,,,,,,,,,,,,,,,,,,,,994.3846546001732,0.0002590008080005646,0.09796090051531792,1000.38431779854,6.031374100595713,1000.5846891999245,1000.5846891999245,0.08470030128955841,0.19801090098917484,6.031272100284696,1006.6843598000705,1006.6843598000705,1006.6843598000705,0.08526700176298618,0.1982188019901514,1012.3842698987573,1012.5842536985874,6.031288601458073,6.1312538012862206,1018.5842512995005,12.031300501897931,1018.7175589986145,1018.7175589986145,0.03143570199608803,0.13119180127978325,down,0.9070110004395247,1019.6842582002282,4.490092396736145e-05,0.09776410087943077,1025.7012642994523,1025.7012642994523,0.009109601378440857,0.1147306002676487,6.0,2.2732443995773792,,,,,,,1006.5843179002404,1006.5843179002404,1018.6842590998858,1018.6842590998858,,1025.7012642994523,,,5010,Moral,2024-07-08_19h33.09.540,MoralCondition_v2,2022.2.5,29.993461473378428,
18,0,18,0,1,0,1,0,,,,,,,,,,,,,,,,,,,,,,,,,,,,,,,,,,,,,,,,,,,,,,,,,,1028.0008594989777,1028.0008594989777,0.007986299693584442,0.09760599955916405,3.0,1.8243991006165743,,,,,,,,,,,,,,,5010,Moral,2024-07-08_19h33.09.540,MoralCondition_v2,2022.2.5,29.993461473378428,
18,0,18,0,2,0,2,0,,,,,,,,,,,,,,,,,,,,,,,,,,,,,,,,,,,,,,,,,,,,,,,,,,1029.8675424996763,1029.8675424996763,0.006716500967741013,0.09819970093667507,5.0,2.2255387995392084,,,,,,,,,,,,,,,5010,Moral,2024-07-08_19h33.09.540,MoralCondition_v2,2022.2.5,29.993461473378428,
18,0,18,0,3,0,3,0,,,,,,,,,,,,,,,,,,,,,,,,,,,,,,,,,,,,,,,,,,,,,,,,,,1032.1341980993748,1032.1341980993748,0.0072310008108615875,0.09750830009579659,5.0,1.7582627013325691,,,,,,,,,,,,,,,5010,Moral,2024-07-08_19h33.09.540,MoralCondition_v2,2022.2.5,29.993461473378428,
18,0,18,0,4,0,4,0,,,,,,,,,,,,,,,,,,,,,,,,,,,,,,,,,,,,,,,,,,,,,,,,,,1033.9341166988015,1033.9341166988015,0.006525799632072449,0.09942639991641045,5.0,1.293689500540495,,,,,,,,,,,,,,,5010,Moral,2024-07-08_19h33.09.540,MoralCondition_v2,2022.2.5,29.993461473378428,
18,0,18,0,5,0,5,0,,,,,,,,,,,,,,,,,,,,,,,,,,,,,,,,,,,,,,,,,,,,,,,,,,1035.2676509991288,1035.2676509991288,0.007023101672530174,0.09945470094680786,4.0,2.7932796999812126,,,,,,,,,,,,,,,5010,Moral,2024-07-08_19h33.09.540,MoralCondition_v2,2022.2.5,29.993461473378428,
18,0,18,0,6,0,6,0,,,,,,,,,,,,,,,,,,,,,,,,,,,,,,,,,,,,,,,,,,,,,,,,,,1038.1008447986096,1038.1008447986096,0.006877299398183823,0.09921870008111,2.0,1.6601682994514704,,,,,,,,,,,,,,,5010,Moral,2024-07-08_19h33.09.540,MoralCondition_v2,2022.2.5,29.993461473378428,
18,0,18,0,,,,,,,,,,,,,,,,,,,,,,,,,,,,,,,,,,,,,,,,,,,,,,,,,,,,,,,,,,,,1039.8007931988686,1039.8007931988686,0.0016310997307300568,0.09721439890563488,2.0,2.4635340999811888,,,,,,,,,5010,Moral,2024-07-08_19h33.09.540,MoralCondition_v2,2022.2.5,29.993461473378428,
19,0,19,0,0,0,0,0,,,,,,,,,,,,,,,,,,,,1042.3011108990759,0.00014579854905605316,0.09908449836075306,1048.301059499383,6.0154937990009785,1048.4675233997405,1048.4675233997405,0.052987899631261826,0.1658076997846365,5.999083299189806,1054.5675297994167,1054.5675297994167,1054.5675297994167,0.055918099358677864,0.16595380008220673,1060.267363898456,1060.50072529912,5.999039798974991,6.099195199087262,1066.500701699406,12.03238119930029,1066.6339918989688,1066.6339918989688,0.032554300501942635,0.13232590071856976,up,0.6304195001721382,1067.3006790000945,4.299916326999664e-05,0.09795339964330196,1073.3177926000208,1073.3177926000208,0.009366000071167946,0.11446730047464371,3.0,1.972876999527216,,,,,,,1054.467396600172,1054.467396600172,1066.567381599918,1066.567381599918,6.09918149933219,1073.3177926000208,6.099086798727512,,5010,Moral,2024-07-08_19h33.09.540,MoralCondition_v2,2022.2.5,29.993461473378428,
19,0,19,0,1,0,1,0,,,,,,,,,,,,,,,,,,,,,,,,,,,,,,,,,,,,,,,,,,,,,,,,,,1075.3343253992498,1075.3343253992498,0.00708409957587719,0.11396780051290989,5.0,1.3745623994618654,,,,,,,,,,,,,,,5010,Moral,2024-07-08_19h33.09.540,MoralCondition_v2,2022.2.5,29.993461473378428,
19,0,19,0,2,0,2,0,,,,,,,,,,,,,,,,,,,,,,,,,,,,,,,,,,,,,,,,,,,,,,,,,,1076.7338717989624,1076.7338717989624,0.008057400584220886,0.09772640094161034,5.0,3.4241706002503633,,,,,,,,,,,,,,,5010,Moral,2024-07-08_19h33.09.540,MoralCondition_v2,2022.2.5,29.993461473378428,
19,0,19,0,3,0,3,0,,,,,,,,,,,,,,,,,,,,,,,,,,,,,,,,,,,,,,,,,,,,,,,,,,1080.2005794998258,1080.2005794998258,0.007495300844311714,0.0979750007390976,6.0,1.8246765993535519,,,,,,,,,,,,,,,5010,Moral,2024-07-08_19h33.09.540,MoralCondition_v2,2022.2.5,29.993461473378428,
19,0,19,0,4,0,4,0,,,,,,,,,,,,,,,,,,,,,,,,,,,,,,,,,,,,,,,,,,,,,,,,,,1082.0671167001128,1082.0671167001128,0.007587000727653503,0.09753980115056038,5.0,2.1242811996489763,,,,,,,,,,,,,,,5010,Moral,2024-07-08_19h33.09.540,MoralCondition_v2,2022.2.5,29.993461473378428,
19,0,19,0,5,0,5,0,,,,,,,,,,,,,,,,,,,,,,,,,,,,,,,,,,,,,,,,,,,,,,,,,,1084.2339229993522,1084.2339229993522,0.006759000942111015,0.09927750006318092,5.0,1.52689309976995,,,,,,,,,,,,,,,5010,Moral,2024-07-08_19h33.09.540,MoralCondition_v2,2022.2.5,29.993461473378428,
19,0,19,0,6,0,6,0,,,,,,,,,,,,,,,,,,,,,,,,,,,,,,,,,,,,,,,,,,,,,,,,,,1085.8004077002406,1085.8004077002406,0.006541099399328232,0.09922279976308346,2.0,1.9603482000529766,,,,,,,,,,,,,,,5010,Moral,2024-07-08_19h33.09.540,MoralCondition_v2,2022.2.5,29.993461473378428,
19,0,19,0,,,,,,,,,,,,,,,,,,,,,,,,,,,,,,,,,,,,,,,,,,,,,,,,,,,,,,,,,,,,1087.8008536994457,1087.8008536994457,0.0007316004484891891,0.09905049949884415,3.0,2.6330797001719475,,,,,,,,,5010,Moral,2024-07-08_19h33.09.540,MoralCondition_v2,2022.2.5,29.993461473378428,
