loop.thisRepN,loop.thisTrialN,loop.thisN,loop.thisIndex,evaluate_all_emotions.thisRepN,evaluate_all_emotions.thisTrialN,evaluate_all_emotions.thisN,evaluate_all_emotions.thisIndex,sync_beep_1.started,p_port.started,p_port.stopped,sync_beep_1.stopped,sync_beep_2.started,sync_beep_2.stopped,sync_beep_3.started,sync_beep_3.stopped,sync_beep_4.started,sync_beep_4.stopped,baseline.started,p_port_2.started,p_port_2.stopped,baseline.stopped,p_port_3.started,p_port_3.stopped,Game_Start_Text.started,p_port_4.started,p_port_4.stopped,key_resp.started,key_resp.keys,key_resp.rt,fixation_cross.started,p_port_5.started,p_port_5.stopped,fixation_cross.stopped,p_port_6.started,p_port_6.stopped,player_image_intro.started,player_name_intro.started,p_port_7.started,p_port_7.stopped,p_port_8.started,player_image_offer.started,player_name_offer.started,proposed_split.started,p_port_9.started,p_port_9.stopped,proposed_split.stopped,accept_reject.started,p_port_15.started,p_port_15.stopped,accept_reject.stopped,p_port_10.started,arrow_instructions.started,offer_choice.started,p_port_11.started,p_port_11.stopped,offer_choice.keys,offer_choice.rt,Instructions_Affinity_Score.started,p_port_12.started,p_port_12.stopped,Instructions_Affinity_Score.stopped,Emotion_Image.started,AffinityScore.started,p_port_13.started,p_port_13.stopped,AffinityScore.response,AffinityScore.rt,Instruction.started,Moral_Disgust_Score.started,p_port_14.started,p_port_14.stopped,Moral_Disgust_Score.response,Moral_Disgust_Score.rt,player_image_offer.stopped,player_name_offer.stopped,player_image_intro.stopped,player_name_intro.stopped,p_port_8.stopped,p_port_10.stopped,participant,session,date,expName,psychopyVersion,frameRate,
,,,,,,,,21.7347058004234,0.0008743000216782093,0.11599399999249727,22.06329389999155,22.330016049963888,22.663314900011756,22.92990445002215,23.23007329995744,23.546692250005435,23.863204599940218,23.863204599940218,0.032708700047805905,0.1327598000643775,38.86328749998938,14.99942990008276,15.099389300099574,38.96336469997186,0.00018380011897534132,0.09967040014453232,39.429945699987,space,1.7079038999509066,,,,,,,,,,,,,,,,,,,,,,,,,,,,,,,,,,,,,,,,,,,,,,,,,,,5317,Moral,2024-08-06_12h33.09.715,MoralCondition_v2,2022.2.5,30.003351371924467,
0,0,0,0,0,0,0,0,,,,,,,,,,,,,,,,,,,,,,,41.179899299982935,0.007483600056730211,0.09864270000252873,47.163196999928914,6.0152217000722885,6.098694300046191,47.513238099985756,47.513238099985756,0.1850013000657782,0.3320527001051232,6.032020000042394,53.49653689994011,53.49653689994011,53.49653689994011,0.09225320012774318,0.2152906000846997,59.19657049991656,59.363272699993104,6.015419900068082,6.115286700078286,65.36322409997229,12.015351500129327,65.49657049996313,65.49657049996313,0.015510800061747432,0.11550280009396374,down,1.202746299910359,66.72620069992263,3.170000854879618e-05,0.08370710001327097,72.74658929998986,72.74658929998986,72.74658929998986,0.0338927999837324,0.1339297000085935,5.0,4.404369900003076,,,,,,,,,,,,,5317,Moral,2024-08-06_12h33.09.715,MoralCondition_v2,2022.2.5,30.003351371924467,
0,0,0,0,1,0,1,0,,,,,,,,,,,,,,,,,,,,,,,,,,,,,,,,,,,,,,,,,,,,,,,,,,,,,,,77.17992749996483,77.17992749996483,0.008875999948941171,0.09932539996225387,2.0,5.624830999993719,,,,,,,,,,,,,5317,Moral,2024-08-06_12h33.09.715,MoralCondition_v2,2022.2.5,30.003351371924467,
0,0,0,0,2,0,2,0,,,,,,,,,,,,,,,,,,,,,,,,,,,,,,,,,,,,,,,,,,,,,,,,,,,,,,,82.86328649998177,82.86328649998177,0.009618900017812848,0.1158708999864757,7.0,2.6740099999587983,,,,,,,,,,,,,5317,Moral,2024-08-06_12h33.09.715,MoralCondition_v2,2022.2.5,30.003351371924467,
0,0,0,0,3,0,3,0,,,,,,,,,,,,,,,,,,,,,,,,,,,,,,,,,,,,,,,,,,,,,,,,,,,,,,,85.58018900000025,85.58018900000025,0.011896700016222894,0.11405159998685122,1.0,2.1031989000039175,,,,,,,,,,,,,5317,Moral,2024-08-06_12h33.09.715,MoralCondition_v2,2022.2.5,30.003351371924467,
0,0,0,0,4,0,4,0,,,,,,,,,,,,,,,,,,,,,,,,,,,,,,,,,,,,,,,,,,,,,,,,,,,,,,,87.7133148999419,87.7133148999419,0.009363199933432043,0.09908329998143017,6.0,2.2573171999538317,,,,,,,,,,,,,5317,Moral,2024-08-06_12h33.09.715,MoralCondition_v2,2022.2.5,30.003351371924467,
0,0,0,0,5,0,5,0,,,,,,,,,,,,,,,,,,,,,,,,,,,,,,,,,,,,,,,,,,,,,,,,,,,,,,,90.01324979995843,90.01324979995843,0.009091999963857234,0.09777949994895607,5.0,1.890103599987924,,,,,,,,,,,,,5317,Moral,2024-08-06_12h33.09.715,MoralCondition_v2,2022.2.5,30.003351371924467,
0,0,0,0,6,0,6,0,,,,,,,,,,,,,,,,,,,,,,,,,,,,,,,,,,,,,,,,,,,,,,,,,,,,,,,91.96325189992785,91.96325189992785,0.011619299999438226,0.11442240001633763,7.0,1.7370834000175819,,,,,,,,,,,,,5317,Moral,2024-08-06_12h33.09.715,MoralCondition_v2,2022.2.5,30.003351371924467,
0,0,0,0,,,,,,,,,,,,,,,,,,,,,,,,,,,,,,,,,,,,,,,,,,,,,,,,,,,,,,,,,,,,,,,,,93.72997019998729,93.72997019998729,0.0008153999224305153,0.09950339992064983,1.0,4.067145400098525,,,,,,,5317,Moral,2024-08-06_12h33.09.715,MoralCondition_v2,2022.2.5,30.003351371924467,
1,0,1,0,0,0,0,0,,,,,,,,,,,,,,,,,,,,,,,97.83023600000888,0.00031459995079785585,0.0980982999317348,103.84661559993401,6.01481550000608,,104.0467684000032,104.0467684000032,0.1070464999647811,0.21483259997330606,6.014840499963611,110.11321330000646,110.11321330000646,110.11321330000646,0.07333879999350756,0.18135670002084225,115.81338419998065,116.01328009995632,6.014865400036797,6.114774000016041,122.01333659992088,12.014913500053808,122.14671339991037,122.14671339991037,0.015215300023555756,0.11477820004802197,up,2.1295087999897078,124.31328789994586,0.00011989998165518045,0.09790930000599474,,130.33043209998868,130.33043209998868,0.02626910002436489,0.11476050002966076,1.0,3.922687100013718,,,,,,,122.11347539990675,122.11347539990675,,,,,5317,Moral,2024-08-06_12h33.09.715,MoralCondition_v2,2022.2.5,30.003351371924467,
1,0,1,0,1,0,1,0,,,,,,,,,,,,,,,,,,,,,,,,,,,,,,,,,,,,,,,,,,,,,,,,,,,,,,,134.31340609991457,134.31340609991457,0.008198200026527047,0.11432389996480197,6.0,2.9403078999603167,,,,,,,,,,,,,5317,Moral,2024-08-06_12h33.09.715,MoralCondition_v2,2022.2.5,30.003351371924467,
1,0,1,0,2,0,2,0,,,,,,,,,,,,,,,,,,,,,,,,,,,,,,,,,,,,,,,,,,,,,,,,,,,,,,,137.27994889998809,137.27994889998809,0.007594299968332052,0.09751230000983924,1.0,1.9578953000018373,,,,,,,,,,,,,5317,Moral,2024-08-06_12h33.09.715,MoralCondition_v2,2022.2.5,30.003351371924467,
1,0,1,0,3,0,3,0,,,,,,,,,,,,,,,,,,,,,,,,,,,,,,,,,,,,,,,,,,,,,,,,,,,,,,,139.28016610001214,139.28016610001214,0.006525999982841313,0.09937860001809895,2.0,2.693693200009875,,,,,,,,,,,,,5317,Moral,2024-08-06_12h33.09.715,MoralCondition_v2,2022.2.5,30.003351371924467,
1,0,1,0,4,0,4,0,,,,,,,,,,,,,,,,,,,,,,,,,,,,,,,,,,,,,,,,,,,,,,,,,,,,,,,142.01330230000895,142.01330230000895,0.007743299938738346,0.09755990002304316,1.0,1.357779600075446,,,,,,,,,,,,,5317,Moral,2024-08-06_12h33.09.715,MoralCondition_v2,2022.2.5,30.003351371924467,
1,0,1,0,5,0,5,0,,,,,,,,,,,,,,,,,,,,,,,,,,,,,,,,,,,,,,,,,,,,,,,,,,,,,,,143.4134756999556,143.4134756999556,0.006702400045469403,0.09795460000168532,5.0,2.0924374000169337,,,,,,,,,,,,,5317,Moral,2024-08-06_12h33.09.715,MoralCondition_v2,2022.2.5,30.003351371924467,
1,0,1,0,6,0,6,0,,,,,,,,,,,,,,,,,,,,,,,,,,,,,,,,,,,,,,,,,,,,,,,,,,,,,,,145.54666959994938,145.54666959994938,0.00636500003747642,0.09925640001893044,1.0,2.1605242000659928,,,,,,,,,,,,,5317,Moral,2024-08-06_12h33.09.715,MoralCondition_v2,2022.2.5,30.003351371924467,
1,0,1,0,,,,,,,,,,,,,,,,,,,,,,,,,,,,,,,,,,,,,,,,,,,,,,,,,,,,,,,,,,,,,,,,,147.74669780000113,147.74669780000113,0.0013518000487238169,0.09766219998709857,6.0,2.931049200007692,,,,,,,5317,Moral,2024-08-06_12h33.09.715,MoralCondition_v2,2022.2.5,30.003351371924467,
2,0,2,0,0,0,0,0,,,,,,,,,,,,,,,,,,,,,,,150.71351789997425,0.00013930001296103,0.09930110001005232,156.72993219993077,6.015800000051968,,156.8966897999635,156.8966897999635,0.08186959999147803,0.18273730005603284,6.015842600027099,162.99666800000705,162.99666800000705,162.99666800000705,0.07329630001913756,0.18258310004603118,168.6966117999982,168.89664259995334,6.015899899997748,6.115855200099759,174.89661359996535,12.015870600007474,175.0299710999243,175.0299710999243,0.016071900026872754,0.11581160011701286,down,2.9337428000289947,177.99659029999748,3.660004585981369e-05,0.09728660003747791,183.99641939997673,183.99641939997673,183.99641939997673,0.008167500025592744,0.09718550008255988,5.0,5.65696170006413,,,,,,,174.99664799997117,174.99664799997117,162.89663350000046,162.89663350000046,,,5317,Moral,2024-08-06_12h33.09.715,MoralCondition_v2,2022.2.5,30.003351371924467,
2,0,2,0,1,0,1,0,,,,,,,,,,,,,,,,,,,,,,,,,,,,,,,,,,,,,,,,,,,,,,,,,,,,,,,189.69659219996538,189.69659219996538,0.006746299914084375,0.0990172999445349,7.0,1.526919399970211,,,,,,,,,,,,,5317,Moral,2024-08-06_12h33.09.715,MoralCondition_v2,2022.2.5,30.003351371924467,
2,0,2,0,2,0,2,0,,,,,,,,,,,,,,,,,,,,,,,,,,,,,,,,,,,,,,,,,,,,,,,,,,,,,,,191.28041130001657,191.28041130001657,0.007672199979424477,0.1140731000341475,1.0,1.8073933999985456,,,,,,,,,,,,,5317,Moral,2024-08-06_12h33.09.715,MoralCondition_v2,2022.2.5,30.003351371924467,
2,0,2,0,3,0,3,0,,,,,,,,,,,,,,,,,,,,,,,,,,,,,,,,,,,,,,,,,,,,,,,,,,,,,,,193.13018390000798,193.13018390000798,0.008600300061516464,0.11407170002348721,6.0,1.8399728999938816,,,,,,,,,,,,,5317,Moral,2024-08-06_12h33.09.715,MoralCondition_v2,2022.2.5,30.003351371924467,
2,0,2,0,4,0,4,0,,,,,,,,,,,,,,,,,,,,,,,,,,,,,,,,,,,,,,,,,,,,,,,,,,,,,,,194.99674360000063,194.99674360000063,0.007494500023312867,0.0975911000277847,7.0,1.4244544999673963,,,,,,,,,,,,,5317,Moral,2024-08-06_12h33.09.715,MoralCondition_v2,2022.2.5,30.003351371924467,
2,0,2,0,5,0,5,0,,,,,,,,,,,,,,,,,,,,,,,,,,,,,,,,,,,,,,,,,,,,,,,,,,,,,,,196.4632024000166,196.4632024000166,0.0068017999874427915,0.09932500007562339,1.0,1.5935311999637634,,,,,,,,,,,,,5317,Moral,2024-08-06_12h33.09.715,MoralCondition_v2,2022.2.5,30.003351371924467,
2,0,2,0,6,0,6,0,,,,,,,,,,,,,,,,,,,,,,,,,,,,,,,,,,,,,,,,,,,,,,,,,,,,,,,198.0968124999199,198.0968124999199,0.008044300018809736,0.09725910006090999,5.0,2.6570091999601573,,,,,,,,,,,,,5317,Moral,2024-08-06_12h33.09.715,MoralCondition_v2,2022.2.5,30.003351371924467,
2,0,2,0,,,,,,,,,,,,,,,,,,,,,,,,,,,,,,,,,,,,,,,,,,,,,,,,,,,,,,,,,,,,,,,,,200.79664439999033,200.79664439999033,0.0016145000699907541,0.09755180007778108,1.0,3.130562199978158,,,,,,,5317,Moral,2024-08-06_12h33.09.715,MoralCondition_v2,2022.2.5,30.003351371924467,
3,0,3,0,0,0,0,0,,,,,,,,,,,,,,,,,,,,,,,203.9634897999931,0.00013660010881721973,0.09933550003916025,209.96324139996432,5.999299000017345,6.099330500001088,210.12974999996368,210.12974999996368,0.06254050007555634,0.16603540012147278,5.999313000123948,216.23001900000963,216.23001900000963,216.23001900000963,0.05686910008080304,0.16623640013858676,221.9299459999893,222.12997389992233,5.999398600077257,6.0993185001425445,228.12995729991235,11.999368700082414,228.2632930999389,228.2632930999389,0.0003273001639172435,0.11600990011356771,down,1.9329395999666303,230.22992269997485,4.710000939667225e-05,0.09773450007196516,,236.2634361999808,236.2634361999808,0.02688510005827993,0.1312049999833107,2.0,4.905145399970934,,,,,,,228.23004850000143,228.23004850000143,216.12994159990922,216.12994159990922,6.09938350005541,12.099471500143409,5317,Moral,2024-08-06_12h33.09.715,MoralCondition_v2,2022.2.5,30.003351371924467,
3,0,3,0,1,0,1,0,,,,,,,,,,,,,,,,,,,,,,,,,,,,,,,,,,,,,,,,,,,,,,,,,,,,,,,241.19649289990775,241.19649289990775,0.00743030000012368,0.09766600001603365,5.0,4.424483699956909,,,,,,,,,,,,,5317,Moral,2024-08-06_12h33.09.715,MoralCondition_v2,2022.2.5,30.003351371924467,
3,0,3,0,2,0,2,0,,,,,,,,,,,,,,,,,,,,,,,,,,,,,,,,,,,,,,,,,,,,,,,,,,,,,,,245.66345959994942,245.66345959994942,0.009067300008609891,0.09692370006814599,5.0,1.4557342000771314,,,,,,,,,,,,,5317,Moral,2024-08-06_12h33.09.715,MoralCondition_v2,2022.2.5,30.003351371924467,
3,0,3,0,3,0,3,0,,,,,,,,,,,,,,,,,,,,,,,,,,,,,,,,,,,,,,,,,,,,,,,,,,,,,,,247.16317209997214,247.16317209997214,0.006883300025947392,0.0991681000450626,6.0,1.6935735000297427,,,,,,,,,,,,,5317,Moral,2024-08-06_12h33.09.715,MoralCondition_v2,2022.2.5,30.003351371924467,
3,0,3,0,4,0,4,0,,,,,,,,,,,,,,,,,,,,,,,,,,,,,,,,,,,,,,,,,,,,,,,,,,,,,,,248.89678820001427,248.89678820001427,0.00689120008610189,0.09916220000013709,6.0,1.2599426999222487,,,,,,,,,,,,,5317,Moral,2024-08-06_12h33.09.715,MoralCondition_v2,2022.2.5,30.003351371924467,
3,0,3,0,5,0,5,0,,,,,,,,,,,,,,,,,,,,,,,,,,,,,,,,,,,,,,,,,,,,,,,,,,,,,,,250.19662699999753,250.19662699999753,0.006384399952366948,0.098733099992387,5.0,1.6598914000205696,,,,,,,,,,,,,5317,Moral,2024-08-06_12h33.09.715,MoralCondition_v2,2022.2.5,30.003351371924467,
3,0,3,0,6,0,6,0,,,,,,,,,,,,,,,,,,,,,,,,,,,,,,,,,,,,,,,,,,,,,,,,,,,,,,,251.91334570001345,251.91334570001345,0.00802589999511838,0.11437900003511459,1.0,1.4739823000272736,,,,,,,,,,,,,5317,Moral,2024-08-06_12h33.09.715,MoralCondition_v2,2022.2.5,30.003351371924467,
3,0,3,0,,,,,,,,,,,,,,,,,,,,,,,,,,,,,,,,,,,,,,,,,,,,,,,,,,,,,,,,,,,,,,,,,253.41345969995018,253.41345969995018,0.001276700058951974,0.09780830005183816,3.0,2.4977012000745162,,,,,,,5317,Moral,2024-08-06_12h33.09.715,MoralCondition_v2,2022.2.5,30.003351371924467,
4,0,4,0,0,0,0,0,,,,,,,,,,,,,,,,,,,,,,,255.9468650999479,0.00027030007913708687,0.09789370000362396,261.9465994000202,6.03104270005133,,262.1298570999643,262.1298570999643,0.07670790003612638,0.18103490001522005,6.014396300073713,268.2300094999373,268.2300094999373,268.2300094999373,0.07179280009586364,0.18103380012325943,273.9300693999976,274.12985359993763,6.014289100072347,6.114528200123459,280.1300329999067,12.014495900133625,280.26322959992103,280.26322959992103,0.014452200150117278,0.11449720012024045,up,1.709182900027372,282.01332109991927,3.8499943912029266e-05,0.09799699997529387,,288.03022580000106,288.03022580000106,0.025835499982349575,0.11468489991966635,3.0,3.589714300003834,,,,,,,280.2131363999797,280.2131363999797,268.1301744999364,268.1301744999364,,,5317,Moral,2024-08-06_12h33.09.715,MoralCondition_v2,2022.2.5,30.003351371924467,
4,0,4,0,1,0,1,0,,,,,,,,,,,,,,,,,,,,,,,,,,,,,,,,,,,,,,,,,,,,,,,,,,,,,,,291.66324009990785,291.66324009990785,0.007064400007948279,0.09796039992943406,3.0,1.4586088000796735,,,,,,,,,,,,,5317,Moral,2024-08-06_12h33.09.715,MoralCondition_v2,2022.2.5,30.003351371924467,
4,0,4,0,2,0,2,0,,,,,,,,,,,,,,,,,,,,,,,,,,,,,,,,,,,,,,,,,,,,,,,,,,,,,,,293.163551799953,293.163551799953,0.0074174999026581645,0.0979108999017626,1.0,1.3917141000274569,,,,,,,,,,,,,5317,Moral,2024-08-06_12h33.09.715,MoralCondition_v2,2022.2.5,30.003351371924467,
4,0,4,0,3,0,3,0,,,,,,,,,,,,,,,,,,,,,,,,,,,,,,,,,,,,,,,,,,,,,,,,,,,,,,,294.5963820000179,294.5963820000179,0.007543900050222874,0.09770669997669756,7.0,2.2913116000127047,,,,,,,,,,,,,5317,Moral,2024-08-06_12h33.09.715,MoralCondition_v2,2022.2.5,30.003351371924467,
4,0,4,0,4,0,4,0,,,,,,,,,,,,,,,,,,,,,,,,,,,,,,,,,,,,,,,,,,,,,,,,,,,,,,,296.9299071999267,296.9299071999267,0.006258699926547706,0.09937359998002648,5.0,1.3606835999526083,,,,,,,,,,,,,5317,Moral,2024-08-06_12h33.09.715,MoralCondition_v2,2022.2.5,30.003351371924467,
4,0,4,0,5,0,5,0,,,,,,,,,,,,,,,,,,,,,,,,,,,,,,,,,,,,,,,,,,,,,,,,,,,,,,,298.33001539995894,298.33001539995894,0.007572700036689639,0.0985719000454992,1.0,1.491541999974288,,,,,,,,,,,,,5317,Moral,2024-08-06_12h33.09.715,MoralCondition_v2,2022.2.5,30.003351371924467,
4,0,4,0,6,0,6,0,,,,,,,,,,,,,,,,,,,,,,,,,,,,,,,,,,,,,,,,,,,,,,,,,,,,,,,299.86343369993847,299.86343369993847,0.00654580001719296,0.09898060001432896,1.0,1.4269676000112668,,,,,,,,,,,,,5317,Moral,2024-08-06_12h33.09.715,MoralCondition_v2,2022.2.5,30.003351371924467,
4,0,4,0,,,,,,,,,,,,,,,,,,,,,,,,,,,,,,,,,,,,,,,,,,,,,,,,,,,,,,,,,,,,,,,,,301.3300375000108,301.3300375000108,0.0007013999857008457,0.09914559999015182,7.0,5.3327757000224665,,,,,,,5317,Moral,2024-08-06_12h33.09.715,MoralCondition_v2,2022.2.5,30.003351371924467,
5,0,5,0,0,0,0,0,,,,,,,,,,,,,,,,,,,,,,,306.69697099993937,0.00013599998783320189,0.09942280000541359,312.6965589999454,5.999145700014196,6.099143599974923,312.9134979000082,312.9134979000082,0.10433200001716614,0.21624099998734891,6.015844900044613,318.996914899908,318.996914899908,318.996914899908,0.0843608999857679,0.19919060007669032,324.69647869991604,324.86323739995714,5.999186599976383,6.099232800072059,330.86344200000167,11.999379600048997,330.99657540000044,330.99657540000044,0.00014870008453726768,0.09918060002382845,down,2.1274809000315145,333.16351539990865,5.1600043661892414e-05,0.09753960010129958,339.16352389997337,339.16352389997337,339.16352389997337,0.008778100018389523,0.09739190002437681,7.0,3.3230713000521064,,,,,,,330.99657540000044,330.99657540000044,,,,12.099125200067647,5317,Moral,2024-08-06_12h33.09.715,MoralCondition_v2,2022.2.5,30.003351371924467,
5,0,5,0,1,0,1,0,,,,,,,,,,,,,,,,,,,,,,,,,,,,,,,,,,,,,,,,,,,,,,,,,,,,,,,342.53007009997964,342.53007009997964,0.006769199972040951,0.09975379996467382,2.0,1.9935079000424594,,,,,,,,,,,,,5317,Moral,2024-08-06_12h33.09.715,MoralCondition_v2,2022.2.5,30.003351371924467,
5,0,5,0,2,0,2,0,,,,,,,,,,,,,,,,,,,,,,,,,,,,,,,,,,,,,,,,,,,,,,,,,,,,,,,344.56339009990916,344.56339009990916,0.0069443000247702,0.09906859998591244,5.0,1.9932234999723732,,,,,,,,,,,,,5317,Moral,2024-08-06_12h33.09.715,MoralCondition_v2,2022.2.5,30.003351371924467,
5,0,5,0,3,0,3,0,,,,,,,,,,,,,,,,,,,,,,,,,,,,,,,,,,,,,,,,,,,,,,,,,,,,,,,346.5964311999269,346.5964311999269,0.006622299901209772,0.09922420000657439,1.0,1.693691399996169,,,,,,,,,,,,,5317,Moral,2024-08-06_12h33.09.715,MoralCondition_v2,2022.2.5,30.003351371924467,
5,0,5,0,4,0,4,0,,,,,,,,,,,,,,,,,,,,,,,,,,,,,,,,,,,,,,,,,,,,,,,,,,,,,,,348.3468240000075,348.3468240000075,0.007907900027930737,0.11448660003952682,7.0,1.7074335999786854,,,,,,,,,,,,,5317,Moral,2024-08-06_12h33.09.715,MoralCondition_v2,2022.2.5,30.003351371924467,
5,0,5,0,5,0,5,0,,,,,,,,,,,,,,,,,,,,,,,,,,,,,,,,,,,,,,,,,,,,,,,,,,,,,,,350.07994339999277,350.07994339999277,0.007904199999757111,0.09834439994301647,5.0,2.124869499937631,,,,,,,,,,,,,5317,Moral,2024-08-06_12h33.09.715,MoralCondition_v2,2022.2.5,30.003351371924467,
5,0,5,0,6,0,6,0,,,,,,,,,,,,,,,,,,,,,,,,,,,,,,,,,,,,,,,,,,,,,,,,,,,,,,,352.26318889996037,352.26318889996037,0.008447799948044121,0.11477230000309646,5.0,1.1077140000415966,,,,,,,,,,,,,5317,Moral,2024-08-06_12h33.09.715,MoralCondition_v2,2022.2.5,30.003351371924467,
5,0,5,0,,,,,,,,,,,,,,,,,,,,,,,,,,,,,,,,,,,,,,,,,,,,,,,,,,,,,,,,,,,,,,,,,353.39659469993785,353.39659469993785,0.002127300016582012,0.09737860003951937,1.0,3.4963161000050604,,,,,,,5317,Moral,2024-08-06_12h33.09.715,MoralCondition_v2,2022.2.5,30.003351371924467,
6,0,6,0,0,0,0,0,,,,,,,,,,,,,,,,,,,,,,,356.9301430999767,0.00013810000382363796,0.09923679998610169,362.94655579992104,6.015807099989615,,363.1129942999687,363.1129942999687,0.07850050006527454,0.18246530008036643,6.015667600091547,369.2131100000115,369.2131100000115,369.2131100000115,0.06908750010188669,0.18244640005286783,374.91326259996276,375.1132224999601,6.015834500081837,6.115796300116926,381.11315180000383,12.015695100068115,381.2466137999436,381.2466137999436,0.01606200006790459,0.11579040007200092,up,2.9812053999630734,384.27999039995484,5.2999937906861305e-05,0.09747279994189739,,390.2967365999939,390.2967365999939,0.02531789999920875,0.1140161999501288,1.0,4.056523700011894,,,,,,,381.213272199966,381.213272199966,369.1132253999822,369.1132253999822,,,5317,Moral,2024-08-06_12h33.09.715,MoralCondition_v2,2022.2.5,30.003351371924467,
6,0,6,0,1,0,1,0,,,,,,,,,,,,,,,,,,,,,,,,,,,,,,,,,,,,,,,,,,,,,,,,,,,,,,,394.39660380000714,394.39660380000714,0.006786999991163611,0.09955690009519458,6.0,2.660266200080514,,,,,,,,,,,,,5317,Moral,2024-08-06_12h33.09.715,MoralCondition_v2,2022.2.5,30.003351371924467,
6,0,6,0,2,0,2,0,,,,,,,,,,,,,,,,,,,,,,,,,,,,,,,,,,,,,,,,,,,,,,,,,,,,,,,397.0966937999474,397.0966937999474,0.007684099953621626,0.09790729999076575,5.0,1.490995700005442,,,,,,,,,,,,,5317,Moral,2024-08-06_12h33.09.715,MoralCondition_v2,2022.2.5,30.003351371924467,
6,0,6,0,3,0,3,0,,,,,,,,,,,,,,,,,,,,,,,,,,,,,,,,,,,,,,,,,,,,,,,,,,,,,,,398.62971050001215,398.62971050001215,0.007173500023782253,0.09927860007155687,2.0,2.0263792000478134,,,,,,,,,,,,,5317,Moral,2024-08-06_12h33.09.715,MoralCondition_v2,2022.2.5,30.003351371924467,
6,0,6,0,4,0,4,0,,,,,,,,,,,,,,,,,,,,,,,,,,,,,,,,,,,,,,,,,,,,,,,,,,,,,,,400.69642960000783,400.69642960000783,0.006630199961364269,0.09916199999861419,1.0,1.2603566000470892,,,,,,,,,,,,,5317,Moral,2024-08-06_12h33.09.715,MoralCondition_v2,2022.2.5,30.003351371924467,
6,0,6,0,5,0,5,0,,,,,,,,,,,,,,,,,,,,,,,,,,,,,,,,,,,,,,,,,,,,,,,,,,,,,,,401.996479799971,401.996479799971,0.007429699995554984,0.0978098000632599,4.0,2.5914233999792486,,,,,,,,,,,,,5317,Moral,2024-08-06_12h33.09.715,MoralCondition_v2,2022.2.5,30.003351371924467,
6,0,6,0,6,0,6,0,,,,,,,,,,,,,,,,,,,,,,,,,,,,,,,,,,,,,,,,,,,,,,,,,,,,,,,404.6297907999251,404.6297907999251,0.007185900001786649,0.09915559994988143,2.0,1.5596537999808788,,,,,,,,,,,,,5317,Moral,2024-08-06_12h33.09.715,MoralCondition_v2,2022.2.5,30.003351371924467,
6,0,6,0,,,,,,,,,,,,,,,,,,,,,,,,,,,,,,,,,,,,,,,,,,,,,,,,,,,,,,,,,,,,,,,,,406.229803299997,406.229803299997,0.0013133999891579151,0.09779480006545782,7.0,2.6310669000959024,,,,,,,5317,Moral,2024-08-06_12h33.09.715,MoralCondition_v2,2022.2.5,30.003351371924467,
7,0,7,0,0,0,0,0,,,,,,,,,,,,,,,,,,,,,,,408.8966184000019,0.0004909000126644969,0.09713420004118234,414.913183299941,6.01378320006188,,415.13000929995906,415.13000929995906,0.11526440002489835,0.2308140000095591,6.030504000023939,421.19632350001484,421.19632350001484,421.19632350001484,0.08586060011293739,0.19724410003982484,426.8968708999455,427.09649109991733,6.030518800020218,6.1304120001150295,433.09649599995464,12.030485000112094,433.2298084999202,433.2298084999202,0.030819800100289285,0.13042280008085072,up,1.7895918999565765,435.07983499998227,4.67000063508749e-05,0.09808189992327243,441.09643159992993,441.09643159992993,441.09643159992993,0.010402999934740365,0.11492719990201294,7.0,2.738752600038424,,,,,,,433.19657939998433,433.19657939998433,,,,,5317,Moral,2024-08-06_12h33.09.715,MoralCondition_v2,2022.2.5,30.003351371924467,
7,0,7,0,1,0,1,0,,,,,,,,,,,,,,,,,,,,,,,,,,,,,,,,,,,,,,,,,,,,,,,,,,,,,,,443.8797525999835,443.8797525999835,0.00953580008354038,0.11427610006649047,1.0,1.4061337999301031,,,,,,,,,,,,,5317,Moral,2024-08-06_12h33.09.715,MoralCondition_v2,2022.2.5,30.003351371924467,
7,0,7,0,2,0,2,0,,,,,,,,,,,,,,,,,,,,,,,,,,,,,,,,,,,,,,,,,,,,,,,,,,,,,,,445.31294540001545,445.31294540001545,0.007517699967138469,0.09916879993397743,2.0,2.392643400002271,,,,,,,,,,,,,5317,Moral,2024-08-06_12h33.09.715,MoralCondition_v2,2022.2.5,30.003351371924467,
7,0,7,0,3,0,3,0,,,,,,,,,,,,,,,,,,,,,,,,,,,,,,,,,,,,,,,,,,,,,,,,,,,,,,,447.74639370001387,447.74639370001387,0.007472499972209334,0.09763019997626543,1.0,1.591372900060378,,,,,,,,,,,,,5317,Moral,2024-08-06_12h33.09.715,MoralCondition_v2,2022.2.5,30.003351371924467,
7,0,7,0,4,0,4,0,,,,,,,,,,,,,,,,,,,,,,,,,,,,,,,,,,,,,,,,,,,,,,,,,,,,,,,449.37970449996646,449.37970449996646,0.006356800091452897,0.09872930007986724,3.0,1.693105599959381,,,,,,,,,,,,,5317,Moral,2024-08-06_12h33.09.715,MoralCondition_v2,2022.2.5,30.003351371924467,
7,0,7,0,5,0,5,0,,,,,,,,,,,,,,,,,,,,,,,,,,,,,,,,,,,,,,,,,,,,,,,,,,,,,,,451.12995729991235,451.12995729991235,0.007702499977312982,0.11430849996395409,2.0,1.9741091000614688,,,,,,,,,,,,,5317,Moral,2024-08-06_12h33.09.715,MoralCondition_v2,2022.2.5,30.003351371924467,
7,0,7,0,6,0,6,0,,,,,,,,,,,,,,,,,,,,,,,,,,,,,,,,,,,,,,,,,,,,,,,,,,,,,,,453.14663560001645,453.14663560001645,0.00889699999243021,0.11480830004438758,5.0,1.5730018999893218,,,,,,,,,,,,,5317,Moral,2024-08-06_12h33.09.715,MoralCondition_v2,2022.2.5,30.003351371924467,
7,0,7,0,,,,,,,,,,,,,,,,,,,,,,,,,,,,,,,,,,,,,,,,,,,,,,,,,,,,,,,,,,,,,,,,,454.7463726999704,454.7463726999704,0.0012167999520897865,0.09840879996772856,7.0,1.9319434999488294,,,,,,,5317,Moral,2024-08-06_12h33.09.715,MoralCondition_v2,2022.2.5,30.003351371924467,
8,0,8,0,0,0,0,0,,,,,,,,,,,,,,,,,,,,,,,456.7134659999283,0.0001716000260785222,0.09946679999120533,462.713117999956,5.9992685000179335,6.09930510004051,462.87971179990564,462.87971179990564,0.06535310007166117,0.16615679999813437,5.999343700008467,468.98005030001514,468.98005030001514,468.98005030001514,0.054304900113493204,0.16604820010252297,474.6797881999519,474.8797762999311,5.999293100088835,6.099273600033484,480.87976019992493,11.999296800117008,481.0131356999045,481.0131356999045,0.00015190010890364647,0.09943300008308142,up,2.054627800011076,483.12981329998,4.549999721348286e-05,0.09796799998730421,,489.16314849990886,489.16314849990886,0.026847400004044175,0.1313973000505939,1.0,3.2720611999975517,,,,,,,480.9797660999466,480.9797660999466,468.879765199963,468.879765199963,6.099289000034332,12.099291700054891,5317,Moral,2024-08-06_12h33.09.715,MoralCondition_v2,2022.2.5,30.003351371924467,
8,0,8,0,1,0,1,0,,,,,,,,,,,,,,,,,,,,,,,,,,,,,,,,,,,,,,,,,,,,,,,,,,,,,,,492.4800554999383,492.4800554999383,0.008072700002230704,0.11412010004278272,2.0,1.3406385999405757,,,,,,,,,,,,,5317,Moral,2024-08-06_12h33.09.715,MoralCondition_v2,2022.2.5,30.003351371924467,
8,0,8,0,2,0,2,0,,,,,,,,,,,,,,,,,,,,,,,,,,,,,,,,,,,,,,,,,,,,,,,,,,,,,,,493.86332100001164,493.86332100001164,0.008438499993644655,0.11441329994704574,2.0,0.8735183000098914,,,,,,,,,,,,,5317,Moral,2024-08-06_12h33.09.715,MoralCondition_v2,2022.2.5,30.003351371924467,
8,0,8,0,3,0,3,0,,,,,,,,,,,,,,,,,,,,,,,,,,,,,,,,,,,,,,,,,,,,,,,,,,,,,,,494.7800266999984,494.7800266999984,0.007937600021250546,0.1144190999912098,5.0,1.7075981000671163,,,,,,,,,,,,,5317,Moral,2024-08-06_12h33.09.715,MoralCondition_v2,2022.2.5,30.003351371924467,
8,0,8,0,4,0,4,0,,,,,,,,,,,,,,,,,,,,,,,,,,,,,,,,,,,,,,,,,,,,,,,,,,,,,,,496.5300428000046,496.5300428000046,0.007805500063113868,0.1141156000085175,7.0,1.1740589999826625,,,,,,,,,,,,,5317,Moral,2024-08-06_12h33.09.715,MoralCondition_v2,2022.2.5,30.003351371924467,
8,0,8,0,5,0,5,0,,,,,,,,,,,,,,,,,,,,,,,,,,,,,,,,,,,,,,,,,,,,,,,,,,,,,,,497.72979020001367,497.72979020001367,0.007400300004519522,0.0977409000042826,1.0,1.3913062000647187,,,,,,,,,,,,,5317,Moral,2024-08-06_12h33.09.715,MoralCondition_v2,2022.2.5,30.003351371924467,
8,0,8,0,6,0,6,0,,,,,,,,,,,,,,,,,,,,,,,,,,,,,,,,,,,,,,,,,,,,,,,,,,,,,,,499.16315389995,499.16315389995,0.006661699968390167,0.09728629991877824,2.0,1.4247937999898568,,,,,,,,,,,,,5317,Moral,2024-08-06_12h33.09.715,MoralCondition_v2,2022.2.5,30.003351371924467,
8,0,8,0,,,,,,,,,,,,,,,,,,,,,,,,,,,,,,,,,,,,,,,,,,,,,,,,,,,,,,,,,,,,,,,,,500.6298684999347,500.6298684999347,0.0007122999522835016,0.09915299993008375,7.0,3.3996376000577584,,,,,,,5317,Moral,2024-08-06_12h33.09.715,MoralCondition_v2,2022.2.5,30.003351371924467,
9,0,9,0,0,0,0,0,,,,,,,,,,,,,,,,,,,,,,,504.06330479995813,0.0003046999918296933,0.09885929990559816,510.0799622000195,6.015306399902329,,510.2632368999766,510.2632368999766,0.09362429997418076,0.19873529998585582,6.032069099950604,516.3632479999214,516.3632479999214,516.3632479999214,0.08436199999414384,0.19864950003102422,522.0630448999582,522.2630562999984,6.031876799999736,6.131832199986093,528.2630589000182,12.031876900000498,528.396390400012,528.396390400012,0.03208849998190999,0.13177159999031574,up,1.99921609996818,530.4464049999369,4.349998198449612e-05,0.09802279993891716,,536.4796649999917,536.4796649999917,0.025546499993652105,0.13131460000295192,2.0,3.2067794000031427,,,,,,,528.363055499969,528.363055499969,516.2630332999397,516.2630332999397,,,5317,Moral,2024-08-06_12h33.09.715,MoralCondition_v2,2022.2.5,30.003351371924467,
9,0,9,0,1,0,1,0,,,,,,,,,,,,,,,,,,,,,,,,,,,,,,,,,,,,,,,,,,,,,,,,,,,,,,,539.7129999999888,539.7129999999888,0.006582299945876002,0.09936769993510097,7.0,1.5604842000175267,,,,,,,,,,,,,5317,Moral,2024-08-06_12h33.09.715,MoralCondition_v2,2022.2.5,30.003351371924467,
9,0,9,0,2,0,2,0,,,,,,,,,,,,,,,,,,,,,,,,,,,,,,,,,,,,,,,,,,,,,,,,,,,,,,,541.3130063000135,541.3130063000135,0.006666300003416836,0.09922880004160106,2.0,1.0935844000196084,,,,,,,,,,,,,5317,Moral,2024-08-06_12h33.09.715,MoralCondition_v2,2022.2.5,30.003351371924467,
9,0,9,0,3,0,3,0,,,,,,,,,,,,,,,,,,,,,,,,,,,,,,,,,,,,,,,,,,,,,,,,,,,,,,,542.4465060000075,542.4465060000075,0.006533899926580489,0.09903499996289611,1.0,1.4934583000140265,,,,,,,,,,,,,5317,Moral,2024-08-06_12h33.09.715,MoralCondition_v2,2022.2.5,30.003351371924467,
9,0,9,0,4,0,4,0,,,,,,,,,,,,,,,,,,,,,,,,,,,,,,,,,,,,,,,,,,,,,,,,,,,,,,,543.996379399905,543.996379399905,0.008240900002419949,0.11396809993311763,1.0,1.30684990005102,,,,,,,,,,,,,5317,Moral,2024-08-06_12h33.09.715,MoralCondition_v2,2022.2.5,30.003351371924467,
9,0,9,0,5,0,5,0,,,,,,,,,,,,,,,,,,,,,,,,,,,,,,,,,,,,,,,,,,,,,,,,,,,,,,,545.3296636999585,545.3296636999585,0.006562800030224025,0.09923940000589937,5.0,1.6935775000602007,,,,,,,,,,,,,5317,Moral,2024-08-06_12h33.09.715,MoralCondition_v2,2022.2.5,30.003351371924467,
9,0,9,0,6,0,6,0,,,,,,,,,,,,,,,,,,,,,,,,,,,,,,,,,,,,,,,,,,,,,,,,,,,,,,,547.0630327999825,547.0630327999825,0.0074995000613853335,0.09797990007791668,2.0,2.5914210999617353,,,,,,,,,,,,,5317,Moral,2024-08-06_12h33.09.715,MoralCondition_v2,2022.2.5,30.003351371924467,
9,0,9,0,,,,,,,,,,,,,,,,,,,,,,,,,,,,,,,,,,,,,,,,,,,,,,,,,,,,,,,,,,,,,,,,,549.6964129999978,549.6964129999978,0.001229400048032403,0.0978645000141114,7.0,1.631239099893719,,,,,,,5317,Moral,2024-08-06_12h33.09.715,MoralCondition_v2,2022.2.5,30.003351371924467,
10,0,10,0,0,0,0,0,,,,,,,,,,,,,,,,,,,,,,,551.3632063999539,0.00014190003275871277,0.09910790005233139,557.3797224999871,6.015660300035961,,557.546501899953,557.546501899953,0.07511350011918694,0.18256380001548678,6.0156148000387475,563.6464839999098,563.6464839999098,563.6464839999098,0.07388210005592555,0.1823461001040414,569.3463275999529,569.546542899916,6.015898100100458,6.115642600110732,575.5464307999937,12.015805500093848,575.6796029999387,575.6796029999387,0.015671800123527646,0.11563570005819201,up,1.4920719999354333,577.212987100007,6.330001633614302e-05,0.09789219999220222,583.2128412999446,583.2128412999446,583.2128412999446,0.006340399966575205,0.09797849995084107,2.0,3.592500100028701,,,,,,,575.6294809000101,575.6294809000101,563.5464317000005,563.5464317000005,,,5317,Moral,2024-08-06_12h33.09.715,MoralCondition_v2,2022.2.5,30.003351371924467,
10,0,10,0,1,0,1,0,,,,,,,,,,,,,,,,,,,,,,,,,,,,,,,,,,,,,,,,,,,,,,,,,,,,,,,586.8464544999879,586.8464544999879,0.006685500033199787,0.09932290005963296,2.0,1.0266957000130787,,,,,,,,,,,,,5317,Moral,2024-08-06_12h33.09.715,MoralCondition_v2,2022.2.5,30.003351371924467,
10,0,10,0,2,0,2,0,,,,,,,,,,,,,,,,,,,,,,,,,,,,,,,,,,,,,,,,,,,,,,,,,,,,,,,587.9128764999332,587.9128764999332,0.007703399984166026,0.09761830000206828,2.0,1.091148600098677,,,,,,,,,,,,,5317,Moral,2024-08-06_12h33.09.715,MoralCondition_v2,2022.2.5,30.003351371924467,
10,0,10,0,3,0,3,0,,,,,,,,,,,,,,,,,,,,,,,,,,,,,,,,,,,,,,,,,,,,,,,,,,,,,,,589.0464430999709,589.0464430999709,0.007085300050675869,0.0973618000280112,7.0,1.5911259000422433,,,,,,,,,,,,,5317,Moral,2024-08-06_12h33.09.715,MoralCondition_v2,2022.2.5,30.003351371924467,
10,0,10,0,4,0,4,0,,,,,,,,,,,,,,,,,,,,,,,,,,,,,,,,,,,,,,,,,,,,,,,,,,,,,,,590.6797922999831,590.6797922999831,0.00677239999640733,0.0991965999128297,1.0,1.4932609000243247,,,,,,,,,,,,,5317,Moral,2024-08-06_12h33.09.715,MoralCondition_v2,2022.2.5,30.003351371924467,
10,0,10,0,5,0,5,0,,,,,,,,,,,,,,,,,,,,,,,,,,,,,,,,,,,,,,,,,,,,,,,,,,,,,,,592.2129549999954,592.2129549999954,0.006897300016134977,0.0991169000044465,5.0,2.0599070000462234,,,,,,,,,,,,,5317,Moral,2024-08-06_12h33.09.715,MoralCondition_v2,2022.2.5,30.003351371924467,
10,0,10,0,6,0,6,0,,,,,,,,,,,,,,,,,,,,,,,,,,,,,,,,,,,,,,,,,,,,,,,,,,,,,,,594.3129101999803,594.3129101999803,0.006542399991303682,0.09935740008950233,1.0,1.4938243000069633,,,,,,,,,,,,,5317,Moral,2024-08-06_12h33.09.715,MoralCondition_v2,2022.2.5,30.003351371924467,
10,0,10,0,,,,,,,,,,,,,,,,,,,,,,,,,,,,,,,,,,,,,,,,,,,,,,,,,,,,,,,,,,,,,,,,,595.8462297999067,595.8462297999067,0.0007099000504240394,0.0990872000111267,7.0,2.66642599995248,,,,,,,5317,Moral,2024-08-06_12h33.09.715,MoralCondition_v2,2022.2.5,30.003351371924467,
11,0,11,0,0,0,0,0,,,,,,,,,,,,,,,,,,,,,,,598.546662800014,0.00014779996126890182,0.09922620002180338,604.5462525999174,5.999102799920365,6.099071800010279,604.7462416999042,604.7462416999042,0.09603040001820773,0.1992649999447167,5.999092199956067,610.8128914999543,610.8128914999543,610.8128914999543,0.06697310006711632,0.1660231000278145,616.5129216999048,616.7128658000147,5.999100100016221,6.098906800034456,622.712871799944,11.99910830007866,622.8459877999267,622.8459877999267,-0.000228899996727705,0.1156995000783354,down,1.261579400044866,624.1462795999832,3.6400044336915016e-05,0.09821259998716414,,630.1796882000053,630.1796882000053,0.025638599996455014,0.13146990002132952,7.0,3.140232100035064,,,,,,,622.7960393999238,622.7960393999238,610.8128914999543,610.8128914999543,6.099051699973643,12.09900759998709,5317,Moral,2024-08-06_12h33.09.715,MoralCondition_v2,2022.2.5,30.003351371924467,
11,0,11,0,1,0,1,0,,,,,,,,,,,,,,,,,,,,,,,,,,,,,,,,,,,,,,,,,,,,,,,,,,,,,,,633.3629152999492,633.3629152999492,0.008090200019069016,0.11453340004663914,5.0,2.0072915999917313,,,,,,,,,,,,,5317,Moral,2024-08-06_12h33.09.715,MoralCondition_v2,2022.2.5,30.003351371924467,
11,0,11,0,2,0,2,0,,,,,,,,,,,,,,,,,,,,,,,,,,,,,,,,,,,,,,,,,,,,,,,,,,,,,,,635.4134047999978,635.4134047999978,0.0077327999752014875,0.11439500004053116,2.0,1.9742088000057265,,,,,,,,,,,,,5317,Moral,2024-08-06_12h33.09.715,MoralCondition_v2,2022.2.5,30.003351371924467,
11,0,11,0,3,0,3,0,,,,,,,,,,,,,,,,,,,,,,,,,,,,,,,,,,,,,,,,,,,,,,,,,,,,,,,637.4126883000135,637.4126883000135,0.006817899993620813,0.09810750000178814,5.0,2.0257366999285296,,,,,,,,,,,,,5317,Moral,2024-08-06_12h33.09.715,MoralCondition_v2,2022.2.5,30.003351371924467,
11,0,11,0,4,0,4,0,,,,,,,,,,,,,,,,,,,,,,,,,,,,,,,,,,,,,,,,,,,,,,,,,,,,,,,639.4961291999789,639.4961291999789,0.00980840006377548,0.11556220008060336,5.0,1.4400137000484392,,,,,,,,,,,,,5317,Moral,2024-08-06_12h33.09.715,MoralCondition_v2,2022.2.5,30.003351371924467,
11,0,11,0,5,0,5,0,,,,,,,,,,,,,,,,,,,,,,,,,,,,,,,,,,,,,,,,,,,,,,,,,,,,,,,640.9628599999705,640.9628599999705,0.007459499989636242,0.09783029998652637,1.0,1.3247431999770924,,,,,,,,,,,,,5317,Moral,2024-08-06_12h33.09.715,MoralCondition_v2,2022.2.5,30.003351371924467,
11,0,11,0,6,0,6,0,,,,,,,,,,,,,,,,,,,,,,,,,,,,,,,,,,,,,,,,,,,,,,,,,,,,,,,642.3293155999854,642.3293155999854,0.007759899948723614,0.099005899974145,7.0,1.3919503000797704,,,,,,,,,,,,,5317,Moral,2024-08-06_12h33.09.715,MoralCondition_v2,2022.2.5,30.003351371924467,
11,0,11,0,,,,,,,,,,,,,,,,,,,,,,,,,,,,,,,,,,,,,,,,,,,,,,,,,,,,,,,,,,,,,,,,,643.7628961999435,643.7628961999435,0.0014483000850304961,0.09764440008439124,1.0,2.597537099965848,,,,,,,5317,Moral,2024-08-06_12h33.09.715,MoralCondition_v2,2022.2.5,30.003351371924467,
12,0,12,0,0,0,0,0,,,,,,,,,,,,,,,,,,,,,,,646.3963682999602,0.00034559995401650667,0.09762759995646775,652.3961619000183,6.030971899977885,,652.5959770999616,652.5959770999616,0.09537310001906008,0.19757990003563464,6.030722800060175,658.6960504999151,658.6960504999151,658.6960504999151,0.0906356000341475,0.19752440007869154,664.3961058999412,664.5961071999045,6.030919500044547,6.1308760000392795,670.5960874999873,12.030900900019333,670.7294232000131,670.7294232000131,0.031103800050914288,0.1308240001089871,down,3.074554100050591,673.8460869999835,2.9999995604157448e-05,0.098891899921,,679.8627437999239,679.8627437999239,0.026897999923676252,0.11567979992832989,5.0,2.223638700088486,,,,,,,670.6961086000083,670.6961086000083,658.5961292999564,658.5961292999564,,,5317,Moral,2024-08-06_12h33.09.715,MoralCondition_v2,2022.2.5,30.003351371924467,
12,0,12,0,1,0,1,0,,,,,,,,,,,,,,,,,,,,,,,,,,,,,,,,,,,,,,,,,,,,,,,,,,,,,,,682.1293684999691,682.1293684999691,0.007200399995781481,0.09804999991320074,7.0,1.391737399972044,,,,,,,,,,,,,5317,Moral,2024-08-06_12h33.09.715,MoralCondition_v2,2022.2.5,30.003351371924467,
12,0,12,0,2,0,2,0,,,,,,,,,,,,,,,,,,,,,,,,,,,,,,,,,,,,,,,,,,,,,,,,,,,,,,,683.5629353999393,683.5629353999393,0.006426600040867925,0.09919840004295111,2.0,1.5936992999631912,,,,,,,,,,,,,5317,Moral,2024-08-06_12h33.09.715,MoralCondition_v2,2022.2.5,30.003351371924467,
12,0,12,0,3,0,3,0,,,,,,,,,,,,,,,,,,,,,,,,,,,,,,,,,,,,,,,,,,,,,,,,,,,,,,,685.1959042999661,685.1959042999661,0.007301399949938059,0.09714550001081079,7.0,1.357488099951297,,,,,,,,,,,,,5317,Moral,2024-08-06_12h33.09.715,MoralCondition_v2,2022.2.5,30.003351371924467,
12,0,12,0,4,0,4,0,,,,,,,,,,,,,,,,,,,,,,,,,,,,,,,,,,,,,,,,,,,,,,,,,,,,,,,686.5960749000078,686.5960749000078,0.007601000019349158,0.09761760011315346,1.0,1.2911529000848532,,,,,,,,,,,,,5317,Moral,2024-08-06_12h33.09.715,MoralCondition_v2,2022.2.5,30.003351371924467,
12,0,12,0,5,0,5,0,,,,,,,,,,,,,,,,,,,,,,,,,,,,,,,,,,,,,,,,,,,,,,,,,,,,,,,687.9294302000199,687.9294302000199,0.007489899988286197,0.09778569999616593,5.0,1.5914417000021785,,,,,,,,,,,,,5317,Moral,2024-08-06_12h33.09.715,MoralCondition_v2,2022.2.5,30.003351371924467,
12,0,12,0,6,0,6,0,,,,,,,,,,,,,,,,,,,,,,,,,,,,,,,,,,,,,,,,,,,,,,,,,,,,,,,689.5625732999761,689.5625732999761,0.00664339994546026,0.09935779997613281,5.0,1.0603233999572694,,,,,,,,,,,,,5317,Moral,2024-08-06_12h33.09.715,MoralCondition_v2,2022.2.5,30.003351371924467,
12,0,12,0,,,,,,,,,,,,,,,,,,,,,,,,,,,,,,,,,,,,,,,,,,,,,,,,,,,,,,,,,,,,,,,,,690.6625449999701,690.6625449999701,0.0023045000853016973,0.09773470007348806,1.0,2.496541899978183,,,,,,,5317,Moral,2024-08-06_12h33.09.715,MoralCondition_v2,2022.2.5,30.003351371924467,
13,0,13,0,0,0,0,0,,,,,,,,,,,,,,,,,,,,,,,693.1962469000136,0.00028280005790293217,0.0977409000042826,699.2126779999817,6.014364600065164,,699.4627644999418,699.4627644999418,0.1524473000317812,0.26462150004226714,6.03091830003541,705.4961099999491,705.4961099999491,705.4961099999491,0.0923049000557512,0.19758220005314797,711.1959412000142,711.3959459000034,6.030920700053684,6.130754100042395,717.3959763000021,12.030951400054619,717.5292483000085,717.5292483000085,0.031097000115551054,0.13084730016998947,down,2.211028099991381,719.7793838999933,5.0699920393526554e-05,0.0976691999239847,,725.7960166999837,725.7960166999837,0.025016999919898808,0.11454889993183315,7.0,3.2238633999368176,,,,,,,717.4959282999625,717.4959282999625,,,,,5317,Moral,2024-08-06_12h33.09.715,MoralCondition_v2,2022.2.5,30.003351371924467,
13,0,13,0,1,0,1,0,,,,,,,,,,,,,,,,,,,,,,,,,,,,,,,,,,,,,,,,,,,,,,,,,,,,,,,729.0627170999069,729.0627170999069,0.007435800042003393,0.09801070007961243,1.0,1.8914293999550864,,,,,,,,,,,,,5317,Moral,2024-08-06_12h33.09.715,MoralCondition_v2,2022.2.5,30.003351371924467,
13,0,13,0,2,0,2,0,,,,,,,,,,,,,,,,,,,,,,,,,,,,,,,,,,,,,,,,,,,,,,,,,,,,,,,730.995917399996,730.995917399996,0.007342800032347441,0.09793899999931455,2.0,2.9583727999124676,,,,,,,,,,,,,5317,Moral,2024-08-06_12h33.09.715,MoralCondition_v2,2022.2.5,30.003351371924467,
13,0,13,0,3,0,3,0,,,,,,,,,,,,,,,,,,,,,,,,,,,,,,,,,,,,,,,,,,,,,,,,,,,,,,,733.9956684999634,733.9956684999634,0.007764799986034632,0.09790269995573908,5.0,1.3910206999862567,,,,,,,,,,,,,5317,Moral,2024-08-06_12h33.09.715,MoralCondition_v2,2022.2.5,30.003351371924467,
13,0,13,0,4,0,4,0,,,,,,,,,,,,,,,,,,,,,,,,,,,,,,,,,,,,,,,,,,,,,,,,,,,,,,,735.4461900999304,735.4461900999304,0.007987599936313927,0.11380749999079853,7.0,1.173916499945335,,,,,,,,,,,,,5317,Moral,2024-08-06_12h33.09.715,MoralCondition_v2,2022.2.5,30.003351371924467,
13,0,13,0,5,0,5,0,,,,,,,,,,,,,,,,,,,,,,,,,,,,,,,,,,,,,,,,,,,,,,,,,,,,,,,736.6627324000001,736.6627324000001,0.007621399941854179,0.11412499996367842,5.0,1.2073567000916228,,,,,,,,,,,,,5317,Moral,2024-08-06_12h33.09.715,MoralCondition_v2,2022.2.5,30.003351371924467,
13,0,13,0,6,0,6,0,,,,,,,,,,,,,,,,,,,,,,,,,,,,,,,,,,,,,,,,,,,,,,,,,,,,,,,737.8959329999052,737.8959329999052,0.007696100044995546,0.09760520001873374,5.0,1.4242725999793038,,,,,,,,,,,,,5317,Moral,2024-08-06_12h33.09.715,MoralCondition_v2,2022.2.5,30.003351371924467,
13,0,13,0,,,,,,,,,,,,,,,,,,,,,,,,,,,,,,,,,,,,,,,,,,,,,,,,,,,,,,,,,,,,,,,,,739.3625915999291,739.3625915999291,0.0009327000007033348,0.0987446999642998,1.0,1.8990553000476211,,,,,,,5317,Moral,2024-08-06_12h33.09.715,MoralCondition_v2,2022.2.5,30.003351371924467,
14,0,14,0,0,0,0,0,,,,,,,,,,,,,,,,,,,,,,,741.2959550999803,0.0003978000022470951,0.09779199992772192,747.2958713999251,6.03116879996378,,747.4792497999733,747.4792497999733,0.07011339999735355,0.18112299998756498,6.014459199970588,753.5790860999841,753.5790860999841,753.5790860999841,0.0681791000533849,0.18131010001525283,759.2791820999701,759.4791862999555,6.014460599981248,6.114665000000969,765.4791749999858,12.01444589998573,765.6125155999325,765.6125155999325,0.014654000056907535,0.11436680005863309,up,1.495956699945964,767.1458601999329,4.730001091957092e-05,0.09766209998633713,,773.1624209999572,773.1624209999572,0.02469270001165569,0.11417890002485365,2.0,2.3239343999885023,,,,,,,765.5791729999473,765.5791729999473,753.4624362000031,753.4624362000031,,,5317,Moral,2024-08-06_12h33.09.715,MoralCondition_v2,2022.2.5,30.003351371924467,
14,0,14,0,1,0,1,0,,,,,,,,,,,,,,,,,,,,,,,,,,,,,,,,,,,,,,,,,,,,,,,,,,,,,,,775.5460910999682,775.5460910999682,0.008007099968381226,0.11419969995040447,7.0,1.7070651999674737,,,,,,,,,,,,,5317,Moral,2024-08-06_12h33.09.715,MoralCondition_v2,2022.2.5,30.003351371924467,
14,0,14,0,2,0,2,0,,,,,,,,,,,,,,,,,,,,,,,,,,,,,,,,,,,,,,,,,,,,,,,,,,,,,,,777.2960854999255,777.2960854999255,0.007908400031737983,0.1137618999928236,1.0,1.8405695999972522,,,,,,,,,,,,,5317,Moral,2024-08-06_12h33.09.715,MoralCondition_v2,2022.2.5,30.003351371924467,
14,0,14,0,3,0,3,0,,,,,,,,,,,,,,,,,,,,,,,,,,,,,,,,,,,,,,,,,,,,,,,,,,,,,,,779.1623129999498,779.1623129999498,0.00698300008662045,0.09861420001834631,5.0,1.859192300005816,,,,,,,,,,,,,5317,Moral,2024-08-06_12h33.09.715,MoralCondition_v2,2022.2.5,30.003351371924467,
14,0,14,0,4,0,4,0,,,,,,,,,,,,,,,,,,,,,,,,,,,,,,,,,,,,,,,,,,,,,,,,,,,,,,,781.0623654999072,781.0623654999072,0.007379200076684356,0.09774440003093332,2.0,2.191517799976282,,,,,,,,,,,,,5317,Moral,2024-08-06_12h33.09.715,MoralCondition_v2,2022.2.5,30.003351371924467,
14,0,14,0,5,0,5,0,,,,,,,,,,,,,,,,,,,,,,,,,,,,,,,,,,,,,,,,,,,,,,,,,,,,,,,783.2956951999804,783.2956951999804,0.007384099997580051,0.09706729999743402,2.0,1.0573534000432119,,,,,,,,,,,,,5317,Moral,2024-08-06_12h33.09.715,MoralCondition_v2,2022.2.5,30.003351371924467,
14,0,14,0,6,0,6,0,,,,,,,,,,,,,,,,,,,,,,,,,,,,,,,,,,,,,,,,,,,,,,,,,,,,,,,784.3956290999195,784.3956290999195,0.00794160005170852,0.0977795000653714,1.0,1.257360199932009,,,,,,,,,,,,,5317,Moral,2024-08-06_12h33.09.715,MoralCondition_v2,2022.2.5,30.003351371924467,
14,0,14,0,,,,,,,,,,,,,,,,,,,,,,,,,,,,,,,,,,,,,,,,,,,,,,,,,,,,,,,,,,,,,,,,,785.6957455999218,785.6957455999218,0.0015641999198123813,0.09777029999531806,7.0,1.7639740000013262,,,,,,,5317,Moral,2024-08-06_12h33.09.715,MoralCondition_v2,2022.2.5,30.003351371924467,
15,0,15,0,0,0,0,0,,,,,,,,,,,,,,,,,,,,,,,787.4959811000153,0.0002938000252470374,0.0981999000068754,793.4789064999204,6.01447970001027,6.09799809998367,793.6622761000181,793.6622761000181,0.06055910000577569,0.16497879999224097,6.031364299939014,799.7788444999605,799.7788444999605,799.7788444999605,0.08206980000250041,0.18127940001431853,805.4788697999902,805.6788970999187,6.0145350999664515,6.114372199983336,811.6790236999514,12.014651000034064,811.812399999937,811.812399999937,0.014969700016081333,0.11475200008135289,up,2.471891700057313,814.3292668999638,4.870002157986164e-05,0.09781139995902777,,820.3625484999502,820.3625484999502,0.024540900019928813,0.13123739999718964,2.0,4.307481899973936,,,,,,,811.7792099999497,811.7792099999497,799.6623900999548,799.6623900999548,,,5317,Moral,2024-08-06_12h33.09.715,MoralCondition_v2,2022.2.5,30.003351371924467,
15,0,15,0,1,0,1,0,,,,,,,,,,,,,,,,,,,,,,,,,,,,,,,,,,,,,,,,,,,,,,,,,,,,,,,824.695651799906,824.695651799906,0.007484099944122136,0.09838899993337691,2.0,1.8252548000309616,,,,,,,,,,,,,5317,Moral,2024-08-06_12h33.09.715,MoralCondition_v2,2022.2.5,30.003351371924467,
15,0,15,0,2,0,2,0,,,,,,,,,,,,,,,,,,,,,,,,,,,,,,,,,,,,,,,,,,,,,,,,,,,,,,,826.5623243999435,826.5623243999435,0.007468300056643784,0.09807700000237674,5.0,3.058026200043969,,,,,,,,,,,,,5317,Moral,2024-08-06_12h33.09.715,MoralCondition_v2,2022.2.5,30.003351371924467,
15,0,15,0,3,0,3,0,,,,,,,,,,,,,,,,,,,,,,,,,,,,,,,,,,,,,,,,,,,,,,,,,,,,,,,829.6623828000156,829.6623828000156,0.006845999974757433,0.09942700003739446,1.0,1.4934428000124171,,,,,,,,,,,,,5317,Moral,2024-08-06_12h33.09.715,MoralCondition_v2,2022.2.5,30.003351371924467,
15,0,15,0,4,0,4,0,,,,,,,,,,,,,,,,,,,,,,,,,,,,,,,,,,,,,,,,,,,,,,,,,,,,,,,831.1955322999274,831.1955322999274,0.006307999952696264,0.0993628998985514,1.0,1.3607276999391615,,,,,,,,,,,,,5317,Moral,2024-08-06_12h33.09.715,MoralCondition_v2,2022.2.5,30.003351371924467,
15,0,15,0,5,0,5,0,,,,,,,,,,,,,,,,,,,,,,,,,,,,,,,,,,,,,,,,,,,,,,,,,,,,,,,832.5955416999059,832.5955416999059,0.00713839998934418,0.0984330999199301,2.0,2.3921828999882564,,,,,,,,,,,,,5317,Moral,2024-08-06_12h33.09.715,MoralCondition_v2,2022.2.5,30.003351371924467,
15,0,15,0,6,0,6,0,,,,,,,,,,,,,,,,,,,,,,,,,,,,,,,,,,,,,,,,,,,,,,,,,,,,,,,835.0289896000177,835.0289896000177,0.0070686000399291515,0.0983554000267759,7.0,1.1921767999883741,,,,,,,,,,,,,5317,Moral,2024-08-06_12h33.09.715,MoralCondition_v2,2022.2.5,30.003351371924467,
15,0,15,0,,,,,,,,,,,,,,,,,,,,,,,,,,,,,,,,,,,,,,,,,,,,,,,,,,,,,,,,,,,,,,,,,836.2622456999961,836.2622456999961,0.0012280000373721123,0.09760540002025664,7.0,2.230962400091812,,,,,,,5317,Moral,2024-08-06_12h33.09.715,MoralCondition_v2,2022.2.5,30.003351371924467,
16,0,16,0,0,0,0,0,,,,,,,,,,,,,,,,,,,,,,,838.5293721999042,0.00031869998201727867,0.09769750002305955,844.5289848999819,6.031046099960804,,844.7290622999426,844.7290622999426,0.09113840002100915,0.19784070004243404,6.030938099953346,850.8290570999961,850.8290570999961,850.8290570999961,0.08559969998896122,0.19758989999536425,856.5289556999924,856.7289477000013,6.0309636000311,6.130892500048503,862.7289424999617,12.030962500022724,862.8622370999074,862.8622370999074,0.031237000017426908,0.1309021000051871,up,2.22172050003428,865.1288426999236,4.680000711232424e-05,0.09761130006518215,,871.1454788999399,871.1454788999399,0.021091700065881014,0.1142715000314638,2.0,4.360931699979119,,,,,,,862.8289976000087,862.8289976000087,850.7289538999321,850.7289538999321,,,5317,Moral,2024-08-06_12h33.09.715,MoralCondition_v2,2022.2.5,30.003351371924467,
16,0,16,0,1,0,1,0,,,,,,,,,,,,,,,,,,,,,,,,,,,,,,,,,,,,,,,,,,,,,,,,,,,,,,,875.5456516999984,875.5456516999984,0.006992399925366044,0.09845479996874928,2.0,1.1424212000565603,,,,,,,,,,,,,5317,Moral,2024-08-06_12h33.09.715,MoralCondition_v2,2022.2.5,30.003351371924467,
16,0,16,0,2,0,2,0,,,,,,,,,,,,,,,,,,,,,,,,,,,,,,,,,,,,,,,,,,,,,,,,,,,,,,,876.7289217999205,876.7289217999205,0.006606600014492869,0.09929560008458793,1.0,1.126967400079593,,,,,,,,,,,,,5317,Moral,2024-08-06_12h33.09.715,MoralCondition_v2,2022.2.5,30.003351371924467,
16,0,16,0,3,0,3,0,,,,,,,,,,,,,,,,,,,,,,,,,,,,,,,,,,,,,,,,,,,,,,,,,,,,,,,877.9126182999462,877.9126182999462,0.007882299949415028,0.11372559994924814,6.0,2.407069699955173,,,,,,,,,,,,,5317,Moral,2024-08-06_12h33.09.715,MoralCondition_v2,2022.2.5,30.003351371924467,
16,0,16,0,4,0,4,0,,,,,,,,,,,,,,,,,,,,,,,,,,,,,,,,,,,,,,,,,,,,,,,,,,,,,,,880.3625168999424,880.3625168999424,0.007653100066818297,0.11433260003104806,7.0,1.3076004999456927,,,,,,,,,,,,,5317,Moral,2024-08-06_12h33.09.715,MoralCondition_v2,2022.2.5,30.003351371924467,
16,0,16,0,5,0,5,0,,,,,,,,,,,,,,,,,,,,,,,,,,,,,,,,,,,,,,,,,,,,,,,,,,,,,,,881.6954711999279,881.6954711999279,0.007259800098836422,0.09803740005008876,2.0,1.3252306999638677,,,,,,,,,,,,,5317,Moral,2024-08-06_12h33.09.715,MoralCondition_v2,2022.2.5,30.003351371924467,
16,0,16,0,6,0,6,0,,,,,,,,,,,,,,,,,,,,,,,,,,,,,,,,,,,,,,,,,,,,,,,,,,,,,,,883.0791812000098,883.0791812000098,0.00801260001026094,0.11428599990904331,1.0,1.2071646999102086,,,,,,,,,,,,,5317,Moral,2024-08-06_12h33.09.715,MoralCondition_v2,2022.2.5,30.003351371924467,
16,0,16,0,,,,,,,,,,,,,,,,,,,,,,,,,,,,,,,,,,,,,,,,,,,,,,,,,,,,,,,,,,,,,,,,,884.3125563999638,884.3125563999638,0.0006623000372201204,0.09916050010360777,7.0,1.9329164000228047,,,,,,,5317,Moral,2024-08-06_12h33.09.715,MoralCondition_v2,2022.2.5,30.003351371924467,
17,0,17,0,0,0,0,0,,,,,,,,,,,,,,,,,,,,,,,886.2791564000072,0.0002905000001192093,0.09745299990754575,892.2955542999553,6.013991300016642,,892.4621954999166,892.4621954999166,0.07603520003613085,0.1808803000021726,6.014034199994057,898.5621406999417,898.5621406999417,898.5621406999417,0.0699888999806717,0.18084629997611046,904.2621639999561,904.4622388000134,6.014177500037476,6.113982700044289,910.4621376999421,12.013994800043292,910.5954648000188,910.5954648000188,0.014263799996115267,0.11402009997982532,down,1.5447114000562578,912.1954109999351,6.890005897730589e-05,0.09783980005886406,918.2121273999801,918.2121273999801,918.2121273999801,0.009671100066043437,0.11458559997845441,1.0,3.2057823999784887,,,,,,,910.5621807000134,910.5621807000134,898.4623924000189,898.4623924000189,,,5317,Moral,2024-08-06_12h33.09.715,MoralCondition_v2,2022.2.5,30.003351371924467,
17,0,17,0,1,0,1,0,,,,,,,,,,,,,,,,,,,,,,,,,,,,,,,,,,,,,,,,,,,,,,,,,,,,,,,921.4453458999051,921.4453458999051,0.008222499978728592,0.09843200002796948,5.0,2.024661000003107,,,,,,,,,,,,,5317,Moral,2024-08-06_12h33.09.715,MoralCondition_v2,2022.2.5,30.003351371924467,
17,0,17,0,2,0,2,0,,,,,,,,,,,,,,,,,,,,,,,,,,,,,,,,,,,,,,,,,,,,,,,,,,,,,,,923.5122603999916,923.5122603999916,0.0067254999885335565,0.0994413000298664,7.0,1.427007400081493,,,,,,,,,,,,,5317,Moral,2024-08-06_12h33.09.715,MoralCondition_v2,2022.2.5,30.003351371924467,
17,0,17,0,3,0,3,0,,,,,,,,,,,,,,,,,,,,,,,,,,,,,,,,,,,,,,,,,,,,,,,,,,,,,,,924.9790737999137,924.9790737999137,0.007320199976675212,0.09800299990456551,1.0,1.2252501000184566,,,,,,,,,,,,,5317,Moral,2024-08-06_12h33.09.715,MoralCondition_v2,2022.2.5,30.003351371924467,
17,0,17,0,4,0,4,0,,,,,,,,,,,,,,,,,,,,,,,,,,,,,,,,,,,,,,,,,,,,,,,,,,,,,,,926.2454558999743,926.2454558999743,0.0075147999450564384,0.09940279996953905,7.0,2.359391300007701,,,,,,,,,,,,,5317,Moral,2024-08-06_12h33.09.715,MoralCondition_v2,2022.2.5,30.003351371924467,
17,0,17,0,5,0,5,0,,,,,,,,,,,,,,,,,,,,,,,,,,,,,,,,,,,,,,,,,,,,,,,,,,,,,,,928.6454474999337,928.6454474999337,0.0071767999324947596,0.09897409996483475,5.0,2.3262674999423325,,,,,,,,,,,,,5317,Moral,2024-08-06_12h33.09.715,MoralCondition_v2,2022.2.5,30.003351371924467,
17,0,17,0,6,0,6,0,,,,,,,,,,,,,,,,,,,,,,,,,,,,,,,,,,,,,,,,,,,,,,,,,,,,,,,931.012032300001,931.012032300001,0.007544299936853349,0.09780550003051758,4.0,1.6915330000920221,,,,,,,,,,,,,5317,Moral,2024-08-06_12h33.09.715,MoralCondition_v2,2022.2.5,30.003351371924467,
17,0,17,0,,,,,,,,,,,,,,,,,,,,,,,,,,,,,,,,,,,,,,,,,,,,,,,,,,,,,,,,,,,,,,,,,932.7453751999419,932.7453751999419,0.001920799957588315,0.09719179989770055,2.0,2.1298217000439763,,,,,,,5317,Moral,2024-08-06_12h33.09.715,MoralCondition_v2,2022.2.5,30.003351371924467,
18,0,18,0,0,0,0,0,,,,,,,,,,,,,,,,,,,,,,,934.9120337999193,0.00015520001761615276,0.09925229998771101,940.9124184999382,5.999451700015925,6.099183800048195,941.0787936999695,941.0787936999695,0.058802800020202994,0.16585370001848787,5.999443600070663,947.1787718000123,947.1787718000123,947.1787718000123,0.05306720011867583,0.16596010013017803,952.8787479000166,953.0787134999409,5.999146300018765,6.099112000083551,959.0787040999858,11.999170000082813,959.2120004999451,959.2120004999451,1.27000967040658e-05,0.09916080010589212,up,1.3440814000787213,960.6120133999502,5.989999044686556e-05,0.09791479993145913,966.6289809999289,966.6289809999289,966.6289809999289,0.008729199995286763,0.11438159993849695,2.0,3.606862199958414,,,,,,,959.1786705999402,959.1786705999402,947.0787057999987,947.0787057999987,6.099130600108765,12.099103000131436,5317,Moral,2024-08-06_12h33.09.715,MoralCondition_v2,2022.2.5,30.003351371924467,
18,0,18,0,1,0,1,0,,,,,,,,,,,,,,,,,,,,,,,,,,,,,,,,,,,,,,,,,,,,,,,,,,,,,,,970.2620193000184,970.2620193000184,0.0065590000012889504,0.09915859997272491,7.0,1.7933977000648156,,,,,,,,,,,,,5317,Moral,2024-08-06_12h33.09.715,MoralCondition_v2,2022.2.5,30.003351371924467,
18,0,18,0,2,0,2,0,,,,,,,,,,,,,,,,,,,,,,,,,,,,,,,,,,,,,,,,,,,,,,,,,,,,,,,972.0953751999186,972.0953751999186,0.0074992000591009855,0.09786270000040531,1.0,2.191449699923396,,,,,,,,,,,,,5317,Moral,2024-08-06_12h33.09.715,MoralCondition_v2,2022.2.5,30.003351371924467,
18,0,18,0,3,0,3,0,,,,,,,,,,,,,,,,,,,,,,,,,,,,,,,,,,,,,,,,,,,,,,,,,,,,,,,974.328660500003,974.328660500003,0.00701389997266233,0.09927010000683367,1.0,0.8262760000070557,,,,,,,,,,,,,5317,Moral,2024-08-06_12h33.09.715,MoralCondition_v2,2022.2.5,30.003351371924467,
18,0,18,0,4,0,4,0,,,,,,,,,,,,,,,,,,,,,,,,,,,,,,,,,,,,,,,,,,,,,,,,,,,,,,,975.2121929000132,975.2121929000132,0.007943500066176057,0.11291630007326603,2.0,2.4392541999695823,,,,,,,,,,,,,5317,Moral,2024-08-06_12h33.09.715,MoralCondition_v2,2022.2.5,30.003351371924467,
18,0,18,0,5,0,5,0,,,,,,,,,,,,,,,,,,,,,,,,,,,,,,,,,,,,,,,,,,,,,,,,,,,,,,,977.6785473999334,977.6785473999334,0.0065469000255689025,0.09931109996978194,2.0,0.9271401000441983,,,,,,,,,,,,,5317,Moral,2024-08-06_12h33.09.715,MoralCondition_v2,2022.2.5,30.003351371924467,
18,0,18,0,6,0,6,0,,,,,,,,,,,,,,,,,,,,,,,,,,,,,,,,,,,,,,,,,,,,,,,,,,,,,,,978.6452744000126,978.6452744000126,0.007534899981692433,0.09779060003347695,6.0,1.7911295000230893,,,,,,,,,,,,,5317,Moral,2024-08-06_12h33.09.715,MoralCondition_v2,2022.2.5,30.003351371924467,
18,0,18,0,,,,,,,,,,,,,,,,,,,,,,,,,,,,,,,,,,,,,,,,,,,,,,,,,,,,,,,,,,,,,,,,,980.4786388999783,980.4786388999783,0.0006783000426366925,0.09930280002299696,7.0,2.532803399953991,,,,,,,5317,Moral,2024-08-06_12h33.09.715,MoralCondition_v2,2022.2.5,30.003351371924467,
19,0,19,0,0,0,0,0,,,,,,,,,,,,,,,,,,,,,,,983.0453311000019,0.0004132000030949712,0.09729239996522665,989.0619686999125,6.013918499927968,,989.2286246999865,989.2286246999865,0.07751149998512119,0.18058389995712787,6.013763700029813,995.3119595999597,995.3119595999597,995.3119595999597,0.06466280005406588,0.16409730003215373,1001.0119057999691,1001.2452461000066,6.030590799986385,6.1307751999702305,1007.2452433999861,12.03064400004223,1007.362123799976,1007.362123799976,0.01385300001129508,0.11368489998858422,up,1.681918099988252,1009.095247099991,9.240000508725643e-05,0.09798020008020103,,1015.1285743999761,1015.1285743999761,0.026191300014033914,0.13139800005592406,1.0,2.9729153000516817,,,,,,,1007.3119367000181,1007.3119367000181,995.211806199979,995.211806199979,,,5317,Moral,2024-08-06_12h33.09.715,MoralCondition_v2,2022.2.5,30.003351371924467,
19,0,19,0,1,0,1,0,,,,,,,,,,,,,,,,,,,,,,,,,,,,,,,,,,,,,,,,,,,,,,,,,,,,,,,1018.145271699992,1018.145271699992,0.009406299912370741,0.11382600001525134,1.0,1.2720636000158265,,,,,,,,,,,,,5317,Moral,2024-08-06_12h33.09.715,MoralCondition_v2,2022.2.5,30.003351371924467,
19,0,19,0,2,0,2,0,,,,,,,,,,,,,,,,,,,,,,,,,,,,,,,,,,,,,,,,,,,,,,,,,,,,,,,1019.4451559999725,1019.4451559999725,0.006744100013747811,0.09926769998855889,7.0,1.6601301999762654,,,,,,,,,,,,,5317,Moral,2024-08-06_12h33.09.715,MoralCondition_v2,2022.2.5,30.003351371924467,
19,0,19,0,3,0,3,0,,,,,,,,,,,,,,,,,,,,,,,,,,,,,,,,,,,,,,,,,,,,,,,,,,,,,,,1021.1621396999108,1021.1621396999108,0.00813099998049438,0.11450899997726083,6.0,1.6071780000347644,,,,,,,,,,,,,5317,Moral,2024-08-06_12h33.09.715,MoralCondition_v2,2022.2.5,30.003351371924467,
19,0,19,0,4,0,4,0,,,,,,,,,,,,,,,,,,,,,,,,,,,,,,,,,,,,,,,,,,,,,,,,,,,,,,,1022.795110899955,1022.795110899955,0.007695099920965731,0.09787890000734478,2.0,1.8580338000319898,,,,,,,,,,,,,5317,Moral,2024-08-06_12h33.09.715,MoralCondition_v2,2022.2.5,30.003351371924467,
19,0,19,0,5,0,5,0,,,,,,,,,,,,,,,,,,,,,,,,,,,,,,,,,,,,,,,,,,,,,,,,,,,,,,,1024.6953042999376,1024.6953042999376,0.006697000004351139,0.09923309995792806,2.0,0.8934935999568552,,,,,,,,,,,,,5317,Moral,2024-08-06_12h33.09.715,MoralCondition_v2,2022.2.5,30.003351371924467,
19,0,19,0,6,0,6,0,,,,,,,,,,,,,,,,,,,,,,,,,,,,,,,,,,,,,,,,,,,,,,,,,,,,,,,1025.6452122000046,1025.6452122000046,0.007990699959918857,0.11362029996234924,2.0,0.9067615999374539,,,,,,,,,,,,,5317,Moral,2024-08-06_12h33.09.715,MoralCondition_v2,2022.2.5,30.003351371924467,
19,0,19,0,,,,,,,,,,,,,,,,,,,,,,,,,,,,,,,,,,,,,,,,,,,,,,,,,,,,,,,,,,,,,,,,,1026.578501699958,1026.578501699958,0.001220499980263412,0.09788740007206798,7.0,1.8644682000158355,,,,,,,5317,Moral,2024-08-06_12h33.09.715,MoralCondition_v2,2022.2.5,30.003351371924467,
