loop.thisRepN,loop.thisTrialN,loop.thisN,loop.thisIndex,evaluate_all_emotions.thisRepN,evaluate_all_emotions.thisTrialN,evaluate_all_emotions.thisN,evaluate_all_emotions.thisIndex,sync_beep_1.started,p_port.started,p_port.stopped,sync_beep_1.stopped,sync_beep_2.started,sync_beep_2.stopped,sync_beep_3.started,sync_beep_3.stopped,sync_beep_4.started,sync_beep_4.stopped,baseline.started,p_port_2.started,p_port_2.stopped,baseline.stopped,p_port_3.started,p_port_3.stopped,Game_Start_Text.started,p_port_4.started,p_port_4.stopped,key_resp.started,key_resp.keys,key_resp.rt,fixation_cross.started,p_port_5.started,p_port_5.stopped,fixation_cross.stopped,p_port_6.started,player_image_intro.started,player_name_intro.started,p_port_7.started,p_port_7.stopped,p_port_8.started,player_image_offer.started,player_name_offer.started,proposed_split.started,p_port_9.started,p_port_9.stopped,proposed_split.stopped,accept_reject.started,p_port_15.started,p_port_15.stopped,accept_reject.stopped,p_port_10.started,arrow_instructions.started,offer_choice.started,p_port_11.started,p_port_11.stopped,offer_choice.keys,offer_choice.rt,Instructions_Affinity_Score.started,p_port_12.started,p_port_12.stopped,Emotion_Image.started,AffinityScore.started,p_port_13.started,p_port_13.stopped,AffinityScore.response,AffinityScore.rt,Instruction.started,Moral_Disgust_Score.started,p_port_14.started,p_port_14.stopped,Moral_Disgust_Score.response,Moral_Disgust_Score.rt,p_port_6.stopped,player_image_intro.stopped,player_name_intro.stopped,player_image_offer.stopped,player_name_offer.stopped,Instructions_Affinity_Score.stopped,p_port_8.stopped,p_port_10.stopped,participant,session,date,expName,psychopyVersion,frameRate,
,,,,,,,,14.538335389946587,0.0007960000075399876,0.11666379997041076,14.853974199970253,15.137361430027521,15.453993699979037,15.737406629999168,16.054083699942566,16.354184530023485,16.67061249993276,16.67061249993276,0.03326980001293123,0.13335690007079393,31.67082580004353,14.99998379999306,15.100010700058192,31.770669999998063,0.0007420000620186329,0.09998290007933974,32.237343000015244,space,0.9180481000803411,,,,,,,,,,,,,,,,,,,,,,,,,,,,,,,,,,,,,,,,,,,,,,,,,,,5657,Moral,2025-03-04_13h34.50.435,MoralCondition_v2,2022.2.5,29.99922902791284,
0,0,0,0,0,0,0,0,,,,,,,,,,,,,,,,,,,,,,,33.20403499994427,0.0033412999473512173,0.09835220000240952,39.22083520004526,6.0149755999445915,39.47093870001845,39.47093870001845,0.12147020001430064,0.2651386000216007,6.031749999965541,45.52051930001471,45.52051930001471,45.52051930001471,0.08983760001137853,0.2155870000133291,51.22066879994236,51.387337299995124,6.01501760003157,6.115146600059234,57.38736209995113,12.015069600078277,57.52067190001253,57.52067190001253,0.015231600031256676,0.11494080012198538,up,2.8667222999501973,60.42061170004308,5.539995618164539e-05,0.08856109995394945,66.45386100001633,66.45386100001633,0.018442700034938753,0.1219797000521794,1.0,7.021271999925375,,,,,,,,,,,,,,,5657,Moral,2025-03-04_13h34.50.435,MoralCondition_v2,2022.2.5,29.99922902791284,
0,0,0,0,1,0,1,0,,,,,,,,,,,,,,,,,,,,,,,,,,,,,,,,,,,,,,,,,,,,,,,,,,,,,73.50400790001731,73.50400790001731,0.009675799985416234,0.0979881000239402,1.0,3.0556595000671223,,,,,,,,,,,,,,,5657,Moral,2025-03-04_13h34.50.435,MoralCondition_v2,2022.2.5,29.99922902791284,
0,0,0,0,2,0,2,0,,,,,,,,,,,,,,,,,,,,,,,,,,,,,,,,,,,,,,,,,,,,,,,,,,,,,76.62071219994687,76.62071219994687,0.011791100027039647,0.11442220001481473,6.0,3.7367405999684706,,,,,,,,,,,,,,,5657,Moral,2025-03-04_13h34.50.435,MoralCondition_v2,2022.2.5,29.99922902791284,
0,0,0,0,3,0,3,0,,,,,,,,,,,,,,,,,,,,,,,,,,,,,,,,,,,,,,,,,,,,,,,,,,,,,80.40428709995467,80.40428709995467,0.009209699928760529,0.11479449993930757,2.0,3.4398090000031516,,,,,,,,,,,,,,,5657,Moral,2025-03-04_13h34.50.435,MoralCondition_v2,2022.2.5,29.99922902791284,
0,0,0,0,4,0,4,0,,,,,,,,,,,,,,,,,,,,,,,,,,,,,,,,,,,,,,,,,,,,,,,,,,,,,83.87060479994398,83.87060479994398,0.008938799961470068,0.09833419998176396,1.0,2.5570488999364898,,,,,,,,,,,,,,,5657,Moral,2025-03-04_13h34.50.435,MoralCondition_v2,2022.2.5,29.99922902791284,
0,0,0,0,5,0,5,0,,,,,,,,,,,,,,,,,,,,,,,,,,,,,,,,,,,,,,,,,,,,,,,,,,,,,86.47081650001928,86.47081650001928,0.01019930001348257,0.0993597999913618,2.0,4.489959400030784,,,,,,,,,,,,,,,5657,Moral,2025-03-04_13h34.50.435,MoralCondition_v2,2022.2.5,29.99922902791284,
0,0,0,0,6,0,6,0,,,,,,,,,,,,,,,,,,,,,,,,,,,,,,,,,,,,,,,,,,,,,,,,,,,,,91.00420980004128,91.00420980004128,0.011171999969519675,0.09809839993249625,7.0,2.088432600023225,,,,,,,,,,,,,,,5657,Moral,2025-03-04_13h34.50.435,MoralCondition_v2,2022.2.5,29.99922902791284,
0,0,0,0,,,,,,,,,,,,,,,,,,,,,,,,,,,,,,,,,,,,,,,,,,,,,,,,,,,,,,,,,,,,,,,93.13725289993454,93.13725289993454,0.001959799905307591,0.09702959994319826,6.0,8.229804300004616,,,,,,,,,5657,Moral,2025-03-04_13h34.50.435,MoralCondition_v2,2022.2.5,29.99922902791284,
1,0,1,0,0,0,0,0,,,,,,,,,,,,,,,,,,,,,,,101.40431789995637,0.000250800047069788,0.09797860006801784,107.38721640000585,6.014588600024581,107.5872965999879,107.5872965999879,0.07845390005968511,0.18148630007635802,6.014752100105397,113.68731399998069,113.68731399998069,113.68731399998069,0.07448750012554228,0.18154230003710836,119.387434400036,119.58735469996464,6.0147094001295045,6.114399200072512,125.58732980000786,12.014684300054796,125.72064590000082,125.72064590000082,0.014823900070041418,0.11466900014784187,up,3.707227599923499,129.48740899993572,6.65000407025218e-05,0.0979334000730887,135.52087490004487,135.52087490004487,0.026009900029748678,0.13097410008776933,5.0,3.9060767999617383,,,,,,,6.098085600067861,113.58733989996836,113.58733989996836,125.6873131999746,125.6873131999746,,,,5657,Moral,2025-03-04_13h34.50.435,MoralCondition_v2,2022.2.5,29.99922902791284,
1,0,1,0,1,0,1,0,,,,,,,,,,,,,,,,,,,,,,,,,,,,,,,,,,,,,,,,,,,,,,,,,,,,,139.4708978999406,139.4708978999406,0.009117999929003417,0.11433100001886487,6.0,4.972768799983896,,,,,,,,,,,,,,,5657,Moral,2025-03-04_13h34.50.435,MoralCondition_v2,2022.2.5,29.99922902791284,
1,0,1,0,2,0,2,0,,,,,,,,,,,,,,,,,,,,,,,,,,,,,,,,,,,,,,,,,,,,,,,,,,,,,144.47069859993644,144.47069859993644,0.0082601000322029,0.09762060001958162,6.0,3.0237070999573916,,,,,,,,,,,,,,,5657,Moral,2025-03-04_13h34.50.435,MoralCondition_v2,2022.2.5,29.99922902791284,
1,0,1,0,3,0,3,0,,,,,,,,,,,,,,,,,,,,,,,,,,,,,,,,,,,,,,,,,,,,,,,,,,,,,147.53747939993627,147.53747939993627,0.0068376000272110105,0.09822689997963607,7.0,6.159174700034782,,,,,,,,,,,,,,,5657,Moral,2025-03-04_13h34.50.435,MoralCondition_v2,2022.2.5,29.99922902791284,
1,0,1,0,4,0,4,0,,,,,,,,,,,,,,,,,,,,,,,,,,,,,,,,,,,,,,,,,,,,,,,,,,,,,153.73729720001575,153.73729720001575,0.007218200014904141,0.09883550007361919,5.0,3.7591691000852734,,,,,,,,,,,,,,,5657,Moral,2025-03-04_13h34.50.435,MoralCondition_v2,2022.2.5,29.99922902791284,
1,0,1,0,5,0,5,0,,,,,,,,,,,,,,,,,,,,,,,,,,,,,,,,,,,,,,,,,,,,,,,,,,,,,157.5374518999597,157.5374518999597,0.008610399905592203,0.09781869989819825,3.0,2.4900307999923825,,,,,,,,,,,,,,,5657,Moral,2025-03-04_13h34.50.435,MoralCondition_v2,2022.2.5,29.99922902791284,
1,0,1,0,6,0,6,0,,,,,,,,,,,,,,,,,,,,,,,,,,,,,,,,,,,,,,,,,,,,,,,,,,,,,160.07061549997889,160.07061549997889,0.0071801000740379095,0.09813990001566708,4.0,5.158513799891807,,,,,,,,,,,,,,,5657,Moral,2025-03-04_13h34.50.435,MoralCondition_v2,2022.2.5,29.99922902791284,
1,0,1,0,,,,,,,,,,,,,,,,,,,,,,,,,,,,,,,,,,,,,,,,,,,,,,,,,,,,,,,,,,,,,,,165.27053959993646,165.27053959993646,0.0019419000018388033,0.09762439993210137,2.0,46.529956899932586,,,,,,,,,5657,Moral,2025-03-04_13h34.50.435,MoralCondition_v2,2022.2.5,29.99922902791284,
2,0,2,0,0,0,0,0,,,,,,,,,,,,,,,,,,,,,,,211.83761539997067,0.0003483999753370881,0.09760039998218417,217.8373120999895,6.030855699907988,218.10362650000025,218.10362650000025,0.15575319994241,0.2640408999286592,6.0307711999630556,224.13738670002203,224.13738670002203,224.13738670002203,0.08758169994689524,0.19740820000879467,229.85368910001125,230.0203435999574,6.013781600049697,6.128488600021228,236.03729400003795,12.030824800021946,236.1706188999815,236.1706188999815,0.030953200068324804,0.1308077999856323,up,0.6013369999127463,236.8373478000285,5.2200048230588436e-05,0.09800700005143881,242.85407969995867,242.85407969995867,0.00957420002669096,0.11439630005043,2.0,4.072479999973439,,,,,,,,,,236.13725969998632,236.13725969998632,242.85407969995867,,,5657,Moral,2025-03-04_13h34.50.435,MoralCondition_v2,2022.2.5,29.99922902791284,
2,0,2,0,1,0,1,0,,,,,,,,,,,,,,,,,,,,,,,,,,,,,,,,,,,,,,,,,,,,,,,,,,,,,246.95396810001694,246.95396810001694,0.006548500037752092,0.09927470004186034,7.0,2.3935247999615967,,,,,,,,,,,,,,,5657,Moral,2025-03-04_13h34.50.435,MoralCondition_v2,2022.2.5,29.99922902791284,
2,0,2,0,2,0,2,0,,,,,,,,,,,,,,,,,,,,,,,,,,,,,,,,,,,,,,,,,,,,,,,,,,,,,249.40429830003995,249.40429830003995,0.008061300031840801,0.11431840003933758,1.0,1.9404897999484092,,,,,,,,,,,,,,,5657,Moral,2025-03-04_13h34.50.435,MoralCondition_v2,2022.2.5,29.99922902791284,
2,0,2,0,3,0,3,0,,,,,,,,,,,,,,,,,,,,,,,,,,,,,,,,,,,,,,,,,,,,,,,,,,,,,251.3706261999905,251.3706261999905,0.007118499954231083,0.09805629996117204,6.0,2.1253724000416696,,,,,,,,,,,,,,,5657,Moral,2025-03-04_13h34.50.435,MoralCondition_v2,2022.2.5,29.99922902791284,
2,0,2,0,4,0,4,0,,,,,,,,,,,,,,,,,,,,,,,,,,,,,,,,,,,,,,,,,,,,,,,,,,,,,253.537356399931,253.537356399931,0.006654500029981136,0.09922009997535497,3.0,1.8602181000169367,,,,,,,,,,,,,,,5657,Moral,2025-03-04_13h34.50.435,MoralCondition_v2,2022.2.5,29.99922902791284,
2,0,2,0,5,0,5,0,,,,,,,,,,,,,,,,,,,,,,,,,,,,,,,,,,,,,,,,,,,,,,,,,,,,,255.43712749995757,255.43712749995757,0.007494700024835765,0.09808419994078577,2.0,1.7913444999139756,,,,,,,,,,,,,,,5657,Moral,2025-03-04_13h34.50.435,MoralCondition_v2,2022.2.5,29.99922902791284,
2,0,2,0,6,0,6,0,,,,,,,,,,,,,,,,,,,,,,,,,,,,,,,,,,,,,,,,,,,,,,,,,,,,,257.27056289999746,257.27056289999746,0.006787699996493757,0.09914039995055646,3.0,3.9931633999804035,,,,,,,,,,,,,,,5657,Moral,2025-03-04_13h34.50.435,MoralCondition_v2,2022.2.5,29.99922902791284,
2,0,2,0,,,,,,,,,,,,,,,,,,,,,,,,,,,,,,,,,,,,,,,,,,,,,,,,,,,,,,,,,,,,,,,261.3039140999317,261.3039140999317,0.0006934000412002206,0.09939119999762625,6.0,3.2334487999323756,,,,,,,,,5657,Moral,2025-03-04_13h34.50.435,MoralCondition_v2,2022.2.5,29.99922902791284,
3,0,3,0,0,0,0,0,,,,,,,,,,,,,,,,,,,,,,,264.57070099993143,0.0001601999392732978,0.09921679995022714,270.55374769994523,6.015610500006005,270.73729249997996,270.73729249997996,0.058519699960015714,0.16587199992500246,5.9991193999303505,276.8206004999811,276.8206004999811,276.8206004999811,0.049847900052554905,0.14929620001930743,282.52061110001523,282.7539582999889,6.015849799965508,6.115872800000943,288.75392369995825,12.015884399996139,288.88727099995594,288.88727099995594,0.015851299976930022,0.11579120007809252,up,1.1799283999716863,290.1205747999484,2.8099981136620045e-05,0.09857309993822128,296.1538687000284,296.1538687000284,0.025834099971689284,0.1319569000042975,1.0,2.4405365000711754,,,,,,,6.099042199901305,276.72050249995664,276.72050249995664,288.82048080000095,288.82048080000095,,6.099228600040078,,5657,Moral,2025-03-04_13h34.50.435,MoralCondition_v2,2022.2.5,29.99922902791284,
3,0,3,0,1,0,1,0,,,,,,,,,,,,,,,,,,,,,,,,,,,,,,,,,,,,,,,,,,,,,,,,,,,,,298.62048789998516,298.62048789998516,0.00718000007327646,0.09808130003511906,2.0,2.3250075000105426,,,,,,,,,,,,,,,5657,Moral,2025-03-04_13h34.50.435,MoralCondition_v2,2022.2.5,29.99922902791284,
3,0,3,0,2,0,2,0,,,,,,,,,,,,,,,,,,,,,,,,,,,,,,,,,,,,,,,,,,,,,,,,,,,,,300.98729049996473,300.98729049996473,0.006796399946324527,0.09914449998177588,2.0,3.293400499969721,,,,,,,,,,,,,,,5657,Moral,2025-03-04_13h34.50.435,MoralCondition_v2,2022.2.5,29.99922902791284,
3,0,3,0,3,0,3,0,,,,,,,,,,,,,,,,,,,,,,,,,,,,,,,,,,,,,,,,,,,,,,,,,,,,,304.3205611000303,304.3205611000303,0.006819999893195927,0.09922129998449236,6.0,1.726981999934651,,,,,,,,,,,,,,,5657,Moral,2025-03-04_13h34.50.435,MoralCondition_v2,2022.2.5,29.99922902791284,
3,0,3,0,4,0,4,0,,,,,,,,,,,,,,,,,,,,,,,,,,,,,,,,,,,,,,,,,,,,,,,,,,,,,306.10405550000723,306.10405550000723,0.008399499929510057,0.11461859999690205,7.0,5.173832400003448,,,,,,,,,,,,,,,5657,Moral,2025-03-04_13h34.50.435,MoralCondition_v2,2022.2.5,29.99922902791284,
3,0,3,0,5,0,5,0,,,,,,,,,,,,,,,,,,,,,,,,,,,,,,,,,,,,,,,,,,,,,,,,,,,,,311.30405369994696,311.30405369994696,0.006780899944715202,0.09906329994555563,2.0,3.260231100022793,,,,,,,,,,,,,,,5657,Moral,2025-03-04_13h34.50.435,MoralCondition_v2,2022.2.5,29.99922902791284,
3,0,3,0,6,0,6,0,,,,,,,,,,,,,,,,,,,,,,,,,,,,,,,,,,,,,,,,,,,,,,,,,,,,,314.6038319999352,314.6038319999352,0.0068518000189214945,0.09941339993383735,1.0,2.2602737999986857,,,,,,,,,,,,,,,5657,Moral,2025-03-04_13h34.50.435,MoralCondition_v2,2022.2.5,29.99922902791284,
3,0,3,0,,,,,,,,,,,,,,,,,,,,,,,,,,,,,,,,,,,,,,,,,,,,,,,,,,,,,,,,,,,,,,,316.90405689994805,316.90405689994805,0.0008104000007733703,0.09856239997316152,6.0,9.898808900034055,,,,,,,,,5657,Moral,2025-03-04_13h34.50.435,MoralCondition_v2,2022.2.5,29.99922902791284,
4,0,4,0,0,0,0,0,,,,,,,,,,,,,,,,,,,,,,,326.8371591999894,0.00033300009090453386,0.09750940010417253,332.85389709996525,6.014086700044572,333.0204043999547,333.0204043999547,0.07092870003543794,0.18080420012120157,6.014081500121392,339.12054979999084,339.12054979999084,339.12054979999084,0.07137160014826804,0.1807059000711888,344.8206054000184,345.02066899999045,6.014266100130044,6.113853000104427,351.0205391999334,12.01411520014517,351.15364369994495,351.15364369994495,0.014307800098322332,0.13072670018300414,up,1.02546480007004,352.23741049994715,5.009991582483053e-05,0.09810039994772524,358.25399570004083,358.25399570004083,0.02331610000692308,0.11453469994012266,2.0,6.459051799960434,,,,,,,,339.0205629999982,339.0205629999982,351.1205396000296,351.1205396000296,,,,5657,Moral,2025-03-04_13h34.50.435,MoralCondition_v2,2022.2.5,29.99922902791284,
4,0,4,0,1,0,1,0,,,,,,,,,,,,,,,,,,,,,,,,,,,,,,,,,,,,,,,,,,,,,,,,,,,,,364.75371850002557,364.75371850002557,0.0071826999774202704,0.09924879996106029,2.0,4.492916399962269,,,,,,,,,,,,,,,5657,Moral,2025-03-04_13h34.50.435,MoralCondition_v2,2022.2.5,29.99922902791284,
4,0,4,0,2,0,2,0,,,,,,,,,,,,,,,,,,,,,,,,,,,,,,,,,,,,,,,,,,,,,,,,,,,,,369.28733490000013,369.28733490000013,0.007575000054202974,0.09755339997354895,1.0,1.1246862999396399,,,,,,,,,,,,,,,5657,Moral,2025-03-04_13h34.50.435,MoralCondition_v2,2022.2.5,29.99922902791284,
4,0,4,0,3,0,3,0,,,,,,,,,,,,,,,,,,,,,,,,,,,,,,,,,,,,,,,,,,,,,,,,,,,,,370.453833400039,370.453833400039,0.008752299938350916,0.09877079993020743,2.0,3.3245482000056654,,,,,,,,,,,,,,,5657,Moral,2025-03-04_13h34.50.435,MoralCondition_v2,2022.2.5,29.99922902791284,
4,0,4,0,4,0,4,0,,,,,,,,,,,,,,,,,,,,,,,,,,,,,,,,,,,,,,,,,,,,,,,,,,,,,373.8374028999824,373.8374028999824,0.008036800078116357,0.1143103000940755,6.0,1.2740748999640346,,,,,,,,,,,,,,,5657,Moral,2025-03-04_13h34.50.435,MoralCondition_v2,2022.2.5,29.99922902791284,
4,0,4,0,5,0,5,0,,,,,,,,,,,,,,,,,,,,,,,,,,,,,,,,,,,,,,,,,,,,,,,,,,,,,375.1370359000284,375.1370359000284,0.0077241999097168446,0.09779989998787642,2.0,1.6909918000455946,,,,,,,,,,,,,,,5657,Moral,2025-03-04_13h34.50.435,MoralCondition_v2,2022.2.5,29.99922902791284,
4,0,4,0,6,0,6,0,,,,,,,,,,,,,,,,,,,,,,,,,,,,,,,,,,,,,,,,,,,,,,,,,,,,,376.87057929998264,376.87057929998264,0.007106099976226687,0.09927759994752705,7.0,1.2931695999577641,,,,,,,,,,,,,,,5657,Moral,2025-03-04_13h34.50.435,MoralCondition_v2,2022.2.5,29.99922902791284,
4,0,4,0,,,,,,,,,,,,,,,,,,,,,,,,,,,,,,,,,,,,,,,,,,,,,,,,,,,,,,,,,,,,,,,378.2037748999428,378.2037748999428,0.0010717998957261443,0.09813299996312708,6.0,6.498291600029916,,,,,,,,,5657,Moral,2025-03-04_13h34.50.435,MoralCondition_v2,2022.2.5,29.99922902791284,
5,0,5,0,0,0,0,0,,,,,,,,,,,,,,,,,,,,,,,384.73747860000003,0.00025049992837011814,0.09805129992309958,390.7371058999561,6.0313500999473035,390.9371853999328,390.9371853999328,0.08584780001547188,0.19829819991718978,6.031330299912952,397.0372044999385,397.0372044999385,397.0372044999385,0.08501819998491555,0.19809890002943575,402.73715229996014,402.9371754999738,6.031498000025749,6.1313719999743626,408.9371489000041,12.031398499966599,409.0704630999826,409.0704630999826,0.03166139998938888,0.1314647999824956,down,28.117412699968554,437.2370867000427,5.070003680884838e-05,0.09813550009857863,443.25411620002706,443.25411620002706,0.010493500041775405,0.11474430002272129,6.0,4.805208400008269,,,,,,,,396.93715080001857,396.93715080001857,409.0371331999777,409.0371331999777,443.25411620002706,,,5657,Moral,2025-03-04_13h34.50.435,MoralCondition_v2,2022.2.5,29.99922902791284,
5,0,5,0,1,0,1,0,,,,,,,,,,,,,,,,,,,,,,,,,,,,,,,,,,,,,,,,,,,,,,,,,,,,,448.0872374000028,448.0872374000028,0.006546400021761656,0.09886649996042252,7.0,1.5601279999827966,,,,,,,,,,,,,,,5657,Moral,2025-03-04_13h34.50.435,MoralCondition_v2,2022.2.5,29.99922902791284,
5,0,5,0,2,0,2,0,,,,,,,,,,,,,,,,,,,,,,,,,,,,,,,,,,,,,,,,,,,,,,,,,,,,,449.6871178000001,449.6871178000001,0.007325700018554926,0.09792900003958493,2.0,2.4915481000207365,,,,,,,,,,,,,,,5657,Moral,2025-03-04_13h34.50.435,MoralCondition_v2,2022.2.5,29.99922902791284,
5,0,5,0,3,0,3,0,,,,,,,,,,,,,,,,,,,,,,,,,,,,,,,,,,,,,,,,,,,,,,,,,,,,,452.22042929998133,452.22042929998133,0.005752000026404858,0.09906070004217327,1.0,1.0277997000375763,,,,,,,,,,,,,,,5657,Moral,2025-03-04_13h34.50.435,MoralCondition_v2,2022.2.5,29.99922902791284,
5,0,5,0,4,0,4,0,,,,,,,,,,,,,,,,,,,,,,,,,,,,,,,,,,,,,,,,,,,,,,,,,,,,,453.3038624000037,453.3038624000037,0.008294199942611158,0.11451800004579127,5.0,2.1739471000619233,,,,,,,,,,,,,,,5657,Moral,2025-03-04_13h34.50.435,MoralCondition_v2,2022.2.5,29.99922902791284,
5,0,5,0,5,0,5,0,,,,,,,,,,,,,,,,,,,,,,,,,,,,,,,,,,,,,,,,,,,,,,,,,,,,,455.52052429993637,455.52052429993637,0.00973719998728484,0.11628079996444285,5.0,2.674242400098592,,,,,,,,,,,,,,,5657,Moral,2025-03-04_13h34.50.435,MoralCondition_v2,2022.2.5,29.99922902791284,
5,0,5,0,6,0,6,0,,,,,,,,,,,,,,,,,,,,,,,,,,,,,,,,,,,,,,,,,,,,,,,,,,,,,458.2204296999844,458.2204296999844,0.006696099997498095,0.0991908999858424,3.0,3.3936022999696434,,,,,,,,,,,,,,,5657,Moral,2025-03-04_13h34.50.435,MoralCondition_v2,2022.2.5,29.99922902791284,
5,0,5,0,,,,,,,,,,,,,,,,,,,,,,,,,,,,,,,,,,,,,,,,,,,,,,,,,,,,,,,,,,,,,,,461.6539147000294,461.6539147000294,0.0009376000380143523,0.099281300092116,2.0,5.399361899937503,,,,,,,,,5657,Moral,2025-03-04_13h34.50.435,MoralCondition_v2,2022.2.5,29.99922902791284,
6,0,6,0,0,0,0,0,,,,,,,,,,,,,,,,,,,,,,,467.08739729993977,0.00030429998878389597,0.09773289994336665,473.1036684999708,6.014353699982166,473.27063929999713,473.27063929999713,0.07045190001372248,0.18126600002869964,6.014371800003573,479.37044760002755,479.37044760002755,479.37044760002755,0.07121369999367744,0.18103269999846816,485.07033769995905,485.27031139994506,6.014455700060353,6.114336500060745,491.27030470001046,12.014394600060768,491.4035910000093,491.4035910000093,0.014511000015772879,0.11432030005380511,down,15.304067900055088,506.75361789995804,4.6600005589425564e-05,0.09799449995625764,512.7705033000093,512.7705033000093,0.00939490005839616,0.11472720000892878,6.0,2.3729213000042364,,,,,,,,479.27035150001757,479.27035150001757,491.37028539995663,491.37028539995663,512.7705033000093,,,5657,Moral,2025-03-04_13h34.50.435,MoralCondition_v2,2022.2.5,29.99922902791284,
6,0,6,0,1,0,1,0,,,,,,,,,,,,,,,,,,,,,,,,,,,,,,,,,,,,,,,,,,,,,,,,,,,,,515.1702606999315,515.1702606999315,0.006435499992221594,0.09889000002294779,2.0,1.6601732999552041,,,,,,,,,,,,,,,5657,Moral,2025-03-04_13h34.50.435,MoralCondition_v2,2022.2.5,29.99922902791284,
6,0,6,0,2,0,2,0,,,,,,,,,,,,,,,,,,,,,,,,,,,,,,,,,,,,,,,,,,,,,,,,,,,,,516.8703774999594,516.8703774999594,0.00767169997561723,0.09811040002387017,5.0,1.5247695000143722,,,,,,,,,,,,,,,5657,Moral,2025-03-04_13h34.50.435,MoralCondition_v2,2022.2.5,29.99922902791284,
6,0,6,0,3,0,3,0,,,,,,,,,,,,,,,,,,,,,,,,,,,,,,,,,,,,,,,,,,,,,,,,,,,,,518.4375073999399,518.4375073999399,0.007407600060105324,0.09842569997999817,3.0,2.425398899940774,,,,,,,,,,,,,,,5657,Moral,2025-03-04_13h34.50.435,MoralCondition_v2,2022.2.5,29.99922902791284,
6,0,6,0,4,0,4,0,,,,,,,,,,,,,,,,,,,,,,,,,,,,,,,,,,,,,,,,,,,,,,,,,,,,,520.9034535000101,520.9034535000101,0.006940099992789328,0.09887139999773353,4.0,2.3599030000623316,,,,,,,,,,,,,,,5657,Moral,2025-03-04_13h34.50.435,MoralCondition_v2,2022.2.5,29.99922902791284,
6,0,6,0,5,0,5,0,,,,,,,,,,,,,,,,,,,,,,,,,,,,,,,,,,,,,,,,,,,,,,,,,,,,,523.3206754999701,523.3206754999701,0.010679599945433438,0.1150160999968648,6.0,3.6051690001040697,,,,,,,,,,,,,,,5657,Moral,2025-03-04_13h34.50.435,MoralCondition_v2,2022.2.5,29.99922902791284,
6,0,6,0,6,0,6,0,,,,,,,,,,,,,,,,,,,,,,,,,,,,,,,,,,,,,,,,,,,,,,,,,,,,,526.9535245000152,526.9535245000152,0.00737979996483773,0.09812659991439432,3.0,2.792242299998179,,,,,,,,,,,,,,,5657,Moral,2025-03-04_13h34.50.435,MoralCondition_v2,2022.2.5,29.99922902791284,
6,0,6,0,,,,,,,,,,,,,,,,,,,,,,,,,,,,,,,,,,,,,,,,,,,,,,,,,,,,,,,,,,,,,,,529.7868966000387,529.7868966000387,0.0020056000212207437,0.0974622000940144,2.0,5.096752200042829,,,,,,,,,5657,Moral,2025-03-04_13h34.50.435,MoralCondition_v2,2022.2.5,29.99922902791284,
7,0,7,0,0,0,0,0,,,,,,,,,,,,,,,,,,,,,,,534.9204065999947,0.0002975999377667904,0.09802299994044006,540.9368257999886,6.014700099942274,541.1037530000322,541.1037530000322,0.06755909998901188,0.18128469993826002,6.014560099923983,547.1868179000448,547.1868179000448,547.1868179000448,0.06978480005636811,0.16482389997690916,552.8868225000333,553.1202301000012,6.031313400017098,6.131296199979261,559.1202339000301,12.031295799999498,559.2535238999408,559.2535238999408,0.031450800015591085,0.13120950001757592,up,20.397623399971053,579.703447900014,5.6299963034689426e-05,0.09757869993336499,585.7033268000232,585.7033268000232,0.008815099950879812,0.09745589992962778,6.0,6.723065000027418,,,,,,,,547.1035079000285,547.1035079000285,559.1867955999915,559.1867955999915,585.7033268000232,,,5657,Moral,2025-03-04_13h34.50.435,MoralCondition_v2,2022.2.5,29.99922902791284,
7,0,7,0,1,0,1,0,,,,,,,,,,,,,,,,,,,,,,,,,,,,,,,,,,,,,,,,,,,,,,,,,,,,,592.4701544999843,592.4701544999843,0.007672699983231723,0.09756649995688349,6.0,1.49149479996413,,,,,,,,,,,,,,,5657,Moral,2025-03-04_13h34.50.435,MoralCondition_v2,2022.2.5,29.99922902791284,
7,0,7,0,2,0,2,0,,,,,,,,,,,,,,,,,,,,,,,,,,,,,,,,,,,,,,,,,,,,,,,,,,,,,594.0034122000216,594.0034122000216,0.007649799925275147,0.09798389999195933,5.0,2.6578499000752345,,,,,,,,,,,,,,,5657,Moral,2025-03-04_13h34.50.435,MoralCondition_v2,2022.2.5,29.99922902791284,
7,0,7,0,3,0,3,0,,,,,,,,,,,,,,,,,,,,,,,,,,,,,,,,,,,,,,,,,,,,,,,,,,,,,596.703283800045,596.703283800045,0.007653999957256019,0.09772009996231645,5.0,1.0577612000051886,,,,,,,,,,,,,,,5657,Moral,2025-03-04_13h34.50.435,MoralCondition_v2,2022.2.5,29.99922902791284,
7,0,7,0,4,0,4,0,,,,,,,,,,,,,,,,,,,,,,,,,,,,,,,,,,,,,,,,,,,,,,,,,,,,,597.8202899999451,597.8202899999451,0.008009099983610213,0.1144322999753058,5.0,3.5074076000601053,,,,,,,,,,,,,,,5657,Moral,2025-03-04_13h34.50.435,MoralCondition_v2,2022.2.5,29.99922902791284,
7,0,7,0,5,0,5,0,,,,,,,,,,,,,,,,,,,,,,,,,,,,,,,,,,,,,,,,,,,,,,,,,,,,,601.3536649999442,601.3536649999442,0.006517000030726194,0.09916270000394434,3.0,4.693705499987118,,,,,,,,,,,,,,,5657,Moral,2025-03-04_13h34.50.435,MoralCondition_v2,2022.2.5,29.99922902791284,
7,0,7,0,6,0,6,0,,,,,,,,,,,,,,,,,,,,,,,,,,,,,,,,,,,,,,,,,,,,,,,,,,,,,606.103609999991,606.103609999991,0.008580900030210614,0.11395440006162971,2.0,2.573045700090006,,,,,,,,,,,,,,,5657,Moral,2025-03-04_13h34.50.435,MoralCondition_v2,2022.2.5,29.99922902791284,
7,0,7,0,,,,,,,,,,,,,,,,,,,,,,,,,,,,,,,,,,,,,,,,,,,,,,,,,,,,,,,,,,,,,,,608.7036901999963,608.7036901999963,0.0006934999255463481,0.0995035000378266,3.0,7.700306799961254,,,,,,,,,5657,Moral,2025-03-04_13h34.50.435,MoralCondition_v2,2022.2.5,29.99922902791284,
8,0,8,0,0,0,0,0,,,,,,,,,,,,,,,,,,,,,,,616.4370763000334,0.0002905000001192093,0.09860900009516627,622.4366363999434,6.031303600058891,622.6367727000033,622.6367727000033,0.08618030010256916,0.19792870013043284,6.031230200082064,628.7199180999305,628.7199180999305,628.7199180999305,0.0815266000572592,0.18137910007499158,634.4200777999358,634.6199418000178,6.01462310005445,6.1145415001083165,640.6199194999645,12.014575100154616,640.7535278999712,640.7535278999712,0.014987600152380764,0.11449010006617755,up,9.777413300005719,650.5865500000073,4.67000063508749e-05,0.09786629991140217,656.5864120000042,656.5864120000042,0.008195100002922118,0.09799409995321184,1.0,4.390996799920686,,,,,,,,628.636585899978,628.636585899978,640.72018449998,640.72018449998,656.5864120000042,,,5657,Moral,2025-03-04_13h34.50.435,MoralCondition_v2,2022.2.5,29.99922902791284,
8,0,8,0,1,0,1,0,,,,,,,,,,,,,,,,,,,,,,,,,,,,,,,,,,,,,,,,,,,,,,,,,,,,,661.0199443999445,661.0199443999445,0.006631100084632635,0.0991750000976026,6.0,2.1602411000058055,,,,,,,,,,,,,,,5657,Moral,2025-03-04_13h34.50.435,MoralCondition_v2,2022.2.5,29.99922902791284,
8,0,8,0,2,0,2,0,,,,,,,,,,,,,,,,,,,,,,,,,,,,,,,,,,,,,,,,,,,,,,,,,,,,,663.2197359999409,663.2197359999409,0.008402199950069189,0.09900739998556674,5.0,1.6251381000038236,,,,,,,,,,,,,,,5657,Moral,2025-03-04_13h34.50.435,MoralCondition_v2,2022.2.5,29.99922902791284,
8,0,8,0,3,0,3,0,,,,,,,,,,,,,,,,,,,,,,,,,,,,,,,,,,,,,,,,,,,,,,,,,,,,,664.8864360000007,664.8864360000007,0.00784080009907484,0.09778619999997318,1.0,2.5577941000228748,,,,,,,,,,,,,,,5657,Moral,2025-03-04_13h34.50.435,MoralCondition_v2,2022.2.5,29.99922902791284,
8,0,8,0,4,0,4,0,,,,,,,,,,,,,,,,,,,,,,,,,,,,,,,,,,,,,,,,,,,,,,,,,,,,,667.4863993999315,667.4863993999315,0.007805299945175648,0.09771939995698631,5.0,3.5577164998976514,,,,,,,,,,,,,,,5657,Moral,2025-03-04_13h34.50.435,MoralCondition_v2,2022.2.5,29.99922902791284,
8,0,8,0,5,0,5,0,,,,,,,,,,,,,,,,,,,,,,,,,,,,,,,,,,,,,,,,,,,,,,,,,,,,,671.0865250999341,671.0865250999341,0.0074078000616282225,0.09782799996901304,3.0,1.6581234999466687,,,,,,,,,,,,,,,5657,Moral,2025-03-04_13h34.50.435,MoralCondition_v2,2022.2.5,29.99922902791284,
8,0,8,0,6,0,6,0,,,,,,,,,,,,,,,,,,,,,,,,,,,,,,,,,,,,,,,,,,,,,,,,,,,,,672.7865419000154,672.7865419000154,0.006652700016275048,0.09914559999015182,4.0,2.426926300046034,,,,,,,,,,,,,,,5657,Moral,2025-03-04_13h34.50.435,MoralCondition_v2,2022.2.5,29.99922902791284,
8,0,8,0,,,,,,,,,,,,,,,,,,,,,,,,,,,,,,,,,,,,,,,,,,,,,,,,,,,,,,,,,,,,,,,675.253232399933,675.253232399933,0.001178200007416308,0.09943940001539886,2.0,4.09915619995445,,,,,,,,,5657,Moral,2025-03-04_13h34.50.435,MoralCondition_v2,2022.2.5,29.99922902791284,
9,0,9,0,0,0,0,0,,,,,,,,,,,,,,,,,,,,,,,679.3864599999506,0.0002723999787122011,0.0979496999643743,685.3864578999346,6.031306399963796,685.6197738000192,685.6197738000192,0.12418899999465793,0.231216499931179,6.031234699999914,691.6865476999665,691.6865476999665,691.6865476999665,0.09166469995398074,0.19808810006361455,697.3863589999964,697.58627910004,6.031082900008187,6.131201999960467,703.5863739999477,12.031220400007442,703.7199258999899,703.7199258999899,0.031601800001226366,0.1311635000165552,down,1.0354090000037104,704.819904700038,5.110003985464573e-05,0.09776170004624873,710.8195762999821,710.8195762999821,0.00559449999127537,0.09781230008229613,5.0,2.159835800062865,,,,,,,,,,703.686602300033,703.686602300033,710.8195762999821,,,5657,Moral,2025-03-04_13h34.50.435,MoralCondition_v2,2022.2.5,29.99922902791284,
9,0,9,0,1,0,1,0,,,,,,,,,,,,,,,,,,,,,,,,,,,,,,,,,,,,,,,,,,,,,,,,,,,,,713.0197953999741,713.0197953999741,0.006760899908840656,0.09905039996374398,5.0,4.193296700017527,,,,,,,,,,,,,,,5657,Moral,2025-03-04_13h34.50.435,MoralCondition_v2,2022.2.5,29.99922902791284,
9,0,9,0,2,0,2,0,,,,,,,,,,,,,,,,,,,,,,,,,,,,,,,,,,,,,,,,,,,,,,,,,,,,,717.2529065000126,717.2529065000126,0.007087599951773882,0.09936529991682619,6.0,3.560021199984476,,,,,,,,,,,,,,,5657,Moral,2025-03-04_13h34.50.435,MoralCondition_v2,2022.2.5,29.99922902791284,
9,0,9,0,3,0,3,0,,,,,,,,,,,,,,,,,,,,,,,,,,,,,,,,,,,,,,,,,,,,,,,,,,,,,720.8700505000306,720.8700505000306,0.009236200014129281,0.11582679999992251,5.0,5.441143000032753,,,,,,,,,,,,,,,5657,Moral,2025-03-04_13h34.50.435,MoralCondition_v2,2022.2.5,29.99922902791284,
9,0,9,0,4,0,4,0,,,,,,,,,,,,,,,,,,,,,,,,,,,,,,,,,,,,,,,,,,,,,,,,,,,,,726.336326199933,726.336326199933,0.007479799911379814,0.09801879990845919,6.0,6.191245900001377,,,,,,,,,,,,,,,5657,Moral,2025-03-04_13h34.50.435,MoralCondition_v2,2022.2.5,29.99922902791284,
9,0,9,0,5,0,5,0,,,,,,,,,,,,,,,,,,,,,,,,,,,,,,,,,,,,,,,,,,,,,,,,,,,,,732.5696754000382,732.5696754000382,0.0075752000557258725,0.0976575999520719,7.0,8.024445799994282,,,,,,,,,,,,,,,5657,Moral,2025-03-04_13h34.50.435,MoralCondition_v2,2022.2.5,29.99922902791284,
9,0,9,0,6,0,6,0,,,,,,,,,,,,,,,,,,,,,,,,,,,,,,,,,,,,,,,,,,,,,,,,,,,,,740.6362223000033,740.6362223000033,0.007127400022000074,0.09802809997927397,2.0,3.025269199977629,,,,,,,,,,,,,,,5657,Moral,2025-03-04_13h34.50.435,MoralCondition_v2,2022.2.5,29.99922902791284,
9,0,9,0,,,,,,,,,,,,,,,,,,,,,,,,,,,,,,,,,,,,,,,,,,,,,,,,,,,,,,,,,,,,,,,743.7030374000315,743.7030374000315,0.0006776000373065472,0.09929810010362417,2.0,8.43303980003111,,,,,,,,,5657,Moral,2025-03-04_13h34.50.435,MoralCondition_v2,2022.2.5,29.99922902791284,
10,0,10,0,0,0,0,0,,,,,,,,,,,,,,,,,,,,,,,752.1698358999565,0.00014159991405904293,0.09915489994455129,758.186241599964,6.015749799902551,758.352822399931,758.352822399931,0.07668069994542748,0.1826447999337688,6.015828800038435,764.4528078000294,764.4528078000294,764.4528078000294,0.07763730001170188,0.18238460004795343,770.1529144999804,770.3528454999905,6.01574589998927,6.115892900037579,776.3527066999814,12.015525400056504,776.486212000018,776.486212000018,0.015903000021353364,0.1157438000664115,down,0.8774402999551967,777.419538600021,4.5599997974932194e-05,0.09775600000284612,783.4360699999379,783.4360699999379,0.024471199954859912,0.11426219996064901,5.0,5.024483300046995,,,,,,,,764.3531084000133,764.3531084000133,776.452837400022,776.452837400022,,,,5657,Moral,2025-03-04_13h34.50.435,MoralCondition_v2,2022.2.5,29.99922902791284,
10,0,10,0,1,0,1,0,,,,,,,,,,,,,,,,,,,,,,,,,,,,,,,,,,,,,,,,,,,,,,,,,,,,,788.5195449000457,788.5195449000457,0.007769000018015504,0.11422719992697239,5.0,2.241075399913825,,,,,,,,,,,,,,,5657,Moral,2025-03-04_13h34.50.435,MoralCondition_v2,2022.2.5,29.99922902791284,
10,0,10,0,2,0,2,0,,,,,,,,,,,,,,,,,,,,,,,,,,,,,,,,,,,,,,,,,,,,,,,,,,,,,790.8030484999763,790.8030484999763,0.007491500000469387,0.11395290005020797,6.0,3.773990900022909,,,,,,,,,,,,,,,5657,Moral,2025-03-04_13h34.50.435,MoralCondition_v2,2022.2.5,29.99922902791284,
10,0,10,0,3,0,3,0,,,,,,,,,,,,,,,,,,,,,,,,,,,,,,,,,,,,,,,,,,,,,,,,,,,,,794.6028739999747,794.6028739999747,0.006779499934054911,0.09917959989979863,6.0,1.8934794999659061,,,,,,,,,,,,,,,5657,Moral,2025-03-04_13h34.50.435,MoralCondition_v2,2022.2.5,29.99922902791284,
10,0,10,0,4,0,4,0,,,,,,,,,,,,,,,,,,,,,,,,,,,,,,,,,,,,,,,,,,,,,,,,,,,,,796.5362660000101,796.5362660000101,0.006695699994452298,0.09834409994073212,3.0,5.092912599910051,,,,,,,,,,,,,,,5657,Moral,2025-03-04_13h34.50.435,MoralCondition_v2,2022.2.5,29.99922902791284,
10,0,10,0,5,0,5,0,,,,,,,,,,,,,,,,,,,,,,,,,,,,,,,,,,,,,,,,,,,,,,,,,,,,,801.669421199942,801.669421199942,0.006315600010566413,0.09934199997223914,6.0,2.0606431999476627,,,,,,,,,,,,,,,5657,Moral,2025-03-04_13h34.50.435,MoralCondition_v2,2022.2.5,29.99922902791284,
10,0,10,0,6,0,6,0,,,,,,,,,,,,,,,,,,,,,,,,,,,,,,,,,,,,,,,,,,,,,,,,,,,,,803.7696702999528,803.7696702999528,0.006639299914240837,0.0991292999824509,5.0,3.360134300077334,,,,,,,,,,,,,,,5657,Moral,2025-03-04_13h34.50.435,MoralCondition_v2,2022.2.5,29.99922902791284,
10,0,10,0,,,,,,,,,,,,,,,,,,,,,,,,,,,,,,,,,,,,,,,,,,,,,,,,,,,,,,,,,,,,,,,807.16973590001,807.16973590001,0.0013268999755382538,0.09750679996795952,2.0,3.530694199958816,,,,,,,,,5657,Moral,2025-03-04_13h34.50.435,MoralCondition_v2,2022.2.5,29.99922902791284,
11,0,11,0,0,0,0,0,,,,,,,,,,,,,,,,,,,,,,,810.7359797999961,0.0004463999066501856,0.09706840000580996,816.7361006999854,6.030551999923773,816.9359574000118,816.9359574000118,0.08522419992368668,0.19721949996892363,6.0305227999342605,823.0361249999842,823.0361249999842,823.0361249999842,0.08392320002894849,0.19736750004813075,828.7359813000076,828.9360386999324,6.030611600028351,6.130561299971305,834.9360674000345,12.030581400031224,835.0693862999324,835.0693862999324,0.030889800051227212,0.13051190006081015,up,4.070218799985014,839.202745800023,0.00014819996431469917,0.09818739991169423,845.2195471000159,845.2195471000159,0.009245799970813096,0.11475219996646047,3.0,2.6399073000065982,,,,,,,,822.9360682000406,822.9360682000406,835.0361683999654,835.0361683999654,845.2195471000159,,,5657,Moral,2025-03-04_13h34.50.435,MoralCondition_v2,2022.2.5,29.99922902791284,
11,0,11,0,1,0,1,0,,,,,,,,,,,,,,,,,,,,,,,,,,,,,,,,,,,,,,,,,,,,,,,,,,,,,847.886101400014,847.886101400014,0.008225199999287724,0.09752289997413754,5.0,0.9235084999818355,,,,,,,,,,,,,,,5657,Moral,2025-03-04_13h34.50.435,MoralCondition_v2,2022.2.5,29.99922902791284,
11,0,11,0,2,0,2,0,,,,,,,,,,,,,,,,,,,,,,,,,,,,,,,,,,,,,,,,,,,,,,,,,,,,,848.8527811999666,848.8527811999666,0.009195100050419569,0.09765380003955215,5.0,2.989496499998495,,,,,,,,,,,,,,,5657,Moral,2025-03-04_13h34.50.435,MoralCondition_v2,2022.2.5,29.99922902791284,
11,0,11,0,3,0,3,0,,,,,,,,,,,,,,,,,,,,,,,,,,,,,,,,,,,,,,,,,,,,,,,,,,,,,851.8858413000125,851.8858413000125,0.006519399932585657,0.09851109993178397,2.0,2.293171999976039,,,,,,,,,,,,,,,5657,Moral,2025-03-04_13h34.50.435,MoralCondition_v2,2022.2.5,29.99922902791284,
11,0,11,0,4,0,4,0,,,,,,,,,,,,,,,,,,,,,,,,,,,,,,,,,,,,,,,,,,,,,,,,,,,,,854.219459899934,854.219459899934,0.007402800023555756,0.0979277000296861,2.0,1.7917180000804365,,,,,,,,,,,,,,,5657,Moral,2025-03-04_13h34.50.435,MoralCondition_v2,2022.2.5,29.99922902791284,
11,0,11,0,5,0,5,0,,,,,,,,,,,,,,,,,,,,,,,,,,,,,,,,,,,,,,,,,,,,,,,,,,,,,856.0525281999726,856.0525281999726,0.006933500058948994,0.09932260005734861,6.0,1.7933797999285161,,,,,,,,,,,,,,,5657,Moral,2025-03-04_13h34.50.435,MoralCondition_v2,2022.2.5,29.99922902791284,
11,0,11,0,6,0,6,0,,,,,,,,,,,,,,,,,,,,,,,,,,,,,,,,,,,,,,,,,,,,,,,,,,,,,857.8858379999874,857.8858379999874,0.00666730001103133,0.09897739998996258,1.0,2.4598854000214487,,,,,,,,,,,,,,,5657,Moral,2025-03-04_13h34.50.435,MoralCondition_v2,2022.2.5,29.99922902791284,
11,0,11,0,,,,,,,,,,,,,,,,,,,,,,,,,,,,,,,,,,,,,,,,,,,,,,,,,,,,,,,,,,,,,,,860.3861002000049,860.3861002000049,0.00116610003169626,0.09806729992851615,4.0,17.098406700068153,,,,,,,,,5657,Moral,2025-03-04_13h34.50.435,MoralCondition_v2,2022.2.5,29.99922902791284,
12,0,12,0,0,0,0,0,,,,,,,,,,,,,,,,,,,,,,,877.5195776999462,0.0004053000593557954,0.09784800000488758,883.5023847999983,6.014137500082143,883.6858112999471,883.6858112999471,0.04962620011065155,0.16454360005445778,6.030975100118667,889.8193073000293,889.8193073000293,889.8193073000293,0.08337140013463795,0.19778170005884022,895.5192076000385,895.7192121000262,6.030989000108093,6.130803300067782,901.7193272999721,12.03113740007393,901.8525216999697,901.8525216999697,0.031126400106586516,0.1309277000837028,down,2.21450050000567,904.1192100000335,4.819990135729313e-05,0.09776979999151081,910.1190646999748,910.1190646999748,0.009418200002983212,0.09767619997728616,2.0,2.8561065999092534,,,,,,,6.097512700012885,889.6858577999519,889.6858577999519,901.8191789999837,901.8191789999837,910.1190646999748,,,5657,Moral,2025-03-04_13h34.50.435,MoralCondition_v2,2022.2.5,29.99922902791284,
12,0,12,0,1,0,1,0,,,,,,,,,,,,,,,,,,,,,,,,,,,,,,,,,,,,,,,,,,,,,,,,,,,,,913.0360788999824,913.0360788999824,0.009068700019270182,0.11403940001036972,3.0,6.539275099989027,,,,,,,,,,,,,,,5657,Moral,2025-03-04_13h34.50.435,MoralCondition_v2,2022.2.5,29.99922902791284,
12,0,12,0,2,0,2,0,,,,,,,,,,,,,,,,,,,,,,,,,,,,,,,,,,,,,,,,,,,,,,,,,,,,,919.6023287000135,919.6023287000135,0.0065654999343678355,0.09919959993567318,3.0,4.99369899998419,,,,,,,,,,,,,,,5657,Moral,2025-03-04_13h34.50.435,MoralCondition_v2,2022.2.5,29.99922902791284,
12,0,12,0,3,0,3,0,,,,,,,,,,,,,,,,,,,,,,,,,,,,,,,,,,,,,,,,,,,,,,,,,,,,,924.6358309999341,924.6358309999341,0.006479600095190108,0.09925890003796667,7.0,2.6271104000043124,,,,,,,,,,,,,,,5657,Moral,2025-03-04_13h34.50.435,MoralCondition_v2,2022.2.5,29.99922902791284,
12,0,12,0,4,0,4,0,,,,,,,,,,,,,,,,,,,,,,,,,,,,,,,,,,,,,,,,,,,,,,,,,,,,,927.3194119000109,927.3194119000109,0.008564400020986795,0.11453580006491393,7.0,1.5735854000085965,,,,,,,,,,,,,,,5657,Moral,2025-03-04_13h34.50.435,MoralCondition_v2,2022.2.5,29.99922902791284,
12,0,12,0,5,0,5,0,,,,,,,,,,,,,,,,,,,,,,,,,,,,,,,,,,,,,,,,,,,,,,,,,,,,,928.9360539999325,928.9360539999325,0.008329600095748901,0.11432460008654743,5.0,5.30690860003233,,,,,,,,,,,,,,,5657,Moral,2025-03-04_13h34.50.435,MoralCondition_v2,2022.2.5,29.99922902791284,
12,0,12,0,6,0,6,0,,,,,,,,,,,,,,,,,,,,,,,,,,,,,,,,,,,,,,,,,,,,,,,,,,,,,934.2691044999519,934.2691044999519,0.006440300028771162,0.09900970000308007,3.0,4.360171400010586,,,,,,,,,,,,,,,5657,Moral,2025-03-04_13h34.50.435,MoralCondition_v2,2022.2.5,29.99922902791284,
12,0,12,0,,,,,,,,,,,,,,,,,,,,,,,,,,,,,,,,,,,,,,,,,,,,,,,,,,,,,,,,,,,,,,,938.6691772999475,938.6691772999475,0.001096900086849928,0.09862340008839965,1.0,4.565213799942285,,,,,,,,,5657,Moral,2025-03-04_13h34.50.435,MoralCondition_v2,2022.2.5,29.99922902791284,
13,0,13,0,0,0,0,0,,,,,,,,,,,,,,,,,,,,,,,943.2691800999455,0.00034289993345737457,0.09766359999775887,949.2858157999581,6.014298400026746,949.4522490999661,949.4522490999661,0.06856739998329431,0.18099609995260835,6.014298200025223,955.5524948999519,955.5524948999519,955.5524948999519,0.06891979998908937,0.18083209998439997,961.2523293000413,961.4524823999964,6.0144592999713495,6.114195800037123,967.4524535000091,12.014433500007726,967.5856579999672,967.5856579999672,0.014511000015772879,0.11425460001919419,down,1.3776273999828845,969.0023007999407,4.730001091957092e-05,0.097413600073196,975.0192669000244,975.0192669000244,0.008278300054371357,0.11394479998853058,3.0,6.973350399988703,,,,,,,,955.4523385999491,955.4523385999491,967.552312899963,967.552312899963,975.0192669000244,,,5657,Moral,2025-03-04_13h34.50.435,MoralCondition_v2,2022.2.5,29.99922902791284,
13,0,13,0,1,0,1,0,,,,,,,,,,,,,,,,,,,,,,,,,,,,,,,,,,,,,,,,,,,,,,,,,,,,,982.0190720999381,982.0190720999381,0.007441100082360208,0.09807210008148104,2.0,4.4254439999349415,,,,,,,,,,,,,,,5657,Moral,2025-03-04_13h34.50.435,MoralCondition_v2,2022.2.5,29.99922902791284,
13,0,13,0,2,0,2,0,,,,,,,,,,,,,,,,,,,,,,,,,,,,,,,,,,,,,,,,,,,,,,,,,,,,,986.4856126999948,986.4856126999948,0.007488700095564127,0.09792480000760406,7.0,1.9915631999028847,,,,,,,,,,,,,,,5657,Moral,2025-03-04_13h34.50.435,MoralCondition_v2,2022.2.5,29.99922902791284,
13,0,13,0,3,0,3,0,,,,,,,,,,,,,,,,,,,,,,,,,,,,,,,,,,,,,,,,,,,,,,,,,,,,,988.5189341999358,988.5189341999358,0.007863300037570298,0.09727400005795062,1.0,9.45701899996493,,,,,,,,,,,,,,,5657,Moral,2025-03-04_13h34.50.435,MoralCondition_v2,2022.2.5,29.99922902791284,
13,0,13,0,4,0,4,0,,,,,,,,,,,,,,,,,,,,,,,,,,,,,,,,,,,,,,,,,,,,,,,,,,,,,998.0191199999535,998.0191199999535,0.0084627999458462,0.09793799999170005,5.0,5.4570353999733925,,,,,,,,,,,,,,,5657,Moral,2025-03-04_13h34.50.435,MoralCondition_v2,2022.2.5,29.99922902791284,
13,0,13,0,5,0,5,0,,,,,,,,,,,,,,,,,,,,,,,,,,,,,,,,,,,,,,,,,,,,,,,,,,,,,1003.5189712999854,1003.5189712999854,0.007383899996057153,0.09780180000234395,6.0,4.025208999984898,,,,,,,,,,,,,,,5657,Moral,2025-03-04_13h34.50.435,MoralCondition_v2,2022.2.5,29.99922902791284,
13,0,13,0,6,0,6,0,,,,,,,,,,,,,,,,,,,,,,,,,,,,,,,,,,,,,,,,,,,,,,,,,,,,,1007.5852859000443,1007.5852859000443,0.007327200029976666,0.09821660001762211,7.0,3.9585795999737456,,,,,,,,,,,,,,,5657,Moral,2025-03-04_13h34.50.435,MoralCondition_v2,2022.2.5,29.99922902791284,
13,0,13,0,,,,,,,,,,,,,,,,,,,,,,,,,,,,,,,,,,,,,,,,,,,,,,,,,,,,,,,,,,,,,,,1011.5854574999539,1011.5854574999539,0.0015765000134706497,0.09789930004626513,3.0,6.397454299964011,,,,,,,,,5657,Moral,2025-03-04_13h34.50.435,MoralCondition_v2,2022.2.5,29.99922902791284,
14,0,14,0,0,0,0,0,,,,,,,,,,,,,,,,,,,,,,,1018.0190384000307,0.00037949997931718826,0.09775770001579076,1024.0187590999994,6.014171599992551,1024.2022176999599,1024.2022176999599,0.07049579999875277,0.18086150009185076,6.014163900050335,1030.2853692999342,1030.2853692999342,1030.2853692999342,0.0650332000805065,0.1643721000291407,1035.9854156000074,1036.2187084000325,6.030831900076009,6.131010900018737,1042.2187249000417,12.030830300063826,1042.3354289999697,1042.3354289999697,0.014212500071153045,0.11419970006681979,down,1.74766140000429,1044.1352384999627,5.209993105381727e-05,0.11469790001865476,1050.1688375000376,1050.1688375000376,0.026022000005468726,0.13119819993153214,5.0,4.139575400040485,,,,,,,,1030.2021951000206,1030.2021951000206,1042.2685964000411,1042.2685964000411,,,,5657,Moral,2025-03-04_13h34.50.435,MoralCondition_v2,2022.2.5,29.99922902791284,
14,0,14,0,1,0,1,0,,,,,,,,,,,,,,,,,,,,,,,,,,,,,,,,,,,,,,,,,,,,,,,,,,,,,1054.3521926000249,1054.3521926000249,0.007341600023210049,0.11363129992969334,1.0,2.1404676999663934,,,,,,,,,,,,,,,5657,Moral,2025-03-04_13h34.50.435,MoralCondition_v2,2022.2.5,29.99922902791284,
14,0,14,0,2,0,2,0,,,,,,,,,,,,,,,,,,,,,,,,,,,,,,,,,,,,,,,,,,,,,,,,,,,,,1056.5354984999867,1056.5354984999867,0.0076299000065773726,0.11441639997065067,5.0,5.9745777999050915,,,,,,,,,,,,,,,5657,Moral,2025-03-04_13h34.50.435,MoralCondition_v2,2022.2.5,29.99922902791284,
14,0,14,0,3,0,3,0,,,,,,,,,,,,,,,,,,,,,,,,,,,,,,,,,,,,,,,,,,,,,,,,,,,,,1062.5351351000136,1062.5351351000136,0.006587899988517165,0.09927389991935343,3.0,3.8938032999867573,,,,,,,,,,,,,,,5657,Moral,2025-03-04_13h34.50.435,MoralCondition_v2,2022.2.5,29.99922902791284,
14,0,14,0,4,0,4,0,,,,,,,,,,,,,,,,,,,,,,,,,,,,,,,,,,,,,,,,,,,,,,,,,,,,,1066.4684357999358,1066.4684357999358,0.007024399936199188,0.09830879990477115,5.0,3.225450300029479,,,,,,,,,,,,,,,5657,Moral,2025-03-04_13h34.50.435,MoralCondition_v2,2022.2.5,29.99922902791284,
14,0,14,0,5,0,5,0,,,,,,,,,,,,,,,,,,,,,,,,,,,,,,,,,,,,,,,,,,,,,,,,,,,,,1069.7351924999384,1069.7351924999384,0.0064180000917986035,0.09947470005135983,6.0,1.8940425999462605,,,,,,,,,,,,,,,5657,Moral,2025-03-04_13h34.50.435,MoralCondition_v2,2022.2.5,29.99922902791284,
14,0,14,0,6,0,6,0,,,,,,,,,,,,,,,,,,,,,,,,,,,,,,,,,,,,,,,,,,,,,,,,,,,,,1071.668631299981,1071.668631299981,0.006966899964027107,0.09920840000268072,7.0,3.3265749000711367,,,,,,,,,,,,,,,5657,Moral,2025-03-04_13h34.50.435,MoralCondition_v2,2022.2.5,29.99922902791284,
14,0,14,0,,,,,,,,,,,,,,,,,,,,,,,,,,,,,,,,,,,,,,,,,,,,,,,,,,,,,,,,,,,,,,,1075.0354056999786,1075.0354056999786,0.0017837999621406198,0.09760029998142272,4.0,7.697440899908543,,,,,,,,,5657,Moral,2025-03-04_13h34.50.435,MoralCondition_v2,2022.2.5,29.99922902791284,
15,0,15,0,0,0,0,0,,,,,,,,,,,,,,,,,,,,,,,1082.7686337999767,0.0002528000622987747,0.0979649000801146,1088.7685507000424,6.03118540009018,1088.9520440000342,1088.9520440000342,0.07022700004745275,0.1811362000880763,6.014533800072968,1095.051871099975,1095.051871099975,1095.051871099975,0.06932910007890314,0.1813645000802353,1100.7518876999384,1100.9519938000012,6.014564800076187,6.114613800076768,1106.9520609999308,12.014731100061908,1107.08516040002,1107.08516040002,0.014578400063328445,0.11440930014941841,down,1.0625692999456078,1108.1851199000375,4.330009687691927e-05,0.09793660009745508,1114.202359899995,1114.202359899995,0.009753400110639632,0.11446250008884817,6.0,5.005604400066659,,,,,,,,1094.9518224999774,1094.9518224999774,1107.0518002000172,1107.0518002000172,1114.202359899995,,,5657,Moral,2025-03-04_13h34.50.435,MoralCondition_v2,2022.2.5,29.99922902791284,
15,0,15,0,1,0,1,0,,,,,,,,,,,,,,,,,,,,,,,,,,,,,,,,,,,,,,,,,,,,,,,,,,,,,1119.234943700023,1119.234943700023,0.0066998000256717205,0.09899960004258901,3.0,2.8934365999884903,,,,,,,,,,,,,,,5657,Moral,2025-03-04_13h34.50.435,MoralCondition_v2,2022.2.5,29.99922902791284,
15,0,15,0,2,0,2,0,,,,,,,,,,,,,,,,,,,,,,,,,,,,,,,,,,,,,,,,,,,,,,,,,,,,,1122.1683754000114,1122.1683754000114,0.007450300035998225,0.09800120000727475,5.0,3.791453600046225,,,,,,,,,,,,,,,5657,Moral,2025-03-04_13h34.50.435,MoralCondition_v2,2022.2.5,29.99922902791284,
15,0,15,0,3,0,3,0,,,,,,,,,,,,,,,,,,,,,,,,,,,,,,,,,,,,,,,,,,,,,,,,,,,,,1126.0018348000012,1126.0018348000012,0.00906599999871105,0.09942599991336465,5.0,5.791216500103474,,,,,,,,,,,,,,,5657,Moral,2025-03-04_13h34.50.435,MoralCondition_v2,2022.2.5,29.99922902791284,
15,0,15,0,4,0,4,0,,,,,,,,,,,,,,,,,,,,,,,,,,,,,,,,,,,,,,,,,,,,,,,,,,,,,1131.835190200014,1131.835190200014,0.006641700048930943,0.09914489998482168,3.0,2.560506399953738,,,,,,,,,,,,,,,5657,Moral,2025-03-04_13h34.50.435,MoralCondition_v2,2022.2.5,29.99922902791284,
15,0,15,0,5,0,5,0,,,,,,,,,,,,,,,,,,,,,,,,,,,,,,,,,,,,,,,,,,,,,,,,,,,,,1134.435066999984,1134.435066999984,0.007009000051766634,0.09779240004718304,6.0,2.658211199915968,,,,,,,,,,,,,,,5657,Moral,2025-03-04_13h34.50.435,MoralCondition_v2,2022.2.5,29.99922902791284,
15,0,15,0,6,0,6,0,,,,,,,,,,,,,,,,,,,,,,,,,,,,,,,,,,,,,,,,,,,,,,,,,,,,,1137.1517402000027,1137.1517402000027,0.008921100059524179,0.11405390000436455,5.0,6.539470500079915,,,,,,,,,,,,,,,5657,Moral,2025-03-04_13h34.50.435,MoralCondition_v2,2022.2.5,29.99922902791284,
15,0,15,0,,,,,,,,,,,,,,,,,,,,,,,,,,,,,,,,,,,,,,,,,,,,,,,,,,,,,,,,,,,,,,,1143.7183460999513,1143.7183460999513,0.001388499978929758,0.09779319993685931,1.0,5.297518500010483,,,,,,,,,5657,Moral,2025-03-04_13h34.50.435,MoralCondition_v2,2022.2.5,29.99922902791284,
16,0,16,0,0,0,0,0,,,,,,,,,,,,,,,,,,,,,,,1149.0515612999443,0.0005746999522671103,0.09720219997689128,1155.068418400013,6.0136885000392795,1155.235186100006,1155.235186100006,0.06602000002749264,0.1805939000332728,6.013877099961974,1161.3349682999542,1161.3349682999542,1161.3349682999542,0.0658392000477761,0.18036630004644394,1167.0349399000406,1167.2349487999454,6.013725000084378,6.113662300049327,1173.2348684000317,12.013657300034538,1173.3683556999313,1173.3683556999313,0.013789999997243285,0.11360280006192625,down,1.403143799980171,1174.834915400017,5.100003909319639e-05,0.09802490007132292,1180.834888100042,1180.834888100042,0.009032799978740513,0.09785560006275773,3.0,6.623416299931705,,,,,,,,1161.234942900017,1161.234942900017,1173.3348720000358,1173.3348720000358,1180.834888100042,,,5657,Moral,2025-03-04_13h34.50.435,MoralCondition_v2,2022.2.5,29.99922902791284,
16,0,16,0,1,0,1,0,,,,,,,,,,,,,,,,,,,,,,,,,,,,,,,,,,,,,,,,,,,,,,,,,,,,,1187.5013384999475,1187.5013384999475,0.007412500097416341,0.09802919998764992,5.0,2.4580913999816403,,,,,,,,,,,,,,,5657,Moral,2025-03-04_13h34.50.435,MoralCondition_v2,2022.2.5,29.99922902791284,
16,0,16,0,2,0,2,0,,,,,,,,,,,,,,,,,,,,,,,,,,,,,,,,,,,,,,,,,,,,,,,,,,,,,1190.0182986999862,1190.0182986999862,0.010542699950747192,0.11401839996688068,5.0,1.3711135999765247,,,,,,,,,,,,,,,5657,Moral,2025-03-04_13h34.50.435,MoralCondition_v2,2022.2.5,29.99922902791284,
16,0,16,0,3,0,3,0,,,,,,,,,,,,,,,,,,,,,,,,,,,,,,,,,,,,,,,,,,,,,,,,,,,,,1191.4181463000132,1191.4181463000132,0.006878499989397824,0.09766680002212524,1.0,1.525141300051473,,,,,,,,,,,,,,,5657,Moral,2025-03-04_13h34.50.435,MoralCondition_v2,2022.2.5,29.99922902791284,
16,0,16,0,4,0,4,0,,,,,,,,,,,,,,,,,,,,,,,,,,,,,,,,,,,,,,,,,,,,,,,,,,,,,1192.9847994999727,1192.9847994999727,0.008004300063475966,0.09745680005289614,5.0,3.4905810999916866,,,,,,,,,,,,,,,5657,Moral,2025-03-04_13h34.50.435,MoralCondition_v2,2022.2.5,29.99922902791284,
16,0,16,0,5,0,5,0,,,,,,,,,,,,,,,,,,,,,,,,,,,,,,,,,,,,,,,,,,,,,,,,,,,,,1196.518041400006,1196.518041400006,0.008985599968582392,0.09805310005322099,3.0,2.656649100012146,,,,,,,,,,,,,,,5657,Moral,2025-03-04_13h34.50.435,MoralCondition_v2,2022.2.5,29.99922902791284,
16,0,16,0,6,0,6,0,,,,,,,,,,,,,,,,,,,,,,,,,,,,,,,,,,,,,,,,,,,,,,,,,,,,,1199.2185848000227,1199.2185848000227,0.006992299924604595,0.09737019997555763,3.0,1.0595359000144526,,,,,,,,,,,,,,,5657,Moral,2025-03-04_13h34.50.435,MoralCondition_v2,2022.2.5,29.99922902791284,
16,0,16,0,,,,,,,,,,,,,,,,,,,,,,,,,,,,,,,,,,,,,,,,,,,,,,,,,,,,,,,,,,,,,,,1200.318015799974,1200.318015799974,0.0008437999058514833,0.09873629990033805,1.0,2.965834300033748,,,,,,,,,5657,Moral,2025-03-04_13h34.50.435,MoralCondition_v2,2022.2.5,29.99922902791284,
17,0,17,0,0,0,0,0,,,,,,,,,,,,,,,,,,,,,,,1203.3183593000285,0.00026320002507418394,0.09791020001284778,1209.3181598000228,6.031409400049597,1209.5180358999642,1209.5180358999642,0.09713930008001626,0.1980508000124246,6.031264599994756,1215.6181901999516,1215.6181901999516,1215.6181901999516,0.09390030009672046,0.19794870004989207,1221.3180411999347,1221.5182209999766,6.031400000094436,6.131241200026125,1227.5179964000126,12.031181600061245,1227.6516141999746,1227.6516141999746,0.03144140006043017,0.1312885000370443,down,6.959297699970193,1234.6513261999935,4.199997056275606e-05,0.09784609999042004,1240.667828500038,1240.667828500038,0.024133500060997903,0.11460029997397214,5.0,6.124998499988578,,,,,,,,1215.5183158,1215.5183158,1227.6181638999842,1227.6181638999842,,,,5657,Moral,2025-03-04_13h34.50.435,MoralCondition_v2,2022.2.5,29.99922902791284,
17,0,17,0,1,0,1,0,,,,,,,,,,,,,,,,,,,,,,,,,,,,,,,,,,,,,,,,,,,,,,,,,,,,,1246.8344432000304,1246.8344432000304,0.006493199965916574,0.09930709993932396,1.0,1.860295300022699,,,,,,,,,,,,,,,5657,Moral,2025-03-04_13h34.50.435,MoralCondition_v2,2022.2.5,29.99922902791284,
17,0,17,0,2,0,2,0,,,,,,,,,,,,,,,,,,,,,,,,,,,,,,,,,,,,,,,,,,,,,,,,,,,,,1248.7346690000268,1248.7346690000268,0.007361399941146374,0.09785449993796647,2.0,1.8249985000584275,,,,,,,,,,,,,,,5657,Moral,2025-03-04_13h34.50.435,MoralCondition_v2,2022.2.5,29.99922902791284,
17,0,17,0,3,0,3,0,,,,,,,,,,,,,,,,,,,,,,,,,,,,,,,,,,,,,,,,,,,,,,,,,,,,,1250.6013189000078,1250.6013189000078,0.006830500089563429,0.09728220000397414,2.0,1.7579891999484971,,,,,,,,,,,,,,,5657,Moral,2025-03-04_13h34.50.435,MoralCondition_v2,2022.2.5,29.99922902791284,
17,0,17,0,4,0,4,0,,,,,,,,,,,,,,,,,,,,,,,,,,,,,,,,,,,,,,,,,,,,,,,,,,,,,1252.4012735999422,1252.4012735999422,0.007236700039356947,0.09786460001487285,6.0,1.5920554000185803,,,,,,,,,,,,,,,5657,Moral,2025-03-04_13h34.50.435,MoralCondition_v2,2022.2.5,29.99922902791284,
17,0,17,0,5,0,5,0,,,,,,,,,,,,,,,,,,,,,,,,,,,,,,,,,,,,,,,,,,,,,,,,,,,,,1254.0345525000012,1254.0345525000012,0.007224599947221577,0.09834419994149357,3.0,2.125421299948357,,,,,,,,,,,,,,,5657,Moral,2025-03-04_13h34.50.435,MoralCondition_v2,2022.2.5,29.99922902791284,
17,0,17,0,6,0,6,0,,,,,,,,,,,,,,,,,,,,,,,,,,,,,,,,,,,,,,,,,,,,,,,,,,,,,1256.201068699942,1256.201068699942,0.006606200011447072,0.09899879992008209,5.0,1.727056200033985,,,,,,,,,,,,,,,5657,Moral,2025-03-04_13h34.50.435,MoralCondition_v2,2022.2.5,29.99922902791284,
17,0,17,0,,,,,,,,,,,,,,,,,,,,,,,,,,,,,,,,,,,,,,,,,,,,,,,,,,,,,,,,,,,,,,,1257.968181299977,1257.968181299977,0.000888400012627244,0.09892240003682673,5.0,8.699497799971141,,,,,,,,,5657,Moral,2025-03-04_13h34.50.435,MoralCondition_v2,2022.2.5,29.99922902791284,
18,0,18,0,0,0,0,0,,,,,,,,,,,,,,,,,,,,,,,1266.7014090999728,0.00025939999613910913,0.0979891000315547,1272.7178175000008,6.014580300077796,1272.9010876000393,1272.9010876000393,0.08806440001353621,0.19783509999979287,6.031277800095268,1279.001224000007,1279.001224000007,1279.001224000007,0.08846410003025085,0.19812490011099726,1284.7009520999854,1284.901228499948,6.0313254001084715,6.13114030007273,1290.9010837000096,12.03116570005659,1291.0344109999714,1291.0344109999714,0.03131290012970567,0.13113140012137592,down,2.424264100030996,1293.5178546999814,4.309997893869877e-05,0.09790419996716082,1299.5343521999894,1299.5343521999894,0.0089650999289006,0.11472700000740588,1.0,23.173185999970883,,,,,,,,1278.901143199997,1278.901143199997,1291.0010792999528,1291.0010792999528,1299.5343521999894,,,5657,Moral,2025-03-04_13h34.50.435,MoralCondition_v2,2022.2.5,29.99922902791284,
18,0,18,0,1,0,1,0,,,,,,,,,,,,,,,,,,,,,,,,,,,,,,,,,,,,,,,,,,,,,,,,,,,,,1322.7344746999443,1322.7344746999443,0.006577000021934509,0.09927630005404353,5.0,6.093600600026548,,,,,,,,,,,,,,,5657,Moral,2025-03-04_13h34.50.435,MoralCondition_v2,2022.2.5,29.99922902791284,
18,0,18,0,2,0,2,0,,,,,,,,,,,,,,,,,,,,,,,,,,,,,,,,,,,,,,,,,,,,,,,,,,,,,1328.8674596999772,1328.8674596999772,0.007711799931712449,0.09794229990802705,1.0,1.5245986999943852,,,,,,,,,,,,,,,5657,Moral,2025-03-04_13h34.50.435,MoralCondition_v2,2022.2.5,29.99922902791284,
18,0,18,0,3,0,3,0,,,,,,,,,,,,,,,,,,,,,,,,,,,,,,,,,,,,,,,,,,,,,,,,,,,,,1330.4341621999629,1330.4341621999629,0.007313799927942455,0.09792680002283305,6.0,2.6584324000868946,,,,,,,,,,,,,,,5657,Moral,2025-03-04_13h34.50.435,MoralCondition_v2,2022.2.5,29.99922902791284,
18,0,18,0,4,0,4,0,,,,,,,,,,,,,,,,,,,,,,,,,,,,,,,,,,,,,,,,,,,,,,,,,,,,,1333.1342965000076,1333.1342965000076,0.006865200004540384,0.09807349997572601,5.0,3.125398200005293,,,,,,,,,,,,,,,5657,Moral,2025-03-04_13h34.50.435,MoralCondition_v2,2022.2.5,29.99922902791284,
18,0,18,0,5,0,5,0,,,,,,,,,,,,,,,,,,,,,,,,,,,,,,,,,,,,,,,,,,,,,,,,,,,,,1336.3177311000181,1336.3177311000181,0.008177799987606704,0.11436859995592386,5.0,6.540346099995077,,,,,,,,,,,,,,,5657,Moral,2025-03-04_13h34.50.435,MoralCondition_v2,2022.2.5,29.99922902791284,
18,0,18,0,6,0,6,0,,,,,,,,,,,,,,,,,,,,,,,,,,,,,,,,,,,,,,,,,,,,,,,,,,,,,1342.8842594999587,1342.8842594999587,0.007567299995571375,0.09785909997299314,3.0,7.058138999971561,,,,,,,,,,,,,,,5657,Moral,2025-03-04_13h34.50.435,MoralCondition_v2,2022.2.5,29.99922902791284,
18,0,18,0,,,,,,,,,,,,,,,,,,,,,,,,,,,,,,,,,,,,,,,,,,,,,,,,,,,,,,,,,,,,,,,1349.9843816999346,1349.9843816999346,0.001610900042578578,0.09768720006104559,1.0,2.763987399986945,,,,,,,,,5657,Moral,2025-03-04_13h34.50.435,MoralCondition_v2,2022.2.5,29.99922902791284,
19,0,19,0,0,0,0,0,,,,,,,,,,,,,,,,,,,,,,,1352.784210999962,0.0001534000039100647,0.09951339999679476,1358.784382999991,5.999597399961203,1358.9509846,1358.9509846,0.05881069996394217,0.16608929994981736,5.999303699936718,1365.0506691000191,1365.0506691000191,1365.0506691000191,0.057814399944618344,0.1658592999447137,1370.7507910999702,1370.9511519999942,5.999590800027363,6.099181200028397,1376.9507807999616,11.999225400038995,1377.0840661999537,1377.0840661999537,0.00010900001507252455,0.09930800006259233,up,5.462554699974135,1382.5840448000235,3.9599952287971973e-05,0.09768030000850558,1388.6006556999637,1388.6006556999637,0.009097900008782744,0.11404919996857643,7.0,3.2395525999600068,,,,,,,6.099196199909784,1364.9511031999718,1364.9511031999718,1377.0507377999602,1377.0507377999602,1388.6006556999637,6.099561300012283,12.09919009997975,5657,Moral,2025-03-04_13h34.50.435,MoralCondition_v2,2022.2.5,29.99922902791284,
19,0,19,0,1,0,1,0,,,,,,,,,,,,,,,,,,,,,,,,,,,,,,,,,,,,,,,,,,,,,,,,,,,,,1391.8842127999524,1391.8842127999524,0.007975099957548082,0.11468239990063012,6.0,2.3075800000224262,,,,,,,,,,,,,,,5657,Moral,2025-03-04_13h34.50.435,MoralCondition_v2,2022.2.5,29.99922902791284,
19,0,19,0,2,0,2,0,,,,,,,,,,,,,,,,,,,,,,,,,,,,,,,,,,,,,,,,,,,,,,,,,,,,,1394.2173078999622,1394.2173078999622,0.007458999985828996,0.09788399992976338,5.0,3.091539300046861,,,,,,,,,,,,,,,5657,Moral,2025-03-04_13h34.50.435,MoralCondition_v2,2022.2.5,29.99922902791284,
19,0,19,0,3,0,3,0,,,,,,,,,,,,,,,,,,,,,,,,,,,,,,,,,,,,,,,,,,,,,,,,,,,,,1397.3508069999516,1397.3508069999516,0.007571999914944172,0.0980756999924779,5.0,11.358204400050454,,,,,,,,,,,,,,,5657,Moral,2025-03-04_13h34.50.435,MoralCondition_v2,2022.2.5,29.99922902791284,
19,0,19,0,4,0,4,0,,,,,,,,,,,,,,,,,,,,,,,,,,,,,,,,,,,,,,,,,,,,,,,,,,,,,1408.750529199955,1408.750529199955,0.009160600020550191,0.09797290002461523,3.0,2.3231156000401825,,,,,,,,,,,,,,,5657,Moral,2025-03-04_13h34.50.435,MoralCondition_v2,2022.2.5,29.99922902791284,
19,0,19,0,5,0,5,0,,,,,,,,,,,,,,,,,,,,,,,,,,,,,,,,,,,,,,,,,,,,,,,,,,,,,1411.1172627999913,1411.1172627999913,0.00679139990825206,0.09916679991874844,5.0,3.793261600076221,,,,,,,,,,,,,,,5657,Moral,2025-03-04_13h34.50.435,MoralCondition_v2,2022.2.5,29.99922902791284,
19,0,19,0,6,0,6,0,,,,,,,,,,,,,,,,,,,,,,,,,,,,,,,,,,,,,,,,,,,,,,,,,,,,,1414.950574300019,1414.950574300019,0.006642199936322868,0.09868049994111061,5.0,1.8262191999237984,,,,,,,,,,,,,,,5657,Moral,2025-03-04_13h34.50.435,MoralCondition_v2,2022.2.5,29.99922902791284,
19,0,19,0,,,,,,,,,,,,,,,,,,,,,,,,,,,,,,,,,,,,,,,,,,,,,,,,,,,,,,,,,,,,,,,1416.8173020000104,1416.8173020000104,0.0014188999775797129,0.09763189998921007,5.0,6.1638866000575945,,,,,,,,,5657,Moral,2025-03-04_13h34.50.435,MoralCondition_v2,2022.2.5,29.99922902791284,
