loop.thisRepN,loop.thisTrialN,loop.thisN,loop.thisIndex,evaluate_all_emotions.thisRepN,evaluate_all_emotions.thisTrialN,evaluate_all_emotions.thisN,evaluate_all_emotions.thisIndex,sync_beep_1.started,p_port.started,p_port.stopped,sync_beep_1.stopped,sync_beep_2.started,sync_beep_2.stopped,sync_beep_3.started,sync_beep_4.started,baseline.started,p_port_2.started,p_port_2.stopped,baseline.stopped,p_port_3.started,Game_Start_Text.started,p_port_4.started,p_port_4.stopped,key_resp.started,key_resp.keys,key_resp.rt,fixation_cross.started,p_port_5.started,p_port_5.stopped,fixation_cross.stopped,p_port_6.started,player_image_intro.started,player_name_intro.started,p_port_7.started,p_port_7.stopped,p_port_8.started,player_image_offer.started,player_name_offer.started,proposed_split.started,p_port_9.started,p_port_9.stopped,proposed_split.stopped,accept_reject.started,p_port_15.started,p_port_15.stopped,accept_reject.stopped,p_port_10.started,arrow_instructions.started,offer_choice.started,p_port_11.started,p_port_11.stopped,offer_choice.keys,offer_choice.rt,Instructions_Affinity_Score.started,p_port_12.started,p_port_12.stopped,Instructions_Affinity_Score.stopped,Emotion_Image.started,AffinityScore.started,p_port_13.started,p_port_13.stopped,AffinityScore.response,AffinityScore.rt,Instruction.started,Moral_Disgust_Score.started,p_port_14.started,p_port_14.stopped,Moral_Disgust_Score.response,Moral_Disgust_Score.rt,player_image_intro.stopped,player_name_intro.stopped,player_image_offer.stopped,player_name_offer.stopped,p_port_6.stopped,p_port_8.stopped,p_port_10.stopped,participant,session,date,expName,psychopyVersion,frameRate,
,,,,,,,,19.9148133485578,0.0008783997036516666,0.1095473999157548,20.243406200315803,20.510087930131704,20.82669540029019,21.109965430106968,21.709999930113554,22.043355900328606,0.01108929980546236,0.10963139962404966,37.05993050010875,15.026467199902982,37.14334170008078,0.009704499505460262,0.10972439963370562,37.61001820024103,space,1.5844805999659002,,,,,,,,,,,,,,,,,,,,,,,,,,,,,,,,,,,,,,,,,,,,,,,,,,,5749,Moral,2025-02-17_16h50.05.021,MoralCondition_v2,2022.2.5,29.925560149262722,
0,0,0,0,0,0,0,0,,,,,,,,,,,,,,,,,,,,39.243453700095415,0.0013390998356044292,0.09817439969629049,45.25995169999078,6.014784999657422,45.52662350004539,45.52662350004539,0.13308499986305833,0.2815014999359846,6.014908599667251,51.56012410018593,51.56012410018593,51.56012410018593,0.0877021998167038,0.21480919979512691,57.26011459995061,57.426664900034666,6.0148350996896625,6.114730299450457,63.426645800005645,12.014808099716902,63.55998060014099,63.55998060014099,0.014887599740177393,0.11474569933488965,up,1.1218047998845577,64.7266544001177,5.010003224015236e-05,0.09775339998304844,70.74317770032212,70.74317770032212,70.74317770032212,0.013650999870151281,0.11445829970762134,3.0,5.818704900331795,,,,,,,,,,,,,,5749,Moral,2025-02-17_16h50.05.021,MoralCondition_v2,2022.2.5,29.925560149262722,
0,0,0,0,1,0,1,0,,,,,,,,,,,,,,,,,,,,,,,,,,,,,,,,,,,,,,,,,,,,,,,,,,,76.61005360027775,76.61005360027775,0.017601000145077705,0.11618260014802217,6.0,4.332487099803984,,,,,,,,,,,,,,5749,Moral,2025-02-17_16h50.05.021,MoralCondition_v2,2022.2.5,29.925560149262722,
0,0,0,0,2,0,2,0,,,,,,,,,,,,,,,,,,,,,,,,,,,,,,,,,,,,,,,,,,,,,,,,,,,80.99333530012518,80.99333530012518,0.017944099847227335,0.11581029975786805,5.0,4.265606999862939,,,,,,,,,,,,,,5749,Moral,2025-02-17_16h50.05.021,MoralCondition_v2,2022.2.5,29.925560149262722,
0,0,0,0,3,0,3,0,,,,,,,,,,,,,,,,,,,,,,,,,,,,,,,,,,,,,,,,,,,,,,,,,,,85.29333009989932,85.29333009989932,0.009150500409305096,0.09923200029879808,3.0,4.8244733000174165,,,,,,,,,,,,,,5749,Moral,2025-02-17_16h50.05.021,MoralCondition_v2,2022.2.5,29.925560149262722,
0,0,0,0,4,0,4,0,,,,,,,,,,,,,,,,,,,,,,,,,,,,,,,,,,,,,,,,,,,,,,,,,,,90.17668170016259,90.17668170016259,0.01915870001539588,0.11494079977273941,5.0,5.496777300257236,,,,,,,,,,,,,,5749,Moral,2025-02-17_16h50.05.021,MoralCondition_v2,2022.2.5,29.925560149262722,
0,0,0,0,5,0,5,0,,,,,,,,,,,,,,,,,,,,,,,,,,,,,,,,,,,,,,,,,,,,,,,,,,,95.7099446002394,95.7099446002394,0.009265299886465073,0.09826589981094003,5.0,3.3895549001172185,,,,,,,,,,,,,,5749,Moral,2025-02-17_16h50.05.021,MoralCondition_v2,2022.2.5,29.925560149262722,
0,0,0,0,6,0,6,0,,,,,,,,,,,,,,,,,,,,,,,,,,,,,,,,,,,,,,,,,,,,,,,,,,,99.14323720009997,99.14323720009997,0.008916100021451712,0.09950280003249645,5.0,8.558002799749374,,,,,,,,,,,,,,5749,Moral,2025-02-17_16h50.05.021,MoralCondition_v2,2022.2.5,29.925560149262722,
0,0,0,0,,,,,,,,,,,,,,,,,,,,,,,,,,,,,,,,,,,,,,,,,,,,,,,,,,,,,,,,,,,,,107.74349529994652,107.74349529994652,0.0016681002452969551,0.09779709996655583,7.0,5.363974200095981,,,,,,,,5749,Moral,2025-02-17_16h50.05.021,MoralCondition_v2,2022.2.5,29.925560149262722,
1,0,1,0,0,0,0,0,,,,,,,,,,,,,,,,,,,,113.14325609989464,0.0004724999889731407,0.09717450011521578,119.14315190026537,6.0303944000042975,119.34357600007206,119.34357600007206,0.0780746997334063,0.1973965996876359,6.03048129985109,125.44330660020933,125.44330660020933,125.44330660020933,0.09394339984282851,0.19740809965878725,131.143219999969,131.34319790033624,6.030521999578923,6.130755299702287,137.34319479996338,12.030577299650759,137.47657100018114,137.47657100018114,0.030676699709147215,0.13061209954321384,down,0.820603400003165,138.35989060020074,4.990026354789734e-05,0.09798680013045669,144.37630200013518,144.37630200013518,144.37630200013518,0.012857399880886078,0.11469960026443005,6.0,3.2365862000733614,,,,,,,125.34320229990408,125.34320229990408,137.4431978999637,137.4431978999637,,,,5749,Moral,2025-02-17_16h50.05.021,MoralCondition_v2,2022.2.5,29.925560149262722,
1,0,1,0,1,0,1,0,,,,,,,,,,,,,,,,,,,,,,,,,,,,,,,,,,,,,,,,,,,,,,,,,,,147.64305229997262,147.64305229997262,0.007935600355267525,0.09825440030544996,1.0,3.7245204001665115,,,,,,,,,,,,,,5749,Moral,2025-02-17_16h50.05.021,MoralCondition_v2,2022.2.5,29.925560149262722,
1,0,1,0,2,0,2,0,,,,,,,,,,,,,,,,,,,,,,,,,,,,,,,,,,,,,,,,,,,,,,,,,,,151.40983769996092,151.40983769996092,0.0070696002803742886,0.09941399982199073,6.0,2.693267600145191,,,,,,,,,,,,,,5749,Moral,2025-02-17_16h50.05.021,MoralCondition_v2,2022.2.5,29.925560149262722,
1,0,1,0,3,0,3,0,,,,,,,,,,,,,,,,,,,,,,,,,,,,,,,,,,,,,,,,,,,,,,,,,,,154.1429938999936,154.1429938999936,0.0092098000459373,0.09729540022090077,6.0,2.889182699844241,,,,,,,,,,,,,,5749,Moral,2025-02-17_16h50.05.021,MoralCondition_v2,2022.2.5,29.925560149262722,
1,0,1,0,4,0,4,0,,,,,,,,,,,,,,,,,,,,,,,,,,,,,,,,,,,,,,,,,,,,,,,,,,,157.0934215001762,157.0934215001762,0.007799900136888027,0.11406379984691739,7.0,3.6074286000803113,,,,,,,,,,,,,,5749,Moral,2025-02-17_16h50.05.021,MoralCondition_v2,2022.2.5,29.925560149262722,
1,0,1,0,5,0,5,0,,,,,,,,,,,,,,,,,,,,,,,,,,,,,,,,,,,,,,,,,,,,,,,,,,,160.72649950021878,160.72649950021878,0.007266100030392408,0.09778619976714253,6.0,2.0583473998121917,,,,,,,,,,,,,,5749,Moral,2025-02-17_16h50.05.021,MoralCondition_v2,2022.2.5,29.925560149262722,
1,0,1,0,6,0,6,0,,,,,,,,,,,,,,,,,,,,,,,,,,,,,,,,,,,,,,,,,,,,,,,,,,,162.8263528002426,162.8263528002426,0.007287699729204178,0.09742889972403646,2.0,3.4576493999920785,,,,,,,,,,,,,,5749,Moral,2025-02-17_16h50.05.021,MoralCondition_v2,2022.2.5,29.925560149262722,
1,0,1,0,,,,,,,,,,,,,,,,,,,,,,,,,,,,,,,,,,,,,,,,,,,,,,,,,,,,,,,,,,,,,166.32665440021083,166.32665440021083,0.0007350998930633068,0.09947319980710745,2.0,7.133151799906045,,,,,,,,5749,Moral,2025-02-17_16h50.05.021,MoralCondition_v2,2022.2.5,29.925560149262722,
2,0,2,0,0,0,0,0,,,,,,,,,,,,,,,,,,,,173.49335350003093,0.00015190010890364647,0.09908219985663891,179.47624990018085,6.01542490022257,179.75982670020312,179.75982670020312,0.1543601001612842,0.2658742000348866,5.9990400997921824,185.80995880020782,185.80995880020782,185.80995880020782,0.10717759979888797,0.21587649965658784,191.50996370008215,191.67646640026942,6.015753499697894,6.115632199682295,197.6761715002358,12.015340399928391,197.8097529001534,197.8097529001534,0.015845099929720163,0.13240759959444404,down,2.3281834996305406,200.17669690027833,1.9600149244070053e-05,0.09937340021133423,206.17629200033844,206.17629200033844,206.17629200033844,0.008801300078630447,0.09928660001605749,6.0,2.891388999763876,,,,,,,,,,,6.098844900261611,6.098695700056851,,5749,Moral,2025-02-17_16h50.05.021,MoralCondition_v2,2022.2.5,29.925560149262722,
2,0,2,0,1,0,1,0,,,,,,,,,,,,,,,,,,,,,,,,,,,,,,,,,,,,,,,,,,,,,,,,,,,209.12650540005416,209.12650540005416,0.008060500025749207,0.1147193000651896,5.0,7.807749200146645,,,,,,,,,,,,,,5749,Moral,2025-02-17_16h50.05.021,MoralCondition_v2,2022.2.5,29.925560149262722,
2,0,2,0,2,0,2,0,,,,,,,,,,,,,,,,,,,,,,,,,,,,,,,,,,,,,,,,,,,,,,,,,,,216.97651530010626,216.97651530010626,0.008180900011211634,0.11473109992220998,6.0,3.5406896001659334,,,,,,,,,,,,,,5749,Moral,2025-02-17_16h50.05.021,MoralCondition_v2,2022.2.5,29.925560149262722,
2,0,2,0,3,0,3,0,,,,,,,,,,,,,,,,,,,,,,,,,,,,,,,,,,,,,,,,,,,,,,,,,,,220.54280399996787,220.54280399996787,0.007877199910581112,0.09765810007229447,7.0,3.5576688000001013,,,,,,,,,,,,,,5749,Moral,2025-02-17_16h50.05.021,MoralCondition_v2,2022.2.5,29.925560149262722,
2,0,2,0,4,0,4,0,,,,,,,,,,,,,,,,,,,,,,,,,,,,,,,,,,,,,,,,,,,,,,,,,,,224.1431265003048,224.1431265003048,0.008078800048679113,0.09798129973933101,6.0,3.7572176000103354,,,,,,,,,,,,,,5749,Moral,2025-02-17_16h50.05.021,MoralCondition_v2,2022.2.5,29.925560149262722,
2,0,2,0,5,0,5,0,,,,,,,,,,,,,,,,,,,,,,,,,,,,,,,,,,,,,,,,,,,,,,,,,,,227.94290010025725,227.94290010025725,0.007876100018620491,0.09815850015729666,2.0,3.224601599853486,,,,,,,,,,,,,,5749,Moral,2025-02-17_16h50.05.021,MoralCondition_v2,2022.2.5,29.925560149262722,
2,0,2,0,6,0,6,0,,,,,,,,,,,,,,,,,,,,,,,,,,,,,,,,,,,,,,,,,,,,,,,,,,,231.2095715003088,231.2095715003088,0.006938300095498562,0.09919500024989247,7.0,2.259842799976468,,,,,,,,,,,,,,5749,Moral,2025-02-17_16h50.05.021,MoralCondition_v2,2022.2.5,29.925560149262722,
2,0,2,0,,,,,,,,,,,,,,,,,,,,,,,,,,,,,,,,,,,,,,,,,,,,,,,,,,,,,,,,,,,,,233.50976350018755,233.50976350018755,0.0011765002273023129,0.09842400019988418,2.0,4.931552399881184,,,,,,,,5749,Moral,2025-02-17_16h50.05.021,MoralCondition_v2,2022.2.5,29.925560149262722,
3,0,3,0,0,0,0,0,,,,,,,,,,,,,,,,,,,,238.47653939994052,0.00013589998707175255,0.0994730000384152,244.4764764001593,5.999193400144577,244.64292580028996,244.64292580028996,0.06477830000221729,0.16587689984589815,5.9993588998913765,250.74296479998156,250.74296479998156,250.74296479998156,0.06658559991046786,0.1661196001805365,256.44297139998525,256.6428930000402,5.999094000086188,6.099150899797678,262.643730700016,11.999944299925119,262.77655180031434,262.77655180031434,0.00023570004850625992,0.0991173000074923,up,1.6488743997178972,264.45959060033783,4.1099730879068375e-05,0.0976970000192523,270.4596838001162,270.4596838001162,270.4596838001162,0.008839699905365705,0.09753509983420372,3.0,5.923294600099325,,,,,,,250.64315159991384,250.64315159991384,262.743138700258,262.743138700258,6.09904529992491,6.0994120999239385,12.09936759993434,5749,Moral,2025-02-17_16h50.05.021,MoralCondition_v2,2022.2.5,29.925560149262722,
3,0,3,0,1,0,1,0,,,,,,,,,,,,,,,,,,,,,,,,,,,,,,,,,,,,,,,,,,,,,,,,,,,276.426145600155,276.426145600155,0.008381000254303217,0.0975538999773562,5.0,5.3902257001027465,,,,,,,,,,,,,,5749,Moral,2025-02-17_16h50.05.021,MoralCondition_v2,2022.2.5,29.925560149262722,
3,0,3,0,2,0,2,0,,,,,,,,,,,,,,,,,,,,,,,,,,,,,,,,,,,,,,,,,,,,,,,,,,,281.85946359997615,281.85946359997615,0.007959499955177307,0.09887870028614998,3.0,4.05925659975037,,,,,,,,,,,,,,5749,Moral,2025-02-17_16h50.05.021,MoralCondition_v2,2022.2.5,29.925560149262722,
3,0,3,0,3,0,3,0,,,,,,,,,,,,,,,,,,,,,,,,,,,,,,,,,,,,,,,,,,,,,,,,,,,285.9762397999875,285.9762397999875,0.008520099800080061,0.11426990013569593,5.0,3.9405537000857294,,,,,,,,,,,,,,5749,Moral,2025-02-17_16h50.05.021,MoralCondition_v2,2022.2.5,29.925560149262722,
3,0,3,0,4,0,4,0,,,,,,,,,,,,,,,,,,,,,,,,,,,,,,,,,,,,,,,,,,,,,,,,,,,289.94285889994353,289.94285889994353,0.006640600040555,0.09942919993773103,4.0,3.960270300041884,,,,,,,,,,,,,,5749,Moral,2025-02-17_16h50.05.021,MoralCondition_v2,2022.2.5,29.925560149262722,
3,0,3,0,5,0,5,0,,,,,,,,,,,,,,,,,,,,,,,,,,,,,,,,,,,,,,,,,,,,,,,,,,,293.94295589998364,293.94295589998364,0.006759400013834238,0.09915329981595278,5.0,3.3604100001975894,,,,,,,,,,,,,,5749,Moral,2025-02-17_16h50.05.021,MoralCondition_v2,2022.2.5,29.925560149262722,
3,0,3,0,6,0,6,0,,,,,,,,,,,,,,,,,,,,,,,,,,,,,,,,,,,,,,,,,,,,,,,,,,,297.34297939995304,297.34297939995304,0.007315000053495169,0.09726319974288344,2.0,2.857492999639362,,,,,,,,,,,,,,5749,Moral,2025-02-17_16h50.05.021,MoralCondition_v2,2022.2.5,29.925560149262722,
3,0,3,0,,,,,,,,,,,,,,,,,,,,,,,,,,,,,,,,,,,,,,,,,,,,,,,,,,,,,,,,,,,,,300.2428236999549,300.2428236999549,0.0007034000009298325,0.0994199002161622,7.0,2.8997207996435463,,,,,,,,5749,Moral,2025-02-17_16h50.05.021,MoralCondition_v2,2022.2.5,29.925560149262722,
4,0,4,0,0,0,0,0,,,,,,,,,,,,,,,,,,,,303.17638020031154,0.00032029999420046806,0.09738249983638525,309.1593514000997,6.013981299940497,309.3426057002507,309.3426057002507,0.060055899899452925,0.16424589976668358,6.030683299526572,315.4761767000891,315.4761767000891,315.4761767000891,0.09162759967148304,0.1974012996070087,321.17611860018224,321.3760830000974,6.0306948996149,6.1306752995587885,327.3761620000005,12.030812699813396,327.50945800030604,327.50945800030604,0.030866299755871296,0.13066939963027835,down,1.7162974001839757,329.2761252000928,4.1999854147434235e-05,0.09749049972742796,,335.2926167999394,335.2926167999394,0.02403109986335039,0.11431990005075932,7.0,3.824581999797374,,,,,,,315.3427647999488,315.3427647999488,327.47613350022584,327.47613350022584,6.097414199728519,,,5749,Moral,2025-02-17_16h50.05.021,MoralCondition_v2,2022.2.5,29.925560149262722,
4,0,4,0,1,0,1,0,,,,,,,,,,,,,,,,,,,,,,,,,,,,,,,,,,,,,,,,,,,,,,,,,,,339.15936140017584,339.15936140017584,0.00751660019159317,0.0989461001008749,7.0,1.9255079003050923,,,,,,,,,,,,,,5749,Moral,2025-02-17_16h50.05.021,MoralCondition_v2,2022.2.5,29.925560149262722,
4,0,4,0,2,0,2,0,,,,,,,,,,,,,,,,,,,,,,,,,,,,,,,,,,,,,,,,,,,,,,,,,,,341.1259876000695,341.1259876000695,0.006652200128883123,0.09930230025202036,1.0,3.5603303001262248,,,,,,,,,,,,,,5749,Moral,2025-02-17_16h50.05.021,MoralCondition_v2,2022.2.5,29.925560149262722,
4,0,4,0,3,0,3,0,,,,,,,,,,,,,,,,,,,,,,,,,,,,,,,,,,,,,,,,,,,,,,,,,,,344.7259654002264,344.7259654002264,0.006852699909359217,0.09923580009490252,2.0,6.826615599915385,,,,,,,,,,,,,,5749,Moral,2025-02-17_16h50.05.021,MoralCondition_v2,2022.2.5,29.925560149262722,
4,0,4,0,4,0,4,0,,,,,,,,,,,,,,,,,,,,,,,,,,,,,,,,,,,,,,,,,,,,,,,,,,,351.5927283000201,351.5927283000201,0.008377100341022015,0.0987753001973033,6.0,2.5913154003210366,,,,,,,,,,,,,,5749,Moral,2025-02-17_16h50.05.021,MoralCondition_v2,2022.2.5,29.925560149262722,
4,0,4,0,5,0,5,0,,,,,,,,,,,,,,,,,,,,,,,,,,,,,,,,,,,,,,,,,,,,,,,,,,,354.2430773000233,354.2430773000233,0.00804049987345934,0.1141745001077652,6.0,3.77378850011155,,,,,,,,,,,,,,5749,Moral,2025-02-17_16h50.05.021,MoralCondition_v2,2022.2.5,29.925560149262722,
4,0,4,0,6,0,6,0,,,,,,,,,,,,,,,,,,,,,,,,,,,,,,,,,,,,,,,,,,,,,,,,,,,358.0426924000494,358.0426924000494,0.0069148000329732895,0.09819140005856752,6.0,1.6922304998151958,,,,,,,,,,,,,,5749,Moral,2025-02-17_16h50.05.021,MoralCondition_v2,2022.2.5,29.925560149262722,
4,0,4,0,,,,,,,,,,,,,,,,,,,,,,,,,,,,,,,,,,,,,,,,,,,,,,,,,,,,,,,,,,,,,359.7762222001329,359.7762222001329,0.0015322002582252026,0.09840120002627373,2.0,4.497689400333911,,,,,,,,5749,Moral,2025-02-17_16h50.05.021,MoralCondition_v2,2022.2.5,29.925560149262722,
5,0,5,0,0,0,0,0,,,,,,,,,,,,,,,,,,,,364.3094810000621,0.0002758000046014786,0.0978526002727449,370.3092833003029,6.031113800127059,370.50919339992106,370.50919339992106,0.09703310020267963,0.19799270015209913,6.031061300076544,376.60923290019855,376.60923290019855,376.60923290019855,0.09188009984791279,0.19763189973309636,382.3092376999557,382.5092752999626,6.03111739968881,6.131055899895728,388.5092458999716,12.03107969975099,388.64256250020117,388.64256250020117,0.03125969972461462,0.1310481997206807,down,2.5351795996539295,391.22611050028354,5.069980397820473e-05,0.09772179974243045,397.2427354999818,397.2427354999818,397.2427354999818,0.010178099852055311,0.11441449960693717,7.0,3.8727540001273155,,,,,,,376.50928070023656,376.50928070023656,388.60923830000684,388.60923830000684,,,,5749,Moral,2025-02-17_16h50.05.021,MoralCondition_v2,2022.2.5,29.925560149262722,
5,0,5,0,1,0,1,0,,,,,,,,,,,,,,,,,,,,,,,,,,,,,,,,,,,,,,,,,,,,,,,,,,,401.1425735000521,401.1425735000521,0.007803599815815687,0.09752850001677871,5.0,5.657141299918294,,,,,,,,,,,,,,5749,Moral,2025-02-17_16h50.05.021,MoralCondition_v2,2022.2.5,29.925560149262722,
5,0,5,0,2,0,2,0,,,,,,,,,,,,,,,,,,,,,,,,,,,,,,,,,,,,,,,,,,,,,,,,,,,406.84244470018893,406.84244470018893,0.00558330025523901,0.09950269991531968,4.0,3.828070200048387,,,,,,,,,,,,,,5749,Moral,2025-02-17_16h50.05.021,MoralCondition_v2,2022.2.5,29.925560149262722,
5,0,5,0,3,0,3,0,,,,,,,,,,,,,,,,,,,,,,,,,,,,,,,,,,,,,,,,,,,,,,,,,,,410.7092337002978,410.7092337002978,0.007647800259292126,0.09878640016540885,7.0,2.1593208997510374,,,,,,,,,,,,,,5749,Moral,2025-02-17_16h50.05.021,MoralCondition_v2,2022.2.5,29.925560149262722,
5,0,5,0,4,0,4,0,,,,,,,,,,,,,,,,,,,,,,,,,,,,,,,,,,,,,,,,,,,,,,,,,,,412.90897140000015,412.90897140000015,0.007621999830007553,0.09850930003449321,1.0,2.1911820000968874,,,,,,,,,,,,,,5749,Moral,2025-02-17_16h50.05.021,MoralCondition_v2,2022.2.5,29.925560149262722,
5,0,5,0,5,0,5,0,,,,,,,,,,,,,,,,,,,,,,,,,,,,,,,,,,,,,,,,,,,,,,,,,,,415.1592691000551,415.1592691000551,0.008475400041788816,0.11455529974773526,7.0,2.7736978996545076,,,,,,,,,,,,,,5749,Moral,2025-02-17_16h50.05.021,MoralCondition_v2,2022.2.5,29.925560149262722,
5,0,5,0,6,0,6,0,,,,,,,,,,,,,,,,,,,,,,,,,,,,,,,,,,,,,,,,,,,,,,,,,,,417.9591685999185,417.9591685999185,0.007195800077170134,0.09799810033291578,7.0,4.491787000093609,,,,,,,,,,,,,,5749,Moral,2025-02-17_16h50.05.021,MoralCondition_v2,2022.2.5,29.925560149262722,
5,0,5,0,,,,,,,,,,,,,,,,,,,,,,,,,,,,,,,,,,,,,,,,,,,,,,,,,,,,,,,,,,,,,422.4923614002764,422.4923614002764,0.0016942000947892666,0.09765620017424226,1.0,5.93101210007444,,,,,,,,5749,Moral,2025-02-17_16h50.05.021,MoralCondition_v2,2022.2.5,29.925560149262722,
6,0,6,0,0,0,0,0,,,,,,,,,,,,,,,,,,,,428.4590977001935,0.0001555001363158226,0.09919079998508096,434.47572780027986,6.015717700123787,434.67587460018694,434.67587460018694,0.09314309991896152,0.21575090009719133,6.015717800240964,440.75913970032707,440.75913970032707,440.75913970032707,0.09480329975485802,0.19918629992753267,446.45904939994216,446.65904569998384,5.999026999808848,6.09901970019564,452.6590867000632,12.032429799903184,452.7923699002713,452.7923699002713,0.03268949966877699,0.1323246997781098,down,0.9129181997850537,453.7590431999415,4.650000482797623e-05,0.09754419978708029,,459.79246750008315,459.79246750008315,0.02639769995585084,0.13091100007295609,2.0,5.805527800228447,,,,,,,,,452.7590588000603,452.7590588000603,,,,5749,Moral,2025-02-17_16h50.05.021,MoralCondition_v2,2022.2.5,29.925560149262722,
6,0,6,0,1,0,1,0,,,,,,,,,,,,,,,,,,,,,,,,,,,,,,,,,,,,,,,,,,,,,,,,,,,465.62543989997357,465.62543989997357,0.0077668000012636185,0.09800599981099367,6.0,1.8244724003598094,,,,,,,,,,,,,,5749,Moral,2025-02-17_16h50.05.021,MoralCondition_v2,2022.2.5,29.925560149262722,
6,0,6,0,2,0,2,0,,,,,,,,,,,,,,,,,,,,,,,,,,,,,,,,,,,,,,,,,,,,,,,,,,,467.49233980011195,467.49233980011195,0.0075563001446425915,0.09767589997500181,6.0,3.0246123000979424,,,,,,,,,,,,,,5749,Moral,2025-02-17_16h50.05.021,MoralCondition_v2,2022.2.5,29.925560149262722,
6,0,6,0,3,0,3,0,,,,,,,,,,,,,,,,,,,,,,,,,,,,,,,,,,,,,,,,,,,,,,,,,,,470.575537300203,470.575537300203,0.010915100108832121,0.11381979985162616,6.0,2.937041400000453,,,,,,,,,,,,,,5749,Moral,2025-02-17_16h50.05.021,MoralCondition_v2,2022.2.5,29.925560149262722,
6,0,6,0,4,0,4,0,,,,,,,,,,,,,,,,,,,,,,,,,,,,,,,,,,,,,,,,,,,,,,,,,,,473.5424529002048,473.5424529002048,0.007878100033849478,0.09754600003361702,7.0,4.8572756997309625,,,,,,,,,,,,,,5749,Moral,2025-02-17_16h50.05.021,MoralCondition_v2,2022.2.5,29.925560149262722,
6,0,6,0,5,0,5,0,,,,,,,,,,,,,,,,,,,,,,,,,,,,,,,,,,,,,,,,,,,,,,,,,,,478.4589534001425,478.4589534001425,0.007529800292104483,0.11416079988703132,7.0,2.907617799937725,,,,,,,,,,,,,,5749,Moral,2025-02-17_16h50.05.021,MoralCondition_v2,2022.2.5,29.925560149262722,
6,0,6,0,6,0,6,0,,,,,,,,,,,,,,,,,,,,,,,,,,,,,,,,,,,,,,,,,,,,,,,,,,,481.3922739000991,481.3922739000991,0.008487899787724018,0.09801709977909923,5.0,3.0572458999231458,,,,,,,,,,,,,,5749,Moral,2025-02-17_16h50.05.021,MoralCondition_v2,2022.2.5,29.925560149262722,
6,0,6,0,,,,,,,,,,,,,,,,,,,,,,,,,,,,,,,,,,,,,,,,,,,,,,,,,,,,,,,,,,,,,484.4921880001202,484.4921880001202,0.0015777996741235256,0.09716769959777594,2.0,2.6637301999144256,,,,,,,,5749,Moral,2025-02-17_16h50.05.021,MoralCondition_v2,2022.2.5,29.925560149262722,
7,0,7,0,0,0,0,0,,,,,,,,,,,,,,,,,,,,487.1925298999995,0.0002522999420762062,0.09819620009511709,493.19223219994456,6.031513900030404,493.3922255001962,493.3922255001962,0.08865189971402287,0.19823510013520718,6.031409100163728,499.49216570006683,499.49216570006683,499.49216570006683,0.0846462999470532,0.1980661996640265,505.19215410016477,505.39216919988394,6.0315067996270955,6.131322700064629,511.3922040001489,12.031493499875069,511.5256566000171,511.5256566000171,0.03163209976628423,0.13130199955776334,down,0.8200075002387166,512.3920976999216,4.469975829124451e-05,0.09809720003977418,,518.4085824000649,518.4085824000649,0.02414509980008006,0.11473389994353056,6.0,4.091442000120878,,,,,,,499.39229519991204,499.39229519991204,511.4922386999242,511.4922386999242,,,,5749,Moral,2025-02-17_16h50.05.021,MoralCondition_v2,2022.2.5,29.925560149262722,
7,0,7,0,1,0,1,0,,,,,,,,,,,,,,,,,,,,,,,,,,,,,,,,,,,,,,,,,,,,,,,,,,,522.542070500087,522.542070500087,0.007591699715703726,0.09742299979552627,7.0,1.9240524000488222,,,,,,,,,,,,,,5749,Moral,2025-02-17_16h50.05.021,MoralCondition_v2,2022.2.5,29.925560149262722,
7,0,7,0,2,0,2,0,,,,,,,,,,,,,,,,,,,,,,,,,,,,,,,,,,,,,,,,,,,,,,,,,,,524.5085356999189,524.5085356999189,0.007932299748063087,0.0978612001053989,7.0,2.0243528997525573,,,,,,,,,,,,,,5749,Moral,2025-02-17_16h50.05.021,MoralCondition_v2,2022.2.5,29.925560149262722,
7,0,7,0,3,0,3,0,,,,,,,,,,,,,,,,,,,,,,,,,,,,,,,,,,,,,,,,,,,,,,,,,,,526.5922481003217,526.5922481003217,0.007908999919891357,0.11432379996404052,7.0,3.1739099002443254,,,,,,,,,,,,,,5749,Moral,2025-02-17_16h50.05.021,MoralCondition_v2,2022.2.5,29.925560149262722,
7,0,7,0,4,0,4,0,,,,,,,,,,,,,,,,,,,,,,,,,,,,,,,,,,,,,,,,,,,,,,,,,,,529.7921796999872,529.7921796999872,0.00748339993879199,0.0975846997462213,7.0,1.4908330999314785,,,,,,,,,,,,,,5749,Moral,2025-02-17_16h50.05.021,MoralCondition_v2,2022.2.5,29.925560149262722,
7,0,7,0,5,0,5,0,,,,,,,,,,,,,,,,,,,,,,,,,,,,,,,,,,,,,,,,,,,,,,,,,,,531.3253893000074,531.3253893000074,0.007684799842536449,0.09727119980379939,5.0,2.9241124000400305,,,,,,,,,,,,,,5749,Moral,2025-02-17_16h50.05.021,MoralCondition_v2,2022.2.5,29.925560149262722,
7,0,7,0,6,0,6,0,,,,,,,,,,,,,,,,,,,,,,,,,,,,,,,,,,,,,,,,,,,,,,,,,,,534.2921716999263,534.2921716999263,0.007453099824488163,0.0980604998767376,1.0,2.0915164002217352,,,,,,,,,,,,,,5749,Moral,2025-02-17_16h50.05.021,MoralCondition_v2,2022.2.5,29.925560149262722,
7,0,7,0,,,,,,,,,,,,,,,,,,,,,,,,,,,,,,,,,,,,,,,,,,,,,,,,,,,,,,,,,,,,,536.4253762001172,536.4253762001172,0.000709999818354845,0.09926849976181984,1.0,3.0335264997556806,,,,,,,,5749,Moral,2025-02-17_16h50.05.021,MoralCondition_v2,2022.2.5,29.925560149262722,
8,0,8,0,0,0,0,0,,,,,,,,,,,,,,,,,,,,539.4920065002516,0.00013229995965957642,0.09906930010765791,545.5086790001951,6.015698700211942,545.6752900001593,545.6752900001593,0.07320039998739958,0.1825234000571072,6.015681799966842,551.7752038002945,551.7752038002945,551.7752038002945,0.07637450005859137,0.18256510002538562,557.4754198999144,557.6752328001894,6.015690799802542,6.1156591000035405,563.6752063999884,12.015663099940866,563.8085659001954,563.8085659001954,0.01592750009149313,0.1156068998388946,up,5.992650399915874,569.8418900999241,9.009987115859985e-05,0.09751790016889572,,575.8752800999209,575.8752800999209,0.025283699855208397,0.1309098000638187,6.0,4.473262500017881,,,,,,,551.6752594001591,551.6752594001591,563.7752094999887,563.7752094999887,,,,5749,Moral,2025-02-17_16h50.05.021,MoralCondition_v2,2022.2.5,29.925560149262722,
8,0,8,0,1,0,1,0,,,,,,,,,,,,,,,,,,,,,,,,,,,,,,,,,,,,,,,,,,,,,,,,,,,580.3750983001664,580.3750983001664,0.0065033999271690845,0.09934630012139678,2.0,2.8767631999216974,,,,,,,,,,,,,,5749,Moral,2025-02-17_16h50.05.021,MoralCondition_v2,2022.2.5,29.925560149262722,
8,0,8,0,2,0,2,0,,,,,,,,,,,,,,,,,,,,,,,,,,,,,,,,,,,,,,,,,,,,,,,,,,,583.2915731999092,583.2915731999092,0.005587200168520212,0.09920880012214184,7.0,3.444603899959475,,,,,,,,,,,,,,5749,Moral,2025-02-17_16h50.05.021,MoralCondition_v2,2022.2.5,29.925560149262722,
8,0,8,0,3,0,3,0,,,,,,,,,,,,,,,,,,,,,,,,,,,,,,,,,,,,,,,,,,,,,,,,,,,586.7749757999554,586.7749757999554,0.0065981000661849976,0.09926940035074949,6.0,1.6270111999474466,,,,,,,,,,,,,,5749,Moral,2025-02-17_16h50.05.021,MoralCondition_v2,2022.2.5,29.925560149262722,
8,0,8,0,4,0,4,0,,,,,,,,,,,,,,,,,,,,,,,,,,,,,,,,,,,,,,,,,,,,,,,,,,,588.441754899919,588.441754899919,0.008702700026333332,0.0971993999555707,5.0,2.1228076997213066,,,,,,,,,,,,,,5749,Moral,2025-02-17_16h50.05.021,MoralCondition_v2,2022.2.5,29.925560149262722,
8,0,8,0,5,0,5,0,,,,,,,,,,,,,,,,,,,,,,,,,,,,,,,,,,,,,,,,,,,,,,,,,,,590.6083849999122,590.6083849999122,0.007976800203323364,0.09758340008556843,7.0,2.357378199696541,,,,,,,,,,,,,,5749,Moral,2025-02-17_16h50.05.021,MoralCondition_v2,2022.2.5,29.925560149262722,
8,0,8,0,6,0,6,0,,,,,,,,,,,,,,,,,,,,,,,,,,,,,,,,,,,,,,,,,,,,,,,,,,,593.008387400303,593.008387400303,0.007931000087410212,0.09855249989777803,5.0,2.4918140997178853,,,,,,,,,,,,,,5749,Moral,2025-02-17_16h50.05.021,MoralCondition_v2,2022.2.5,29.925560149262722,
8,0,8,0,,,,,,,,,,,,,,,,,,,,,,,,,,,,,,,,,,,,,,,,,,,,,,,,,,,,,,,,,,,,,595.5417281999253,595.5417281999253,0.0014023003168404102,0.09773920010775328,2.0,2.730803200043738,,,,,,,,5749,Moral,2025-02-17_16h50.05.021,MoralCondition_v2,2022.2.5,29.925560149262722,
9,0,9,0,0,0,0,0,,,,,,,,,,,,,,,,,,,,598.3087639003061,0.00035060010850429535,0.09763390012085438,604.3084042998962,6.030986600089818,604.4917045999318,604.4917045999318,0.07369770016521215,0.18110670009627938,6.014502900186926,610.5919551001862,610.5919551001862,610.5919551001862,0.06967609981074929,0.1811464000493288,616.2916770000011,616.4916909001768,6.014250800013542,6.114172500092536,622.4916988001205,12.014263299759477,622.6251608002931,622.6251608002931,0.014551599975675344,0.11415839986875653,down,1.0478766998276114,623.724998800084,7.079960778355598e-05,0.09805999975651503,,629.7583456002176,629.7583456002176,0.026766099967062473,0.131358299870044,7.0,3.472415499854833,,,,,,,610.4917055000551,610.4917055000551,622.5918621001765,622.5918621001765,,,,5749,Moral,2025-02-17_16h50.05.021,MoralCondition_v2,2022.2.5,29.925560149262722,
9,0,9,0,1,0,1,0,,,,,,,,,,,,,,,,,,,,,,,,,,,,,,,,,,,,,,,,,,,,,,,,,,,633.2752268002369,633.2752268002369,0.008183700032532215,0.11393149988725781,7.0,1.9733773996122181,,,,,,,,,,,,,,5749,Moral,2025-02-17_16h50.05.021,MoralCondition_v2,2022.2.5,29.925560149262722,
9,0,9,0,2,0,2,0,,,,,,,,,,,,,,,,,,,,,,,,,,,,,,,,,,,,,,,,,,,,,,,,,,,635.2917535998859,635.2917535998859,0.007760300301015377,0.11410450004041195,6.0,4.807489899918437,,,,,,,,,,,,,,5749,Moral,2025-02-17_16h50.05.021,MoralCondition_v2,2022.2.5,29.925560149262722,
9,0,9,0,3,0,3,0,,,,,,,,,,,,,,,,,,,,,,,,,,,,,,,,,,,,,,,,,,,,,,,,,,,640.1249029999599,640.1249029999599,0.007619800046086311,0.09778290009126067,5.0,5.6578571000136435,,,,,,,,,,,,,,5749,Moral,2025-02-17_16h50.05.021,MoralCondition_v2,2022.2.5,29.925560149262722,
9,0,9,0,4,0,4,0,,,,,,,,,,,,,,,,,,,,,,,,,,,,,,,,,,,,,,,,,,,,,,,,,,,645.8417822001502,645.8417822001502,0.008221700321882963,0.11435070028528571,5.0,6.641069000121206,,,,,,,,,,,,,,5749,Moral,2025-02-17_16h50.05.021,MoralCondition_v2,2022.2.5,29.925560149262722,
9,0,9,0,5,0,5,0,,,,,,,,,,,,,,,,,,,,,,,,,,,,,,,,,,,,,,,,,,,,,,,,,,,652.5081330998801,652.5081330998801,0.007190899923443794,0.09859870001673698,1.0,1.658764399588108,,,,,,,,,,,,,,5749,Moral,2025-02-17_16h50.05.021,MoralCondition_v2,2022.2.5,29.925560149262722,
9,0,9,0,6,0,6,0,,,,,,,,,,,,,,,,,,,,,,,,,,,,,,,,,,,,,,,,,,,,,,,,,,,654.2083109999076,654.2083109999076,0.007401700131595135,0.09783550025895238,7.0,1.491478499956429,,,,,,,,,,,,,,5749,Moral,2025-02-17_16h50.05.021,MoralCondition_v2,2022.2.5,29.925560149262722,
9,0,9,0,,,,,,,,,,,,,,,,,,,,,,,,,,,,,,,,,,,,,,,,,,,,,,,,,,,,,,,,,,,,,655.7417549001984,655.7417549001984,0.0014508003368973732,0.09739910019561648,1.0,2.1305920998565853,,,,,,,,5749,Moral,2025-02-17_16h50.05.021,MoralCondition_v2,2022.2.5,29.925560149262722,
10,0,10,0,0,0,0,0,,,,,,,,,,,,,,,,,,,,657.9084059000015,0.00013799965381622314,0.09921969985589385,663.9083146001212,5.999059899710119,664.0746554001234,664.0746554001234,0.06432579969987273,0.16560339974239469,5.999004299752414,670.1747364001349,670.1747364001349,670.1747364001349,0.0542604997754097,0.16586609976366162,675.8747871001251,676.1080979001708,6.032291499432176,6.132293899543583,682.1081000999548,12.032310999464244,682.2414567000233,682.2414567000233,0.03238769946619868,0.13224949967116117,up,1.51189999980852,683.8081127000041,4.4300220906734467e-05,0.09804910002276301,689.8247797000222,689.8247797000222,689.8247797000222,0.009671200066804886,0.11476150015369058,4.0,5.472884899936616,,,,,,,670.0748304999433,670.0748304999433,682.1747196000069,682.1747196000069,6.099135499913245,6.099027599673718,,5749,Moral,2025-02-17_16h50.05.021,MoralCondition_v2,2022.2.5,29.925560149262722,
10,0,10,0,1,0,1,0,,,,,,,,,,,,,,,,,,,,,,,,,,,,,,,,,,,,,,,,,,,,,,,,,,,695.3248638003133,695.3248638003133,0.0076661002822220325,0.09811120014637709,5.0,3.624888699967414,,,,,,,,,,,,,,5749,Moral,2025-02-17_16h50.05.021,MoralCondition_v2,2022.2.5,29.925560149262722,
10,0,10,0,2,0,2,0,,,,,,,,,,,,,,,,,,,,,,,,,,,,,,,,,,,,,,,,,,,,,,,,,,,698.991170400288,698.991170400288,0.00677519990131259,0.09743349999189377,5.0,6.758284099865705,,,,,,,,,,,,,,5749,Moral,2025-02-17_16h50.05.021,MoralCondition_v2,2022.2.5,29.925560149262722,
10,0,10,0,3,0,3,0,,,,,,,,,,,,,,,,,,,,,,,,,,,,,,,,,,,,,,,,,,,,,,,,,,,705.791385800112,705.791385800112,0.008733099792152643,0.09754680003970861,3.0,5.989723999984562,,,,,,,,,,,,,,5749,Moral,2025-02-17_16h50.05.021,MoralCondition_v2,2022.2.5,29.925560149262722,
10,0,10,0,4,0,4,0,,,,,,,,,,,,,,,,,,,,,,,,,,,,,,,,,,,,,,,,,,,,,,,,,,,711.8251435002312,711.8251435002312,0.007153799757361412,0.09812369989231229,6.0,4.591959900222719,,,,,,,,,,,,,,5749,Moral,2025-02-17_16h50.05.021,MoralCondition_v2,2022.2.5,29.925560149262722,
10,0,10,0,5,0,5,0,,,,,,,,,,,,,,,,,,,,,,,,,,,,,,,,,,,,,,,,,,,,,,,,,,,716.4748364002444,716.4748364002444,0.007772000040858984,0.11451900005340576,5.0,4.007572500035167,,,,,,,,,,,,,,5749,Moral,2025-02-17_16h50.05.021,MoralCondition_v2,2022.2.5,29.925560149262722,
10,0,10,0,6,0,6,0,,,,,,,,,,,,,,,,,,,,,,,,,,,,,,,,,,,,,,,,,,,,,,,,,,,720.5081199998967,720.5081199998967,0.00667419983074069,0.09907489968463778,4.0,3.1937321997247636,,,,,,,,,,,,,,5749,Moral,2025-02-17_16h50.05.021,MoralCondition_v2,2022.2.5,29.925560149262722,
10,0,10,0,,,,,,,,,,,,,,,,,,,,,,,,,,,,,,,,,,,,,,,,,,,,,,,,,,,,,,,,,,,,,723.7412812002003,723.7412812002003,0.0013210996985435486,0.09684689994901419,7.0,2.9634638000279665,,,,,,,,5749,Moral,2025-02-17_16h50.05.021,MoralCondition_v2,2022.2.5,29.925560149262722,
11,0,11,0,0,0,0,0,,,,,,,,,,,,,,,,,,,,726.7414347003214,0.0002720998600125313,0.09758279984816909,732.7412397000007,6.030922299716622,733.0080980001949,733.0080980001949,0.14648129977285862,0.2642441997304559,6.0141855999827385,739.0247341003269,739.0247341003269,739.0247341003269,0.07450789958238602,0.180957299657166,744.724499499891,744.9245814001188,6.014260699506849,6.114350299816579,750.9244544999674,12.014134799595922,751.0577576002106,751.0577576002106,0.014313599560409784,0.11412529973313212,up,1.4952092999592423,752.607821600046,6.739981472492218e-05,0.09776729997247458,,758.6409792001359,758.6409792001359,0.02744909981265664,0.13126289984211326,2.0,4.871582000050694,,,,,,,,,751.0244444999844,751.0244444999844,,,,5749,Moral,2025-02-17_16h50.05.021,MoralCondition_v2,2022.2.5,29.925560149262722,
11,0,11,0,1,0,1,0,,,,,,,,,,,,,,,,,,,,,,,,,,,,,,,,,,,,,,,,,,,,,,,,,,,763.5578832998872,763.5578832998872,0.008015899918973446,0.11451529990881681,5.0,2.24081140011549,,,,,,,,,,,,,,5749,Moral,2025-02-17_16h50.05.021,MoralCondition_v2,2022.2.5,29.925560149262722,
11,0,11,0,2,0,2,0,,,,,,,,,,,,,,,,,,,,,,,,,,,,,,,,,,,,,,,,,,,,,,,,,,,765.8246414000168,765.8246414000168,0.007611200213432312,0.09801060007885098,6.0,2.0913478997536004,,,,,,,,,,,,,,5749,Moral,2025-02-17_16h50.05.021,MoralCondition_v2,2022.2.5,29.925560149262722,
11,0,11,0,3,0,3,0,,,,,,,,,,,,,,,,,,,,,,,,,,,,,,,,,,,,,,,,,,,,,,,,,,,767.9577240999788,767.9577240999788,0.0077056000009179115,0.09811130026355386,5.0,2.657892200164497,,,,,,,,,,,,,,5749,Moral,2025-02-17_16h50.05.021,MoralCondition_v2,2022.2.5,29.925560149262722,
11,0,11,0,4,0,4,0,,,,,,,,,,,,,,,,,,,,,,,,,,,,,,,,,,,,,,,,,,,,,,,,,,,770.674692099914,770.674692099914,0.008039399981498718,0.11417189985513687,3.0,5.007180399727076,,,,,,,,,,,,,,5749,Moral,2025-02-17_16h50.05.021,MoralCondition_v2,2022.2.5,29.925560149262722,
11,0,11,0,5,0,5,0,,,,,,,,,,,,,,,,,,,,,,,,,,,,,,,,,,,,,,,,,,,,,,,,,,,775.7078895000741,775.7078895000741,0.007925100158900023,0.09745420003309846,6.0,3.957287199795246,,,,,,,,,,,,,,5749,Moral,2025-02-17_16h50.05.021,MoralCondition_v2,2022.2.5,29.925560149262722,
11,0,11,0,6,0,6,0,,,,,,,,,,,,,,,,,,,,,,,,,,,,,,,,,,,,,,,,,,,,,,,,,,,779.7076567001641,779.7076567001641,0.007688700221478939,0.09785440005362034,3.0,2.4910130999051034,,,,,,,,,,,,,,5749,Moral,2025-02-17_16h50.05.021,MoralCondition_v2,2022.2.5,29.925560149262722,
11,0,11,0,,,,,,,,,,,,,,,,,,,,,,,,,,,,,,,,,,,,,,,,,,,,,,,,,,,,,,,,,,,,,782.2411886001937,782.2411886001937,0.001483200117945671,0.09750859998166561,2.0,2.3635805998928845,,,,,,,,5749,Moral,2025-02-17_16h50.05.021,MoralCondition_v2,2022.2.5,29.925560149262722,
12,0,12,0,0,0,0,0,,,,,,,,,,,,,,,,,,,,784.6413775999099,0.00030670035630464554,0.09767260029911995,790.6409912998788,6.03109240019694,790.840919600334,790.840919600334,0.09967110026627779,0.1979920999146998,6.030934399925172,796.94115530001,796.94115530001,796.94115530001,0.08490080013871193,0.19768649991601706,802.6408135001548,802.840924799908,6.030959600117058,6.130955600179732,808.8411783003248,12.031220700126141,808.9742383002304,808.9742383002304,0.031090999953448772,0.13085759989917278,up,2.2508653001859784,811.2742662001401,3.639981150627136e-05,0.09758220007643104,,817.2907259999774,817.2907259999774,0.024199599865823984,0.11427409993484616,6.0,4.524439100176096,,,,,,,796.8409561002627,796.8409561002627,808.940903800074,808.940903800074,,,,5749,Moral,2025-02-17_16h50.05.021,MoralCondition_v2,2022.2.5,29.925560149262722,
12,0,12,0,1,0,1,0,,,,,,,,,,,,,,,,,,,,,,,,,,,,,,,,,,,,,,,,,,,,,,,,,,,821.8575691003352,821.8575691003352,0.008919800166040659,0.09736250014975667,6.0,2.1561119998805225,,,,,,,,,,,,,,5749,Moral,2025-02-17_16h50.05.021,MoralCondition_v2,2022.2.5,29.925560149262722,
12,0,12,0,2,0,2,0,,,,,,,,,,,,,,,,,,,,,,,,,,,,,,,,,,,,,,,,,,,,,,,,,,,824.0574424001388,824.0574424001388,0.007580699864774942,0.09789039986208081,2.0,3.491375799756497,,,,,,,,,,,,,,5749,Moral,2025-02-17_16h50.05.021,MoralCondition_v2,2022.2.5,29.925560149262722,
12,0,12,0,3,0,3,0,,,,,,,,,,,,,,,,,,,,,,,,,,,,,,,,,,,,,,,,,,,,,,,,,,,827.6074610999785,827.6074610999785,0.008390800096094608,0.11460690014064312,6.0,2.5741292000748217,,,,,,,,,,,,,,5749,Moral,2025-02-17_16h50.05.021,MoralCondition_v2,2022.2.5,29.925560149262722,
12,0,12,0,4,0,4,0,,,,,,,,,,,,,,,,,,,,,,,,,,,,,,,,,,,,,,,,,,,,,,,,,,,830.2074668002315,830.2074668002315,0.007559400051832199,0.0981505997478962,2.0,4.124795999843627,,,,,,,,,,,,,,5749,Moral,2025-02-17_16h50.05.021,MoralCondition_v2,2022.2.5,29.925560149262722,
12,0,12,0,5,0,5,0,,,,,,,,,,,,,,,,,,,,,,,,,,,,,,,,,,,,,,,,,,,,,,,,,,,834.3739994000643,834.3739994000643,0.007637999951839447,0.09781309962272644,5.0,3.5243122996762395,,,,,,,,,,,,,,5749,Moral,2025-02-17_16h50.05.021,MoralCondition_v2,2022.2.5,29.925560149262722,
12,0,12,0,6,0,6,0,,,,,,,,,,,,,,,,,,,,,,,,,,,,,,,,,,,,,,,,,,,,,,,,,,,837.9406791999936,837.9406791999936,0.007475599646568298,0.09785520005971193,3.0,4.158038999885321,,,,,,,,,,,,,,5749,Moral,2025-02-17_16h50.05.021,MoralCondition_v2,2022.2.5,29.925560149262722,
12,0,12,0,,,,,,,,,,,,,,,,,,,,,,,,,,,,,,,,,,,,,,,,,,,,,,,,,,,,,,,,,,,,,842.1407945002429,842.1407945002429,0.0014729001559317112,0.09761030040681362,2.0,2.6973846000619233,,,,,,,,5749,Moral,2025-02-17_16h50.05.021,MoralCondition_v2,2022.2.5,29.925560149262722,
13,0,13,0,0,0,0,0,,,,,,,,,,,,,,,,,,,,844.8743639001623,0.0003804001025855541,0.0974166002124548,850.8742021000944,6.030729100108147,851.0575828999281,851.0575828999281,0.07498509995639324,0.18077229987829924,6.014160799793899,857.1574574001133,857.1574574001133,857.1574574001133,0.06993529992178082,0.18076709983870387,862.857394900173,863.0573936002329,6.013934199698269,6.113852099981159,869.0573589000851,12.013897099997848,869.1906674001366,869.1906674001366,0.01399899972602725,0.11382909957319498,up,1.9703004998154938,871.224110300187,4.590023308992386e-05,0.09799390006810427,,877.2576966001652,877.2576966001652,0.02599200000986457,0.13137490022927523,2.0,3.2731447000987828,,,,,,,857.057379799895,857.057379799895,869.1573081999086,869.1573081999086,,,,5749,Moral,2025-02-17_16h50.05.021,MoralCondition_v2,2022.2.5,29.925560149262722,
13,0,13,0,1,0,1,0,,,,,,,,,,,,,,,,,,,,,,,,,,,,,,,,,,,,,,,,,,,,,,,,,,,880.5571717000566,880.5571717000566,0.007471300195902586,0.0981092001311481,3.0,2.891460800077766,,,,,,,,,,,,,,5749,Moral,2025-02-17_16h50.05.021,MoralCondition_v2,2022.2.5,29.925560149262722,
13,0,13,0,2,0,2,0,,,,,,,,,,,,,,,,,,,,,,,,,,,,,,,,,,,,,,,,,,,,,,,,,,,883.5074885999784,883.5074885999784,0.01039199996739626,0.11376580037176609,5.0,3.17132080020383,,,,,,,,,,,,,,5749,Moral,2025-02-17_16h50.05.021,MoralCondition_v2,2022.2.5,29.925560149262722,
13,0,13,0,3,0,3,0,,,,,,,,,,,,,,,,,,,,,,,,,,,,,,,,,,,,,,,,,,,,,,,,,,,886.707156599965,886.707156599965,0.0076871998608112335,0.09796050004661083,2.0,2.991158800199628,,,,,,,,,,,,,,5749,Moral,2025-02-17_16h50.05.021,MoralCondition_v2,2022.2.5,29.925560149262722,
13,0,13,0,4,0,4,0,,,,,,,,,,,,,,,,,,,,,,,,,,,,,,,,,,,,,,,,,,,,,,,,,,,889.7574869003147,889.7574869003147,0.008528799749910831,0.1145524000748992,6.0,2.2736039999872446,,,,,,,,,,,,,,5749,Moral,2025-02-17_16h50.05.021,MoralCondition_v2,2022.2.5,29.925560149262722,
13,0,13,0,5,0,5,0,,,,,,,,,,,,,,,,,,,,,,,,,,,,,,,,,,,,,,,,,,,,,,,,,,,892.0738849001937,892.0738849001937,0.01007720036432147,0.11584040010347962,6.0,1.7734918999485672,,,,,,,,,,,,,,5749,Moral,2025-02-17_16h50.05.021,MoralCondition_v2,2022.2.5,29.925560149262722,
13,0,13,0,6,0,6,0,,,,,,,,,,,,,,,,,,,,,,,,,,,,,,,,,,,,,,,,,,,,,,,,,,,893.8739678002894,893.8739678002894,0.006619399879127741,0.09909329982474446,7.0,3.360101700294763,,,,,,,,,,,,,,5749,Moral,2025-02-17_16h50.05.021,MoralCondition_v2,2022.2.5,29.925560149262722,
13,0,13,0,,,,,,,,,,,,,,,,,,,,,,,,,,,,,,,,,,,,,,,,,,,,,,,,,,,,,,,,,,,,,897.2738272002898,897.2738272002898,0.0017543002031743526,0.09737830003723502,2.0,2.66369489999488,,,,,,,,5749,Moral,2025-02-17_16h50.05.021,MoralCondition_v2,2022.2.5,29.925560149262722,
14,0,14,0,0,0,0,0,,,,,,,,,,,,,,,,,,,,899.9740507001989,0.0001354999840259552,0.09940110007300973,905.9739310001023,5.999275799840689,906.1572444001213,906.1572444001213,0.06903199991211295,0.1826384998857975,6.015916099771857,912.2571447999217,912.2571447999217,912.2571447999217,0.07956729969009757,0.18273729970678687,917.957270800136,918.1571225998923,6.01590559957549,6.115916899871081,924.1572433998808,12.016039199661463,924.2904664999805,924.2904664999805,0.016080299858003855,0.1159941996447742,up,0.5984628000296652,924.9237613999285,4.359986633062363e-05,0.09760369965806603,,930.9402536000125,930.9402536000125,0.025208099745213985,0.11423319997265935,1.0,3.390097599942237,,,,,,,912.1571390000172,912.1571390000172,924.2571058003232,924.2571058003232,6.099248599726707,,,5749,Moral,2025-02-17_16h50.05.021,MoralCondition_v2,2022.2.5,29.925560149262722,
14,0,14,0,1,0,1,0,,,,,,,,,,,,,,,,,,,,,,,,,,,,,,,,,,,,,,,,,,,,,,,,,,,934.3739090003073,934.3739090003073,0.007590500172227621,0.09766690013930202,6.0,4.42461990006268,,,,,,,,,,,,,,5749,Moral,2025-02-17_16h50.05.021,MoralCondition_v2,2022.2.5,29.925560149262722,
14,0,14,0,2,0,2,0,,,,,,,,,,,,,,,,,,,,,,,,,,,,,,,,,,,,,,,,,,,,,,,,,,,938.8403427000158,938.8403427000158,0.007787100039422512,0.0975675000809133,5.0,5.1242017997428775,,,,,,,,,,,,,,5749,Moral,2025-02-17_16h50.05.021,MoralCondition_v2,2022.2.5,29.925560149262722,
14,0,14,0,3,0,3,0,,,,,,,,,,,,,,,,,,,,,,,,,,,,,,,,,,,,,,,,,,,,,,,,,,,944.0071600000374,944.0071600000374,0.007104900199919939,0.09899780014529824,3.0,2.8594768000766635,,,,,,,,,,,,,,5749,Moral,2025-02-17_16h50.05.021,MoralCondition_v2,2022.2.5,29.925560149262722,
14,0,14,0,4,0,4,0,,,,,,,,,,,,,,,,,,,,,,,,,,,,,,,,,,,,,,,,,,,,,,,,,,,946.9070065002888,946.9070065002888,0.008335900027304888,0.09806440025568008,4.0,2.8245732998475432,,,,,,,,,,,,,,5749,Moral,2025-02-17_16h50.05.021,MoralCondition_v2,2022.2.5,29.925560149262722,
14,0,14,0,5,0,5,0,,,,,,,,,,,,,,,,,,,,,,,,,,,,,,,,,,,,,,,,,,,,,,,,,,,949.7737556002103,949.7737556002103,0.0068131000734865665,0.09932509995996952,1.0,4.126872799824923,,,,,,,,,,,,,,5749,Moral,2025-02-17_16h50.05.021,MoralCondition_v2,2022.2.5,29.925560149262722,
14,0,14,0,6,0,6,0,,,,,,,,,,,,,,,,,,,,,,,,,,,,,,,,,,,,,,,,,,,,,,,,,,,953.9403472999111,953.9403472999111,0.007458099629729986,0.09806929994374514,6.0,2.0919705000706017,,,,,,,,,,,,,,5749,Moral,2025-02-17_16h50.05.021,MoralCondition_v2,2022.2.5,29.925560149262722,
14,0,14,0,,,,,,,,,,,,,,,,,,,,,,,,,,,,,,,,,,,,,,,,,,,,,,,,,,,,,,,,,,,,,956.0735345003195,956.0735345003195,0.0017846999689936638,0.09756630007177591,7.0,2.0300379996187985,,,,,,,,5749,Moral,2025-02-17_16h50.05.021,MoralCondition_v2,2022.2.5,29.925560149262722,
15,0,15,0,0,0,0,0,,,,,,,,,,,,,,,,,,,,958.1406546998769,0.00013330020010471344,0.09912180015817285,964.1402631001547,5.999132800381631,964.3068715003319,964.3068715003319,0.06225880002602935,0.16603709990158677,5.999393800273538,970.4069509003311,970.4069509003311,970.4069509003311,0.052939699962735176,0.1657881997525692,976.106931200251,976.3070098999888,5.999237599782646,6.099316000007093,982.3070121998899,11.999241400044411,982.4400961003266,982.4400961003266,-0.0002505001612007618,0.09939950006082654,up,1.3136309999972582,983.7901558000594,3.640027716755867e-05,0.09774450026452541,989.8069029999897,989.8069029999897,989.8069029999897,0.009645600337535143,0.11451110010966659,1.0,3.6059368001297116,,,,,,,970.3069103001617,970.3069103001617,982.4069586000405,982.4069586000405,6.099109699949622,6.099145700223744,12.099208700004965,5749,Moral,2025-02-17_16h50.05.021,MoralCondition_v2,2022.2.5,29.925560149262722,
15,0,15,0,1,0,1,0,,,,,,,,,,,,,,,,,,,,,,,,,,,,,,,,,,,,,,,,,,,,,,,,,,,993.4401674000546,993.4401674000546,0.007469499949365854,0.09758169995620847,2.0,2.191280399914831,,,,,,,,,,,,,,5749,Moral,2025-02-17_16h50.05.021,MoralCondition_v2,2022.2.5,29.925560149262722,
15,0,15,0,2,0,2,0,,,,,,,,,,,,,,,,,,,,,,,,,,,,,,,,,,,,,,,,,,,,,,,,,,,995.6734003000893,995.6734003000893,0.007548199966549873,0.097858099732548,5.0,3.0589397996664047,,,,,,,,,,,,,,5749,Moral,2025-02-17_16h50.05.021,MoralCondition_v2,2022.2.5,29.925560149262722,
15,0,15,0,3,0,3,0,,,,,,,,,,,,,,,,,,,,,,,,,,,,,,,,,,,,,,,,,,,,,,,,,,,998.7735848999582,998.7735848999582,0.0063032000325620174,0.09893290000036359,7.0,2.2603743001818657,,,,,,,,,,,,,,5749,Moral,2025-02-17_16h50.05.021,MoralCondition_v2,2022.2.5,29.925560149262722,
15,0,15,0,4,0,4,0,,,,,,,,,,,,,,,,,,,,,,,,,,,,,,,,,,,,,,,,,,,,,,,,,,,1001.0733596999198,1001.0733596999198,0.007707799784839153,0.09788589971140027,5.0,6.891006399877369,,,,,,,,,,,,,,5749,Moral,2025-02-17_16h50.05.021,MoralCondition_v2,2022.2.5,29.925560149262722,
15,0,15,0,5,0,5,0,,,,,,,,,,,,,,,,,,,,,,,,,,,,,,,,,,,,,,,,,,,,,,,,,,,1008.0066674998961,1008.0066674998961,0.006353499833494425,0.09930210001766682,4.0,7.760486699640751,,,,,,,,,,,,,,5749,Moral,2025-02-17_16h50.05.021,MoralCondition_v2,2022.2.5,29.925560149262722,
15,0,15,0,6,0,6,0,,,,,,,,,,,,,,,,,,,,,,,,,,,,,,,,,,,,,,,,,,,,,,,,,,,1015.8066839003004,1015.8066839003004,0.006796099711209536,0.09940339997410774,5.0,3.960033900104463,,,,,,,,,,,,,,5749,Moral,2025-02-17_16h50.05.021,MoralCondition_v2,2022.2.5,29.925560149262722,
15,0,15,0,,,,,,,,,,,,,,,,,,,,,,,,,,,,,,,,,,,,,,,,,,,,,,,,,,,,,,,,,,,,,1019.8066950002685,1019.8066950002685,0.0012827999889850616,0.09797420026734471,2.0,1.9977288004010916,,,,,,,,5749,Moral,2025-02-17_16h50.05.021,MoralCondition_v2,2022.2.5,29.925560149262722,
16,0,16,0,0,0,0,0,,,,,,,,,,,,,,,,,,,,1021.8405806999654,0.000381499994546175,0.0970940999686718,1027.8399952999316,6.030437000095844,1028.040066699963,1028.040066699963,0.09264859976246953,0.19716320000588894,6.030370899941772,1034.140167400241,1034.140167400241,1034.140167400241,0.08321629976853728,0.19742169976234436,1039.839976000134,1040.0403020000085,6.030771699734032,6.1303286999464035,1046.039928200189,12.030374199617654,1046.1732264002785,1046.1732264002785,0.03049349971115589,0.1303329998627305,down,1.2601438001729548,1047.473340400029,3.8300175219774246e-05,0.09798320010304451,,1053.4904400999658,1053.4904400999658,0.024807199835777283,0.11449530022218823,6.0,4.290851199999452,,,,,,,1034.0402325000614,1034.0402325000614,1046.139873899985,1046.139873899985,,,,5749,Moral,2025-02-17_16h50.05.021,MoralCondition_v2,2022.2.5,29.925560149262722,
16,0,16,0,1,0,1,0,,,,,,,,,,,,,,,,,,,,,,,,,,,,,,,,,,,,,,,,,,,,,,,,,,,1057.8230942999944,1057.8230942999944,0.0065878997556865215,0.09911389974877238,7.0,1.5268347999081016,,,,,,,,,,,,,,5749,Moral,2025-02-17_16h50.05.021,MoralCondition_v2,2022.2.5,29.925560149262722,
16,0,16,0,2,0,2,0,,,,,,,,,,,,,,,,,,,,,,,,,,,,,,,,,,,,,,,,,,,,,,,,,,,1059.3897080998868,1059.3897080998868,0.0068581001833081245,0.0992066003382206,1.0,2.426941600162536,,,,,,,,,,,,,,5749,Moral,2025-02-17_16h50.05.021,MoralCondition_v2,2022.2.5,29.925560149262722,
16,0,16,0,3,0,3,0,,,,,,,,,,,,,,,,,,,,,,,,,,,,,,,,,,,,,,,,,,,,,,,,,,,1061.8564198999666,1061.8564198999666,0.007913700304925442,0.09798389999195933,6.0,3.890862400177866,,,,,,,,,,,,,,5749,Moral,2025-02-17_16h50.05.021,MoralCondition_v2,2022.2.5,29.925560149262722,
16,0,16,0,4,0,4,0,,,,,,,,,,,,,,,,,,,,,,,,,,,,,,,,,,,,,,,,,,,,,,,,,,,1065.8064752002247,1065.8064752002247,0.009199199732393026,0.11510990001261234,5.0,2.639964499976486,,,,,,,,,,,,,,5749,Moral,2025-02-17_16h50.05.021,MoralCondition_v2,2022.2.5,29.925560149262722,
16,0,16,0,5,0,5,0,,,,,,,,,,,,,,,,,,,,,,,,,,,,,,,,,,,,,,,,,,,,,,,,,,,1068.4731486001983,1068.4731486001983,0.007482199929654598,0.09764839988201857,5.0,3.724558100104332,,,,,,,,,,,,,,5749,Moral,2025-02-17_16h50.05.021,MoralCondition_v2,2022.2.5,29.925560149262722,
16,0,16,0,6,0,6,0,,,,,,,,,,,,,,,,,,,,,,,,,,,,,,,,,,,,,,,,,,,,,,,,,,,1072.2397138001397,1072.2397138001397,0.006957499776035547,0.09925899980589747,7.0,2.2935278001241386,,,,,,,,,,,,,,5749,Moral,2025-02-17_16h50.05.021,MoralCondition_v2,2022.2.5,29.925560149262722,
16,0,16,0,,,,,,,,,,,,,,,,,,,,,,,,,,,,,,,,,,,,,,,,,,,,,,,,,,,,,,,,,,,,,1074.5730371000245,1074.5730371000245,0.0007242001593112946,0.09923590021207929,1.0,2.199701299890876,,,,,,,,5749,Moral,2025-02-17_16h50.05.021,MoralCondition_v2,2022.2.5,29.925560149262722,
17,0,17,0,0,0,0,0,,,,,,,,,,,,,,,,,,,,1076.8067180002108,0.00028769997879862785,0.09739660006016493,1082.8026525001042,6.010552200023085,1083.0064499001019,1083.0064499001019,0.08942349953576922,0.1983710997737944,6.031131599564105,1089.1063612001017,1089.1063612001017,1089.1063612001017,0.08936709957197309,0.19758269982412457,1094.8064296999946,1095.006370600313,6.030948699451983,6.130662199575454,1101.0063632000238,12.030942199751735,1101.122855500318,1101.122855500318,0.03090549958869815,0.11418799962848425,up,1.0625235000625253,1102.2230769000016,2.019992098212242e-05,0.09919629991054535,1108.2401087000035,1108.2401087000035,1108.2401087000035,0.009726000018417835,0.11587730003520846,7.0,1.8074523997493088,,,,,,,1089.0064143002965,1089.0064143002965,1101.106277700048,1101.106277700048,6.097320399712771,,,5749,Moral,2025-02-17_16h50.05.021,MoralCondition_v2,2022.2.5,29.925560149262722,
17,0,17,0,1,0,1,0,,,,,,,,,,,,,,,,,,,,,,,,,,,,,,,,,,,,,,,,,,,,,,,,,,,1110.0729630999267,1110.0729630999267,0.007399400230497122,0.098541300278157,3.0,3.858230700250715,,,,,,,,,,,,,,5749,Moral,2025-02-17_16h50.05.021,MoralCondition_v2,2022.2.5,29.925560149262722,
17,0,17,0,2,0,2,0,,,,,,,,,,,,,,,,,,,,,,,,,,,,,,,,,,,,,,,,,,,,,,,,,,,1113.990229099989,1113.990229099989,0.00767680024728179,0.11443370021879673,1.0,2.6410497003234923,,,,,,,,,,,,,,5749,Moral,2025-02-17_16h50.05.021,MoralCondition_v2,2022.2.5,29.925560149262722,
17,0,17,0,3,0,3,0,,,,,,,,,,,,,,,,,,,,,,,,,,,,,,,,,,,,,,,,,,,,,,,,,,,1116.6734270001762,1116.6734270001762,0.008090700022876263,0.11428899969905615,2.0,2.5742180002853274,,,,,,,,,,,,,,5749,Moral,2025-02-17_16h50.05.021,MoralCondition_v2,2022.2.5,29.925560149262722,
17,0,17,0,4,0,4,0,,,,,,,,,,,,,,,,,,,,,,,,,,,,,,,,,,,,,,,,,,,,,,,,,,,1119.2729768999852,1119.2729768999852,0.007012699730694294,0.09926579985767603,5.0,2.6596845001913607,,,,,,,,,,,,,,5749,Moral,2025-02-17_16h50.05.021,MoralCondition_v2,2022.2.5,29.925560149262722,
17,0,17,0,5,0,5,0,,,,,,,,,,,,,,,,,,,,,,,,,,,,,,,,,,,,,,,,,,,,,,,,,,,1121.9727297001518,1121.9727297001518,0.00662430003285408,0.09924119990319014,1.0,2.2602190002799034,,,,,,,,,,,,,,5749,Moral,2025-02-17_16h50.05.021,MoralCondition_v2,2022.2.5,29.925560149262722,
17,0,17,0,6,0,6,0,,,,,,,,,,,,,,,,,,,,,,,,,,,,,,,,,,,,,,,,,,,,,,,,,,,1124.289920100011,1124.289920100011,0.00900300033390522,0.1145601999014616,7.0,1.5730874999426305,,,,,,,,,,,,,,5749,Moral,2025-02-17_16h50.05.021,MoralCondition_v2,2022.2.5,29.925560149262722,
17,0,17,0,,,,,,,,,,,,,,,,,,,,,,,,,,,,,,,,,,,,,,,,,,,,,,,,,,,,,,,,,,,,,1125.8896123003215,1125.8896123003215,0.001339999958872795,0.0975565998815,7.0,2.7974933995865285,,,,,,,,5749,Moral,2025-02-17_16h50.05.021,MoralCondition_v2,2022.2.5,29.925560149262722,
18,0,18,0,0,0,0,0,,,,,,,,,,,,,,,,,,,,1128.7232312001288,0.00015440024435520172,0.09939130023121834,1134.72285570018,5.999335800297558,1134.9062739000656,1134.9062739000656,0.06986310007050633,0.18284380016848445,6.016050199978054,1141.0061197001487,1141.0061197001487,1141.0061197001487,0.08093779999762774,0.18289389973506331,1146.706133800093,1146.9060979001224,6.016022199764848,6.11592820007354,1152.9062268999405,12.016102700028569,1153.02257000003,1153.02257000003,0.015835599973797798,0.09927150001749396,down,0.7145479000173509,1153.7894562999718,4.559988155961037e-05,0.09788390016183257,,1159.8227558000945,1159.8227558000945,0.026581000071018934,0.13132830010727048,7.0,3.4057179000228643,,,,,,,1140.9062967002392,1140.9062967002392,1153.0059344000183,1153.0059344000183,6.099315100349486,,,5749,Moral,2025-02-17_16h50.05.021,MoralCondition_v2,2022.2.5,29.925560149262722,
18,0,18,0,1,0,1,0,,,,,,,,,,,,,,,,,,,,,,,,,,,,,,,,,,,,,,,,,,,,,,,,,,,1163.255967500154,1163.255967500154,0.006714600138366222,0.09950629994273186,6.0,3.2940124003216624,,,,,,,,,,,,,,5749,Moral,2025-02-17_16h50.05.021,MoralCondition_v2,2022.2.5,29.925560149262722,
18,0,18,0,2,0,2,0,,,,,,,,,,,,,,,,,,,,,,,,,,,,,,,,,,,,,,,,,,,,,,,,,,,1166.6062378003262,1166.6062378003262,0.008447399828583002,0.11448019975796342,6.0,3.0737926000729203,,,,,,,,,,,,,,5749,Moral,2025-02-17_16h50.05.021,MoralCondition_v2,2022.2.5,29.925560149262722,
18,0,18,0,3,0,3,0,,,,,,,,,,,,,,,,,,,,,,,,,,,,,,,,,,,,,,,,,,,,,,,,,,,1169.7059567999095,1169.7059567999095,0.007701999973505735,0.09794559981673956,1.0,1.857897600159049,,,,,,,,,,,,,,5749,Moral,2025-02-17_16h50.05.021,MoralCondition_v2,2022.2.5,29.925560149262722,
18,0,18,0,4,0,4,0,,,,,,,,,,,,,,,,,,,,,,,,,,,,,,,,,,,,,,,,,,,,,,,,,,,1171.6061591999605,1171.6061591999605,0.007476100232452154,0.09802180016413331,6.0,3.1580591001547873,,,,,,,,,,,,,,5749,Moral,2025-02-17_16h50.05.021,MoralCondition_v2,2022.2.5,29.925560149262722,
18,0,18,0,5,0,5,0,,,,,,,,,,,,,,,,,,,,,,,,,,,,,,,,,,,,,,,,,,,,,,,,,,,1174.8227122998796,1174.8227122998796,0.00802820036187768,0.11426830012351274,5.0,6.873882199637592,,,,,,,,,,,,,,5749,Moral,2025-02-17_16h50.05.021,MoralCondition_v2,2022.2.5,29.925560149262722,
18,0,18,0,6,0,6,0,,,,,,,,,,,,,,,,,,,,,,,,,,,,,,,,,,,,,,,,,,,,,,,,,,,1181.7394702001475,1181.7394702001475,0.009055900387465954,0.11517040012404323,6.0,3.0736643001437187,,,,,,,,,,,,,,5749,Moral,2025-02-17_16h50.05.021,MoralCondition_v2,2022.2.5,29.925560149262722,
18,0,18,0,,,,,,,,,,,,,,,,,,,,,,,,,,,,,,,,,,,,,,,,,,,,,,,,,,,,,,,,,,,,,1184.8393371002749,1184.8393371002749,0.001338699832558632,0.09714820003136992,1.0,3.1638793000020087,,,,,,,,5749,Moral,2025-02-17_16h50.05.021,MoralCondition_v2,2022.2.5,29.925560149262722,
19,0,19,0,0,0,0,0,,,,,,,,,,,,,,,,,,,,1188.039310600143,0.00042929966002702713,0.09763789968565106,1194.0559682003222,6.014296199660748,1194.2225971999578,1194.2225971999578,0.07507389970123768,0.1812419998459518,6.0141625995747745,1200.3227996001951,1200.3227996001951,1200.3227996001951,0.06947729969397187,0.18101899977773428,1206.0225388999097,1206.2225460000336,6.014248199760914,6.114534399472177,1212.2226196001284,12.014415999408811,1212.3558308999054,1212.3558308999054,0.014165199361741543,0.11412689927965403,up,1.5732738999649882,1213.9892102000304,8.899997919797897e-05,0.09785899985581636,,1220.0226779002696,1220.0226779002696,0.02585860015824437,0.13097469974309206,1.0,3.0396409002132714,,,,,,,1200.2226427001879,1200.2226427001879,1212.3057128000073,1212.3057128000073,,,,5749,Moral,2025-02-17_16h50.05.021,MoralCondition_v2,2022.2.5,29.925560149262722,
19,0,19,0,1,0,1,0,,,,,,,,,,,,,,,,,,,,,,,,,,,,,,,,,,,,,,,,,,,,,,,,,,,1223.0894933003,1223.0894933003,0.007457100320607424,0.09806320024654269,2.0,1.891448499634862,,,,,,,,,,,,,,5749,Moral,2025-02-17_16h50.05.021,MoralCondition_v2,2022.2.5,29.925560149262722,
19,0,19,0,2,0,2,0,,,,,,,,,,,,,,,,,,,,,,,,,,,,,,,,,,,,,,,,,,,,,,,,,,,1225.0224709999748,1225.0224709999748,0.006973200011998415,0.09925749991089106,5.0,2.959941599983722,,,,,,,,,,,,,,5749,Moral,2025-02-17_16h50.05.021,MoralCondition_v2,2022.2.5,29.925560149262722,
19,0,19,0,3,0,3,0,,,,,,,,,,,,,,,,,,,,,,,,,,,,,,,,,,,,,,,,,,,,,,,,,,,1228.0224228999577,1228.0224228999577,0.008979300037026405,0.09740980016067624,1.0,4.522791600320488,,,,,,,,,,,,,,5749,Moral,2025-02-17_16h50.05.021,MoralCondition_v2,2022.2.5,29.925560149262722,
19,0,19,0,4,0,4,0,,,,,,,,,,,,,,,,,,,,,,,,,,,,,,,,,,,,,,,,,,,,,,,,,,,1232.5889564002864,1232.5889564002864,0.006716799922287464,0.09896770026534796,2.0,3.293403400108218,,,,,,,,,,,,,,5749,Moral,2025-02-17_16h50.05.021,MoralCondition_v2,2022.2.5,29.925560149262722,
19,0,19,0,5,0,5,0,,,,,,,,,,,,,,,,,,,,,,,,,,,,,,,,,,,,,,,,,,,,,,,,,,,1235.9226482002996,1235.9226482002996,0.009636800270527601,0.09748180024325848,2.0,3.1886201999150217,,,,,,,,,,,,,,5749,Moral,2025-02-17_16h50.05.021,MoralCondition_v2,2022.2.5,29.925560149262722,
19,0,19,0,6,0,6,0,,,,,,,,,,,,,,,,,,,,,,,,,,,,,,,,,,,,,,,,,,,,,,,,,,,1239.1557599999942,1239.1557599999942,0.006909700110554695,0.09911249997094274,6.0,2.2940535000525415,,,,,,,,,,,,,,5749,Moral,2025-02-17_16h50.05.021,MoralCondition_v2,2022.2.5,29.925560149262722,
19,0,19,0,,,,,,,,,,,,,,,,,,,,,,,,,,,,,,,,,,,,,,,,,,,,,,,,,,,,,,,,,,,,,1241.4892182000913,1241.4892182000913,0.000703900121152401,0.09910700004547834,7.0,1.7663284000009298,,,,,,,,5749,Moral,2025-02-17_16h50.05.021,MoralCondition_v2,2022.2.5,29.925560149262722,
