loop.thisRepN,loop.thisTrialN,loop.thisN,loop.thisIndex,evaluate_all_emotions.thisRepN,evaluate_all_emotions.thisTrialN,evaluate_all_emotions.thisN,evaluate_all_emotions.thisIndex,sync_beep_1.started,p_port.started,p_port.stopped,sync_beep_2.started,sync_beep_2.stopped,sync_beep_3.started,sync_beep_3.stopped,sync_beep_4.started,sync_beep_4.stopped,baseline.started,p_port_2.started,p_port_2.stopped,baseline.stopped,p_port_3.started,Game_Start_Text.started,p_port_4.started,p_port_4.stopped,key_resp.started,key_resp.keys,key_resp.rt,fixation_cross.started,p_port_5.started,p_port_5.stopped,fixation_cross.stopped,p_port_6.started,player_image_intro.started,player_name_intro.started,p_port_7.started,p_port_7.stopped,p_port_8.started,player_image_offer.started,player_name_offer.started,proposed_split.started,p_port_9.started,p_port_9.stopped,proposed_split.stopped,accept_reject.started,p_port_15.started,p_port_15.stopped,accept_reject.stopped,p_port_10.started,arrow_instructions.started,offer_choice.started,p_port_11.started,p_port_11.stopped,offer_choice.keys,offer_choice.rt,Instructions_Affinity_Score.started,p_port_12.started,p_port_12.stopped,Emotion_Image.started,AffinityScore.started,p_port_13.started,p_port_13.stopped,AffinityScore.response,AffinityScore.rt,Instruction.started,Moral_Disgust_Score.started,p_port_14.started,p_port_14.stopped,Moral_Disgust_Score.response,Moral_Disgust_Score.rt,player_image_intro.stopped,player_name_intro.stopped,player_image_offer.stopped,player_name_offer.stopped,p_port_10.stopped,Instructions_Affinity_Score.stopped,p_port_6.stopped,p_port_8.stopped,participant,session,date,expName,psychopyVersion,frameRate,
,,,,,,,,14.50981165813282,0.0008323001675307751,0.11025239992886782,15.108413640223443,15.425084300339222,15.725328340008854,16.025111200287938,16.308404640108346,16.62502280017361,16.62502280017361,0.02698149997740984,0.12696370016783476,31.62504980014637,15.027027899865061,31.758376500103623,0.02716560009866953,0.1269791000522673,32.225121000315994,space,2.1930048996582627,,,,,,,,,,,,,,,,,,,,,,,,,,,,,,,,,,,,,,,,,,,,,,,,,,,5854,Moral,2025-02-20_20h17.17.811,MoralCondition_v2,2022.2.5,29.999310003631276,
0,0,0,0,0,0,0,0,,,,,,,,,,,,,,,,,,,,,34.458361600060016,0.0016572000458836555,0.09826930006965995,40.45838720025495,6.031586099881679,40.725153600331396,40.725153600331396,0.12809199979528785,0.26487099984660745,6.031521299853921,46.77497920021415,46.77497920021415,46.77497920021415,0.0892511997371912,0.21511719981208444,52.475273500196636,52.64169710036367,6.01489819958806,6.114891099743545,58.641702100168914,12.014898999594152,58.77506020013243,58.77506020013243,0.015043499879539013,0.11497969971969724,up,0.7468416998162866,59.57506240019575,5.390029400587082e-05,0.09769110009074211,65.60826190002263,65.60826190002263,0.02764310035854578,0.13087750039994717,1.0,5.354052999988198,,,,,,,,,,,,,,,5854,Moral,2025-02-20_20h17.17.811,MoralCondition_v2,2022.2.5,29.999310003631276,
0,0,0,0,1,0,1,0,,,,,,,,,,,,,,,,,,,,,,,,,,,,,,,,,,,,,,,,,,,,,,,,,,,71.00842369999737,71.00842369999737,0.02005749987438321,0.1141694001853466,1.0,2.528403699863702,,,,,,,,,,,,,,,5854,Moral,2025-02-20_20h17.17.811,MoralCondition_v2,2022.2.5,29.999310003631276,
0,0,0,0,2,0,2,0,,,,,,,,,,,,,,,,,,,,,,,,,,,,,,,,,,,,,,,,,,,,,,,,,,,73.59185680001974,73.59185680001974,0.010072000324726105,0.11436530016362667,5.0,3.6719867000356317,,,,,,,,,,,,,,,5854,Moral,2025-02-20_20h17.17.811,MoralCondition_v2,2022.2.5,29.999310003631276,
0,0,0,0,3,0,3,0,,,,,,,,,,,,,,,,,,,,,,,,,,,,,,,,,,,,,,,,,,,,,,,,,,,77.308473800309,77.308473800309,0.017950600013136864,0.11387819983065128,1.0,3.7303561996668577,,,,,,,,,,,,,,,5854,Moral,2025-02-20_20h17.17.811,MoralCondition_v2,2022.2.5,29.999310003631276,
0,0,0,0,4,0,4,0,,,,,,,,,,,,,,,,,,,,,,,,,,,,,,,,,,,,,,,,,,,,,,,,,,,81.07495969999582,81.07495969999582,0.009616800118237734,0.09782629972323775,3.0,2.2559996997006238,,,,,,,,,,,,,,,5854,Moral,2025-02-20_20h17.17.811,MoralCondition_v2,2022.2.5,29.999310003631276,
0,0,0,0,5,0,5,0,,,,,,,,,,,,,,,,,,,,,,,,,,,,,,,,,,,,,,,,,,,,,,,,,,,83.37491300003603,83.37491300003603,0.008522199932485819,0.09920910000801086,4.0,2.52510349964723,,,,,,,,,,,,,,,5854,Moral,2025-02-20_20h17.17.811,MoralCondition_v2,2022.2.5,29.999310003631276,
0,0,0,0,6,0,6,0,,,,,,,,,,,,,,,,,,,,,,,,,,,,,,,,,,,,,,,,,,,,,,,,,,,85.9586722003296,85.9586722003296,0.010174899827688932,0.11392569961026311,5.0,2.671333400066942,,,,,,,,,,,,,,,5854,Moral,2025-02-20_20h17.17.811,MoralCondition_v2,2022.2.5,29.999310003631276,
0,0,0,0,,,,,,,,,,,,,,,,,,,,,,,,,,,,,,,,,,,,,,,,,,,,,,,,,,,,,,,,,,,,,88.65847170026973,88.65847170026973,0.0019196998327970505,0.0971955000422895,7.0,6.529821900185198,,,,,,,,,5854,Moral,2025-02-20_20h17.17.811,MoralCondition_v2,2022.2.5,29.999310003631276,
1,0,1,0,0,0,0,0,,,,,,,,,,,,,,,,,,,,,95.22497580014169,0.00017730006948113441,0.0989737999625504,101.24163050018251,6.015546699985862,101.40843470022082,101.40843470022082,0.06834329990670085,0.18251519976183772,6.01554079959169,107.49159000022337,107.49159000022337,107.49159000022337,0.07047639973461628,0.16575609985738993,113.19163380004466,113.42505200020969,6.032268999610096,6.132579799741507,119.42524809995666,11.999141899868846,119.52514389995486,119.52514389995486,-0.00023860018700361252,0.09884899947792292,up,2.0612959996797144,121.64164460031316,4.020007327198982e-05,0.09785600006580353,127.64157640002668,127.64157640002668,0.00913430005311966,0.09807150019332767,5.0,6.323302499949932,,,,,,,107.40829150006175,107.40829150006175,119.49162180023268,119.49162180023268,12.098918099887669,127.64157640002668,,,5854,Moral,2025-02-20_20h17.17.811,MoralCondition_v2,2022.2.5,29.999310003631276,
1,0,1,0,1,0,1,0,,,,,,,,,,,,,,,,,,,,,,,,,,,,,,,,,,,,,,,,,,,,,,,,,,,134.00816700002179,134.00816700002179,0.006676100194454193,0.09938340028747916,6.0,6.093663400039077,,,,,,,,,,,,,,,5854,Moral,2025-02-20_20h17.17.811,MoralCondition_v2,2022.2.5,29.999310003631276,
1,0,1,0,2,0,2,0,,,,,,,,,,,,,,,,,,,,,,,,,,,,,,,,,,,,,,,,,,,,,,,,,,,140.14166470011696,140.14166470011696,0.008428100030869246,0.09810790000483394,5.0,3.257304299622774,,,,,,,,,,,,,,,5854,Moral,2025-02-20_20h17.17.811,MoralCondition_v2,2022.2.5,29.999310003631276,
1,0,1,0,3,0,3,0,,,,,,,,,,,,,,,,,,,,,,,,,,,,,,,,,,,,,,,,,,,,,,,,,,,143.45858020009473,143.45858020009473,0.0074720000848174095,0.11419630004093051,7.0,2.5744369998574257,,,,,,,,,,,,,,,5854,Moral,2025-02-20_20h17.17.811,MoralCondition_v2,2022.2.5,29.999310003631276,
1,0,1,0,4,0,4,0,,,,,,,,,,,,,,,,,,,,,,,,,,,,,,,,,,,,,,,,,,,,,,,,,,,146.05829850025475,146.05829850025475,0.007535399869084358,0.0979426996782422,5.0,3.024487500078976,,,,,,,,,,,,,,,5854,Moral,2025-02-20_20h17.17.811,MoralCondition_v2,2022.2.5,29.999310003631276,
1,0,1,0,5,0,5,0,,,,,,,,,,,,,,,,,,,,,,,,,,,,,,,,,,,,,,,,,,,,,,,,,,,149.12490339996293,149.12490339996293,0.0075737000443041325,0.0978163001127541,5.0,3.0578999002464116,,,,,,,,,,,,,,,5854,Moral,2025-02-20_20h17.17.811,MoralCondition_v2,2022.2.5,29.999310003631276,
1,0,1,0,6,0,6,0,,,,,,,,,,,,,,,,,,,,,,,,,,,,,,,,,,,,,,,,,,,,,,,,,,,152.2249386999756,152.2249386999756,0.006472200155258179,0.0994522999972105,1.0,3.493622399866581,,,,,,,,,,,,,,,5854,Moral,2025-02-20_20h17.17.811,MoralCondition_v2,2022.2.5,29.999310003631276,
1,0,1,0,,,,,,,,,,,,,,,,,,,,,,,,,,,,,,,,,,,,,,,,,,,,,,,,,,,,,,,,,,,,,155.75830590026453,155.75830590026453,0.0013880999758839607,0.09764439985156059,1.0,3.5973455999046564,,,,,,,,,5854,Moral,2025-02-20_20h17.17.811,MoralCondition_v2,2022.2.5,29.999310003631276,
2,0,2,0,0,0,0,0,,,,,,,,,,,,,,,,,,,,,159.39155970001593,0.0004042000509798527,0.09723640000447631,165.39179260004312,6.030752600170672,165.59151920024306,165.59151920024306,0.09065819997340441,0.19737649988383055,6.030344200320542,171.69171150028706,171.69171150028706,171.69171150028706,0.0852101999334991,0.19700819998979568,177.3915715003386,177.59155100025237,6.03050719993189,6.130286999978125,183.59161869995296,12.03059250023216,183.69140470027924,183.69140470027924,0.01372430007904768,0.09681050013750792,up,2.727019799873233,186.45814200025052,1.7900019884109497e-05,0.09926580032333732,192.45850510010496,192.45850510010496,0.0076303002424538136,0.09941780008375645,1.0,5.026091399602592,,,,,,,171.59169650031254,171.59169650031254,183.674785700161,183.674785700161,,192.45850510010496,,,5854,Moral,2025-02-20_20h17.17.811,MoralCondition_v2,2022.2.5,29.999310003631276,
2,0,2,0,1,0,1,0,,,,,,,,,,,,,,,,,,,,,,,,,,,,,,,,,,,,,,,,,,,,,,,,,,,197.5247297002934,197.5247297002934,0.006891800090670586,0.0990857002325356,5.0,3.56025019986555,,,,,,,,,,,,,,,5854,Moral,2025-02-20_20h17.17.811,MoralCondition_v2,2022.2.5,29.999310003631276,
2,0,2,0,2,0,2,0,,,,,,,,,,,,,,,,,,,,,,,,,,,,,,,,,,,,,,,,,,,,,,,,,,,201.1248413999565,201.1248413999565,0.00648139975965023,0.09921179991215467,3.0,1.960907300002873,,,,,,,,,,,,,,,5854,Moral,2025-02-20_20h17.17.811,MoralCondition_v2,2022.2.5,29.999310003631276,
2,0,2,0,3,0,3,0,,,,,,,,,,,,,,,,,,,,,,,,,,,,,,,,,,,,,,,,,,,,,,,,,,,203.14154750015587,203.14154750015587,0.008949399925768375,0.11408749967813492,5.0,3.0393893998116255,,,,,,,,,,,,,,,5854,Moral,2025-02-20_20h17.17.811,MoralCondition_v2,2022.2.5,29.999310003631276,
2,0,2,0,4,0,4,0,,,,,,,,,,,,,,,,,,,,,,,,,,,,,,,,,,,,,,,,,,,,,,,,,,,206.20808990020305,206.20808990020305,0.0073494999669492245,0.09794670017436147,3.0,2.491791700012982,,,,,,,,,,,,,,,5854,Moral,2025-02-20_20h17.17.811,MoralCondition_v2,2022.2.5,29.999310003631276,
2,0,2,0,5,0,5,0,,,,,,,,,,,,,,,,,,,,,,,,,,,,,,,,,,,,,,,,,,,,,,,,,,,208.74150580028072,208.74150580028072,0.006764600053429604,0.09919909993186593,7.0,2.160121399909258,,,,,,,,,,,,,,,5854,Moral,2025-02-20_20h17.17.811,MoralCondition_v2,2022.2.5,29.999310003631276,
2,0,2,0,6,0,6,0,,,,,,,,,,,,,,,,,,,,,,,,,,,,,,,,,,,,,,,,,,,,,,,,,,,210.941655700095,210.941655700095,0.007668700069189072,0.09783730003982782,2.0,2.458025800064206,,,,,,,,,,,,,,,5854,Moral,2025-02-20_20h17.17.811,MoralCondition_v2,2022.2.5,29.999310003631276,
2,0,2,0,,,,,,,,,,,,,,,,,,,,,,,,,,,,,,,,,,,,,,,,,,,,,,,,,,,,,,,,,,,,,213.4413970001042,213.4413970001042,0.0022467002272605896,0.09719619993120432,7.0,3.7657376001589,,,,,,,,,5854,Moral,2025-02-20_20h17.17.811,MoralCondition_v2,2022.2.5,29.999310003631276,
3,0,3,0,0,0,0,0,,,,,,,,,,,,,,,,,,,,,217.2416513999924,0.00032240012660622597,0.09789270022884011,223.2581646000035,6.014464600011706,223.44155610026792,223.44155610026792,0.09313060017302632,0.19810110004618764,6.031351999845356,229.52489320002496,229.52489320002496,229.52489320002496,0.07060700003057718,0.18114819983020425,235.22504599997774,235.42483799997717,6.01454050000757,6.114550900179893,241.42481640027836,12.014529400039464,241.5581209002994,241.5581209002994,0.014731300063431263,0.1145524000748992,up,2.1396441999822855,243.74146299995482,4.519987851381302e-05,0.09807040030136704,249.7417915002443,249.7417915002443,0.005489000119268894,0.09831560030579567,6.0,6.093713699840009,,,,,,,229.42454970022663,229.42454970022663,241.5248239999637,241.5248239999637,,249.7417915002443,,,5854,Moral,2025-02-20_20h17.17.811,MoralCondition_v2,2022.2.5,29.999310003631276,
3,0,3,0,1,0,1,0,,,,,,,,,,,,,,,,,,,,,,,,,,,,,,,,,,,,,,,,,,,,,,,,,,,255.8747946000658,255.8747946000658,0.006574600003659725,0.099274099804461,5.0,3.4268061998300254,,,,,,,,,,,,,,,5854,Moral,2025-02-20_20h17.17.811,MoralCondition_v2,2022.2.5,29.999310003631276,
3,0,3,0,2,0,2,0,,,,,,,,,,,,,,,,,,,,,,,,,,,,,,,,,,,,,,,,,,,,,,,,,,,259.34140300005674,259.34140300005674,0.006698699668049812,0.09951459988951683,3.0,4.760137700010091,,,,,,,,,,,,,,,5854,Moral,2025-02-20_20h17.17.811,MoralCondition_v2,2022.2.5,29.999310003631276,
3,0,3,0,3,0,3,0,,,,,,,,,,,,,,,,,,,,,,,,,,,,,,,,,,,,,,,,,,,,,,,,,,,264.14121610019356,264.14121610019356,0.007906400132924318,0.09784380020573735,7.0,2.924451899714768,,,,,,,,,,,,,,,5854,Moral,2025-02-20_20h17.17.811,MoralCondition_v2,2022.2.5,29.999310003631276,
3,0,3,0,4,0,4,0,,,,,,,,,,,,,,,,,,,,,,,,,,,,,,,,,,,,,,,,,,,,,,,,,,,267.10792810004205,267.10792810004205,0.007619800046086311,0.09773179981857538,6.0,2.924471799749881,,,,,,,,,,,,,,,5854,Moral,2025-02-20_20h17.17.811,MoralCondition_v2,2022.2.5,29.999310003631276,
3,0,3,0,5,0,5,0,,,,,,,,,,,,,,,,,,,,,,,,,,,,,,,,,,,,,,,,,,,,,,,,,,,270.0749931000173,270.0749931000173,0.007226099725812674,0.0980530995875597,1.0,3.4252514000982046,,,,,,,,,,,,,,,5854,Moral,2025-02-20_20h17.17.811,MoralCondition_v2,2022.2.5,29.999310003631276,
3,0,3,0,6,0,6,0,,,,,,,,,,,,,,,,,,,,,,,,,,,,,,,,,,,,,,,,,,,,,,,,,,,273.5413955003023,273.5413955003023,0.006341900210827589,0.09872169978916645,4.0,2.161006599664688,,,,,,,,,,,,,,,5854,Moral,2025-02-20_20h17.17.811,MoralCondition_v2,2022.2.5,29.999310003631276,
3,0,3,0,,,,,,,,,,,,,,,,,,,,,,,,,,,,,,,,,,,,,,,,,,,,,,,,,,,,,,,,,,,,,275.74155090004206,275.74155090004206,0.0015763002447783947,0.09797600004822016,1.0,15.06411480018869,,,,,,,,,5854,Moral,2025-02-20_20h17.17.811,MoralCondition_v2,2022.2.5,29.999310003631276,
4,0,4,0,0,0,0,0,,,,,,,,,,,,,,,,,,,,,290.84146880032495,0.0002393997274339199,0.09824439976364374,296.8580350000411,6.0150369997136295,297.0417657000944,297.0417657000944,0.08245179988443851,0.19829169986769557,6.031508999876678,303.1413409002125,303.1413409002125,303.1413409002125,0.09318519989028573,0.1983976997435093,308.8413506001234,309.0413199001923,6.031552899628878,6.131746499799192,315.04134509991854,12.031576899811625,315.1747081000358,315.1747081000358,0.03177209943532944,0.13151769945397973,up,2.411952999420464,317.62469550035894,2.8999987989664078e-05,0.0984060000628233,323.62455670023337,323.62455670023337,0.006595300044864416,0.09838779969140887,3.0,4.192854400258511,,,,,,,303.04148570029065,303.04148570029065,315.1413493002765,315.1413493002765,,323.62455670023337,,,5854,Moral,2025-02-20_20h17.17.811,MoralCondition_v2,2022.2.5,29.999310003631276,
4,0,4,0,1,0,1,0,,,,,,,,,,,,,,,,,,,,,,,,,,,,,,,,,,,,,,,,,,,,,,,,,,,327.8745528999716,327.8745528999716,0.008033700287342072,0.11414790013805032,1.0,4.0070315999910235,,,,,,,,,,,,,,,5854,Moral,2025-02-20_20h17.17.811,MoralCondition_v2,2022.2.5,29.999310003631276,
4,0,4,0,2,0,2,0,,,,,,,,,,,,,,,,,,,,,,,,,,,,,,,,,,,,,,,,,,,,,,,,,,,331.9078196999617,331.9078196999617,0.007975900080054998,0.09824780002236366,5.0,2.2579803001135588,,,,,,,,,,,,,,,5854,Moral,2025-02-20_20h17.17.811,MoralCondition_v2,2022.2.5,29.999310003631276,
4,0,4,0,3,0,3,0,,,,,,,,,,,,,,,,,,,,,,,,,,,,,,,,,,,,,,,,,,,,,,,,,,,334.22478409996256,334.22478409996256,0.009583000093698502,0.11593209998682141,2.0,3.007307100109756,,,,,,,,,,,,,,,5854,Moral,2025-02-20_20h17.17.811,MoralCondition_v2,2022.2.5,29.999310003631276,
4,0,4,0,4,0,4,0,,,,,,,,,,,,,,,,,,,,,,,,,,,,,,,,,,,,,,,,,,,,,,,,,,,337.2749076001346,337.2749076001346,0.008570000063627958,0.1147353001870215,7.0,3.3070742995478213,,,,,,,,,,,,,,,5854,Moral,2025-02-20_20h17.17.811,MoralCondition_v2,2022.2.5,29.999310003631276,
4,0,4,0,5,0,5,0,,,,,,,,,,,,,,,,,,,,,,,,,,,,,,,,,,,,,,,,,,,,,,,,,,,340.60811799997464,340.60811799997464,0.007415000349283218,0.09799000015482306,3.0,4.191309500019997,,,,,,,,,,,,,,,5854,Moral,2025-02-20_20h17.17.811,MoralCondition_v2,2022.2.5,29.999310003631276,
4,0,4,0,6,0,6,0,,,,,,,,,,,,,,,,,,,,,,,,,,,,,,,,,,,,,,,,,,,,,,,,,,,344.8412506002933,344.8412506002933,0.00744049996137619,0.0979691999964416,3.0,2.6583175999112427,,,,,,,,,,,,,,,5854,Moral,2025-02-20_20h17.17.811,MoralCondition_v2,2022.2.5,29.999310003631276,
4,0,4,0,,,,,,,,,,,,,,,,,,,,,,,,,,,,,,,,,,,,,,,,,,,,,,,,,,,,,,,,,,,,,347.54110770020634,347.54110770020634,0.002044899854809046,0.09739520028233528,7.0,2.896697500254959,,,,,,,,,5854,Moral,2025-02-20_20h17.17.811,MoralCondition_v2,2022.2.5,29.999310003631276,
5,0,5,0,0,0,0,0,,,,,,,,,,,,,,,,,,,,,350.47483960026875,0.0002807998098433018,0.09788590017706156,356.47441320028156,6.014477100223303,356.6579583999701,356.6579583999701,0.06852869968861341,0.18127790000289679,6.014533000066876,362.7580288001336,362.7580288001336,362.7580288001336,0.06709309993311763,0.18122839974239469,368.4578044000082,368.65782270021737,6.014482999686152,6.114525099750608,374.6579514001496,12.014633699785918,374.79117880016565,374.79117880016565,0.014732799492776394,0.11443529976531863,up,2.26668189978227,377.10786190023646,5.660019814968109e-05,0.0978986001573503,383.1245254003443,383.1245254003443,0.010011000093072653,0.11437470000237226,6.0,6.405450299847871,,,,,,,362.6578366002068,362.6578366002068,374.7578139002435,374.7578139002435,,383.1245254003443,,,5854,Moral,2025-02-20_20h17.17.811,MoralCondition_v2,2022.2.5,29.999310003631276,
5,0,5,0,1,0,1,0,,,,,,,,,,,,,,,,,,,,,,,,,,,,,,,,,,,,,,,,,,,,,,,,,,,389.55781050026417,389.55781050026417,0.008270800113677979,0.09891830012202263,1.0,2.7912512999027967,,,,,,,,,,,,,,,5854,Moral,2025-02-20_20h17.17.811,MoralCondition_v2,2022.2.5,29.999310003631276,
5,0,5,0,2,0,2,0,,,,,,,,,,,,,,,,,,,,,,,,,,,,,,,,,,,,,,,,,,,,,,,,,,,392.3912003999576,392.3912003999576,0.007652699947357178,0.09790690010413527,5.0,2.024512399919331,,,,,,,,,,,,,,,5854,Moral,2025-02-20_20h17.17.811,MoralCondition_v2,2022.2.5,29.999310003631276,
5,0,5,0,3,0,3,0,,,,,,,,,,,,,,,,,,,,,,,,,,,,,,,,,,,,,,,,,,,,,,,,,,,394.4577772002667,394.4577772002667,0.007589499931782484,0.09784359997138381,6.0,2.9246986000798643,,,,,,,,,,,,,,,5854,Moral,2025-02-20_20h17.17.811,MoralCondition_v2,2022.2.5,29.999310003631276,
5,0,5,0,4,0,4,0,,,,,,,,,,,,,,,,,,,,,,,,,,,,,,,,,,,,,,,,,,,,,,,,,,,397.4246789999306,397.4246789999306,0.007242500316351652,0.09828580031171441,5.0,1.9914805996231735,,,,,,,,,,,,,,,5854,Moral,2025-02-20_20h17.17.811,MoralCondition_v2,2022.2.5,29.999310003631276,
5,0,5,0,5,0,5,0,,,,,,,,,,,,,,,,,,,,,,,,,,,,,,,,,,,,,,,,,,,,,,,,,,,399.4577057999559,399.4577057999559,0.0074998000636696815,0.0988213000819087,4.0,2.5257723997347057,,,,,,,,,,,,,,,5854,Moral,2025-02-20_20h17.17.811,MoralCondition_v2,2022.2.5,29.999310003631276,
5,0,5,0,6,0,6,0,,,,,,,,,,,,,,,,,,,,,,,,,,,,,,,,,,,,,,,,,,,,,,,,,,,402.0243522999808,402.0243522999808,0.006584900431334972,0.0991009003482759,5.0,3.826910300180316,,,,,,,,,,,,,,,5854,Moral,2025-02-20_20h17.17.811,MoralCondition_v2,2022.2.5,29.999310003631276,
5,0,5,0,,,,,,,,,,,,,,,,,,,,,,,,,,,,,,,,,,,,,,,,,,,,,,,,,,,,,,,,,,,,,405.8912277999334,405.8912277999334,0.0014006998389959335,0.09783780016005039,1.0,3.697147599887103,,,,,,,,,5854,Moral,2025-02-20_20h17.17.811,MoralCondition_v2,2022.2.5,29.999310003631276,
6,0,6,0,0,0,0,0,,,,,,,,,,,,,,,,,,,,,409.6242452999577,9.720027446746826e-05,0.11625600000843406,415.6075901002623,5.99935739999637,415.8410613001324,415.8410613001324,0.11165620014071465,0.2162338998168707,6.016282299999148,421.9079316002317,421.9079316002317,421.9079316002317,0.0696620000526309,0.18282559979707003,427.60773000027984,427.8076977003366,6.016207099892199,6.1163404998369515,433.8079349999316,12.016430299729109,433.941011399962,433.941011399962,0.016352899838238955,0.11606399994343519,up,2.061052799690515,436.040997300297,4.3600331991910934e-05,0.09804429998621345,442.05765289999545,442.05765289999545,0.025063100270926952,0.11493290029466152,5.0,3.5906919999979436,,,,,,,,,433.9076765002683,433.9076765002683,,,6.099507600069046,,5854,Moral,2025-02-20_20h17.17.811,MoralCondition_v2,2022.2.5,29.999310003631276,
6,0,6,0,1,0,1,0,,,,,,,,,,,,,,,,,,,,,,,,,,,,,,,,,,,,,,,,,,,,,,,,,,,445.707716899924,445.707716899924,0.008155700284987688,0.114508300088346,7.0,2.573702999856323,,,,,,,,,,,,,,,5854,Moral,2025-02-20_20h17.17.811,MoralCondition_v2,2022.2.5,29.999310003631276,
6,0,6,0,2,0,2,0,,,,,,,,,,,,,,,,,,,,,,,,,,,,,,,,,,,,,,,,,,,,,,,,,,,448.307464200072,448.307464200072,0.007155499886721373,0.09795719990506768,1.0,2.3920201999135315,,,,,,,,,,,,,,,5854,Moral,2025-02-20_20h17.17.811,MoralCondition_v2,2022.2.5,29.999310003631276,
6,0,6,0,3,0,3,0,,,,,,,,,,,,,,,,,,,,,,,,,,,,,,,,,,,,,,,,,,,,,,,,,,,450.7410209001973,450.7410209001973,0.006015000399202108,0.09943840000778437,4.0,2.894422000274062,,,,,,,,,,,,,,,5854,Moral,2025-02-20_20h17.17.811,MoralCondition_v2,2022.2.5,29.999310003631276,
6,0,6,0,4,0,4,0,,,,,,,,,,,,,,,,,,,,,,,,,,,,,,,,,,,,,,,,,,,,,,,,,,,453.69114510016516,453.69114510016516,0.008208099752664566,0.11441579973325133,3.0,3.2071045003831387,,,,,,,,,,,,,,,5854,Moral,2025-02-20_20h17.17.811,MoralCondition_v2,2022.2.5,29.999310003631276,
6,0,6,0,5,0,5,0,,,,,,,,,,,,,,,,,,,,,,,,,,,,,,,,,,,,,,,,,,,,,,,,,,,456.9242920000106,456.9242920000106,0.007646099664270878,0.09849929995834827,6.0,2.625308300368488,,,,,,,,,,,,,,,5854,Moral,2025-02-20_20h17.17.811,MoralCondition_v2,2022.2.5,29.999310003631276,
6,0,6,0,6,0,6,0,,,,,,,,,,,,,,,,,,,,,,,,,,,,,,,,,,,,,,,,,,,,,,,,,,,459.60791910020635,459.60791910020635,0.007970099803060293,0.1149205002002418,5.0,2.407758899964392,,,,,,,,,,,,,,,5854,Moral,2025-02-20_20h17.17.811,MoralCondition_v2,2022.2.5,29.999310003631276,
6,0,6,0,,,,,,,,,,,,,,,,,,,,,,,,,,,,,,,,,,,,,,,,,,,,,,,,,,,,,,,,,,,,,462.0409470000304,462.0409470000304,0.0012604999355971813,0.09784290008246899,1.0,8.43106810003519,,,,,,,,,5854,Moral,2025-02-20_20h17.17.811,MoralCondition_v2,2022.2.5,29.999310003631276,
7,0,7,0,0,0,0,0,,,,,,,,,,,,,,,,,,,,,470.50782850012183,0.0002617998979985714,0.09779189992696047,476.5073891002685,6.014385099988431,476.67419590009376,476.67419590009376,0.05894399993121624,0.1646837000735104,6.031242599710822,482.8074819003232,482.8074819003232,482.8074819003232,0.09578749956563115,0.1979842996224761,488.50753920013085,488.7077411999926,6.031332699581981,6.131057499907911,494.7075505000539,12.031161699909717,494.84088240005076,494.84088240005076,0.031244799494743347,0.1310489997267723,up,1.3848918001167476,496.27417240012437,4.42001037299633e-05,0.09784410009160638,502.3074293001555,502.3074293001555,0.024919299874454737,0.13128789979964495,3.0,4.70732680009678,,,,,,,482.6742044999264,482.6742044999264,494.8075084001757,494.8075084001757,,,6.097591300029308,,5854,Moral,2025-02-20_20h17.17.811,MoralCondition_v2,2022.2.5,29.999310003631276,
7,0,7,0,1,0,1,0,,,,,,,,,,,,,,,,,,,,,,,,,,,,,,,,,,,,,,,,,,,,,,,,,,,507.04080750001594,507.04080750001594,0.007065599784255028,0.09757139999419451,7.0,2.191510799806565,,,,,,,,,,,,,,,5854,Moral,2025-02-20_20h17.17.811,MoralCondition_v2,2022.2.5,29.999310003631276,
7,0,7,0,2,0,2,0,,,,,,,,,,,,,,,,,,,,,,,,,,,,,,,,,,,,,,,,,,,,,,,,,,,509.2745294002816,509.2745294002816,0.007399499882012606,0.09780990006402135,2.0,2.924884899985045,,,,,,,,,,,,,,,5854,Moral,2025-02-20_20h17.17.811,MoralCondition_v2,2022.2.5,29.999310003631276,
7,0,7,0,3,0,3,0,,,,,,,,,,,,,,,,,,,,,,,,,,,,,,,,,,,,,,,,,,,,,,,,,,,512.2409940999933,512.2409940999933,0.007943300064653158,0.09758449997752905,4.0,2.0572827998548746,,,,,,,,,,,,,,,5854,Moral,2025-02-20_20h17.17.811,MoralCondition_v2,2022.2.5,29.999310003631276,
7,0,7,0,4,0,4,0,,,,,,,,,,,,,,,,,,,,,,,,,,,,,,,,,,,,,,,,,,,,,,,,,,,514.3407836002298,514.3407836002298,0.006549700163304806,0.09935820009559393,1.0,2.2604180998168886,,,,,,,,,,,,,,,5854,Moral,2025-02-20_20h17.17.811,MoralCondition_v2,2022.2.5,29.999310003631276,
7,0,7,0,5,0,5,0,,,,,,,,,,,,,,,,,,,,,,,,,,,,,,,,,,,,,,,,,,,,,,,,,,,516.65775270015,516.65775270015,0.007685399614274502,0.11431359965354204,5.0,2.70763670001179,,,,,,,,,,,,,,,5854,Moral,2025-02-20_20h17.17.811,MoralCondition_v2,2022.2.5,29.999310003631276,
7,0,7,0,6,0,6,0,,,,,,,,,,,,,,,,,,,,,,,,,,,,,,,,,,,,,,,,,,,,,,,,,,,519.4074528003111,519.4074528003111,0.009756300132721663,0.1138387001119554,3.0,1.6385608999989927,,,,,,,,,,,,,,,5854,Moral,2025-02-20_20h17.17.811,MoralCondition_v2,2022.2.5,29.999310003631276,
7,0,7,0,,,,,,,,,,,,,,,,,,,,,,,,,,,,,,,,,,,,,,,,,,,,,,,,,,,,,,,,,,,,,521.0740717002191,521.0740717002191,0.0006964998319745064,0.09898369992151856,7.0,3.69997589988634,,,,,,,,,5854,Moral,2025-02-20_20h17.17.811,MoralCondition_v2,2022.2.5,29.999310003631276,
8,0,8,0,0,0,0,0,,,,,,,,,,,,,,,,,,,,,524.8076078002341,0.0002318001352250576,0.09803389990702271,530.824069400318,6.014680200256407,530.990896299947,530.990896299947,0.06824679998680949,0.18155100010335445,6.014679700136185,537.0907523999922,537.0907523999922,537.0907523999922,0.069737299811095,0.18159070005640388,542.7906552003697,542.9905741000548,6.014560499694198,6.114757299888879,548.9907716000453,12.01476169982925,549.1240596002899,549.1240596002899,0.015063099563121796,0.11460689967498183,up,1.7735725999809802,550.9573327000253,9.009987115859985e-05,0.09778330009430647,556.9741134000942,556.9741134000942,0.008810000028461218,0.11452919989824295,1.0,3.8402708997018635,,,,,,,536.9907149001956,536.9907149001956,549.090861600358,549.090861600358,,556.9741134000942,,,5854,Moral,2025-02-20_20h17.17.811,MoralCondition_v2,2022.2.5,29.999310003631276,
8,0,8,0,1,0,1,0,,,,,,,,,,,,,,,,,,,,,,,,,,,,,,,,,,,,,,,,,,,,,,,,,,,560.8405230999924,560.8405230999924,0.00662590004503727,0.09903260041028261,5.0,2.593463699799031,,,,,,,,,,,,,,,5854,Moral,2025-02-20_20h17.17.811,MoralCondition_v2,2022.2.5,29.999310003631276,
8,0,8,0,2,0,2,0,,,,,,,,,,,,,,,,,,,,,,,,,,,,,,,,,,,,,,,,,,,,,,,,,,,563.4738472001627,563.4738472001627,0.007530800066888332,0.09803260024636984,6.0,2.3916058000177145,,,,,,,,,,,,,,,5854,Moral,2025-02-20_20h17.17.811,MoralCondition_v2,2022.2.5,29.999310003631276,
8,0,8,0,3,0,3,0,,,,,,,,,,,,,,,,,,,,,,,,,,,,,,,,,,,,,,,,,,,,,,,,,,,565.9071332002059,565.9071332002059,0.007980199996381998,0.09768590005114675,3.0,2.0574781000614166,,,,,,,,,,,,,,,5854,Moral,2025-02-20_20h17.17.811,MoralCondition_v2,2022.2.5,29.999310003631276,
8,0,8,0,4,0,4,0,,,,,,,,,,,,,,,,,,,,,,,,,,,,,,,,,,,,,,,,,,,,,,,,,,,568.0073158000596,568.0073158000596,0.0074177999049425125,0.09864989994093776,5.0,2.85885399999097,,,,,,,,,,,,,,,5854,Moral,2025-02-20_20h17.17.811,MoralCondition_v2,2022.2.5,29.999310003631276,
8,0,8,0,5,0,5,0,,,,,,,,,,,,,,,,,,,,,,,,,,,,,,,,,,,,,,,,,,,,,,,,,,,570.9073715000413,570.9073715000413,0.008764599915593863,0.09922719979658723,7.0,1.8913368000648916,,,,,,,,,,,,,,,5854,Moral,2025-02-20_20h17.17.811,MoralCondition_v2,2022.2.5,29.999310003631276,
8,0,8,0,6,0,6,0,,,,,,,,,,,,,,,,,,,,,,,,,,,,,,,,,,,,,,,,,,,,,,,,,,,572.8406487000175,572.8406487000175,0.006634300108999014,0.09912749985232949,4.0,1.7939150999300182,,,,,,,,,,,,,,,5854,Moral,2025-02-20_20h17.17.811,MoralCondition_v2,2022.2.5,29.999310003631276,
8,0,8,0,,,,,,,,,,,,,,,,,,,,,,,,,,,,,,,,,,,,,,,,,,,,,,,,,,,,,,,,,,,,,574.6740782000124,574.6740782000124,0.0015957001596689224,0.0975339999422431,1.0,4.413396100047976,,,,,,,,,5854,Moral,2025-02-20_20h17.17.811,MoralCondition_v2,2022.2.5,29.999310003631276,
9,0,9,0,0,0,0,0,,,,,,,,,,,,,,,,,,,,,579.123752400279,9.0000219643116e-05,0.0992959002032876,585.1239050002769,5.9995180000551045,585.2906062002294,585.2906062002294,0.060714200139045715,0.16614599991589785,5.999498600140214,591.3905235002749,591.3905235002749,591.3905235002749,0.06040279986336827,0.1663930001668632,597.0904882000759,597.2905919002369,5.999624600168318,6.09930509980768,603.2905582003295,11.999571499880403,603.4239231999964,603.4239231999964,0.00047319987788796425,0.09946539998054504,up,1.9062170996330678,605.390469700098,6.109988316893578e-05,0.09782030014321208,611.390485400334,611.390485400334,0.009312199894338846,0.09801309974864125,7.0,3.9895155001431704,,,,,,,591.2905264003202,591.2905264003202,603.3906741002575,603.3906741002575,12.099688199814409,611.390485400334,6.099597100168467,6.099553900305182,5854,Moral,2025-02-20_20h17.17.811,MoralCondition_v2,2022.2.5,29.999310003631276,
9,0,9,0,1,0,1,0,,,,,,,,,,,,,,,,,,,,,,,,,,,,,,,,,,,,,,,,,,,,,,,,,,,615.4237486999482,615.4237486999482,0.006832600105553865,0.09921230003237724,5.0,2.2931772000156343,,,,,,,,,,,,,,,5854,Moral,2025-02-20_20h17.17.811,MoralCondition_v2,2022.2.5,29.999310003631276,
9,0,9,0,2,0,2,0,,,,,,,,,,,,,,,,,,,,,,,,,,,,,,,,,,,,,,,,,,,,,,,,,,,617.7573063001037,617.7573063001037,0.006639800034463406,0.09938029991462827,2.0,2.0935853999108076,,,,,,,,,,,,,,,5854,Moral,2025-02-20_20h17.17.811,MoralCondition_v2,2022.2.5,29.999310003631276,
9,0,9,0,3,0,3,0,,,,,,,,,,,,,,,,,,,,,,,,,,,,,,,,,,,,,,,,,,,,,,,,,,,619.8904862999916,619.8904862999916,0.0074269999749958515,0.09786320012062788,3.0,1.6584661998786032,,,,,,,,,,,,,,,5854,Moral,2025-02-20_20h17.17.811,MoralCondition_v2,2022.2.5,29.999310003631276,
9,0,9,0,4,0,4,0,,,,,,,,,,,,,,,,,,,,,,,,,,,,,,,,,,,,,,,,,,,,,,,,,,,621.5903703002259,621.5903703002259,0.005921500269323587,0.09912830032408237,3.0,1.9609925001859665,,,,,,,,,,,,,,,5854,Moral,2025-02-20_20h17.17.811,MoralCondition_v2,2022.2.5,29.999310003631276,
9,0,9,0,5,0,5,0,,,,,,,,,,,,,,,,,,,,,,,,,,,,,,,,,,,,,,,,,,,,,,,,,,,623.6073910999112,623.6073910999112,0.008413299918174744,0.11451799981296062,4.0,2.4738528998568654,,,,,,,,,,,,,,,5854,Moral,2025-02-20_20h17.17.811,MoralCondition_v2,2022.2.5,29.999310003631276,
9,0,9,0,6,0,6,0,,,,,,,,,,,,,,,,,,,,,,,,,,,,,,,,,,,,,,,,,,,,,,,,,,,626.1071088002063,626.1071088002063,0.008151100017130375,0.09917049994692206,2.0,4.192032000049949,,,,,,,,,,,,,,,5854,Moral,2025-02-20_20h17.17.811,MoralCondition_v2,2022.2.5,29.999310003631276,
9,0,9,0,,,,,,,,,,,,,,,,,,,,,,,,,,,,,,,,,,,,,,,,,,,,,,,,,,,,,,,,,,,,,630.3405559002422,630.3405559002422,0.0014180000871419907,0.09749409975484014,7.0,5.064252799842507,,,,,,,,,5854,Moral,2025-02-20_20h17.17.811,MoralCondition_v2,2022.2.5,29.999310003631276,
10,0,10,0,0,0,0,0,,,,,,,,,,,,,,,,,,,,,635.440682400018,0.00028880033642053604,0.09804960014298558,641.4403601000085,6.031279500108212,641.640538699925,641.640538699925,0.08892080001533031,0.19788350025191903,6.031323499977589,647.7404240001924,647.7404240001924,647.7404240001924,0.08870980003848672,0.19807659974321723,653.440334000159,653.640450600069,6.031404700130224,6.13121460005641,659.6404067003168,12.031325099989772,659.7737370003015,659.7737370003015,0.03161039995029569,0.13112480007112026,up,4.164162999484688,663.9902737000957,4.6700239181518555e-05,0.09794670017436147,669.9901614002883,669.9901614002883,0.007070400286465883,0.09804440010339022,6.0,4.658447899855673,,,,,,,647.6403149003163,647.6403149003163,659.740476500243,659.740476500243,,669.9901614002883,,,5854,Moral,2025-02-20_20h17.17.811,MoralCondition_v2,2022.2.5,29.999310003631276,
10,0,10,0,1,0,1,0,,,,,,,,,,,,,,,,,,,,,,,,,,,,,,,,,,,,,,,,,,,,,,,,,,,674.6901273000985,674.6901273000985,0.006593800149857998,0.09917200030758977,5.0,1.8602788001298904,,,,,,,,,,,,,,,5854,Moral,2025-02-20_20h17.17.811,MoralCondition_v2,2022.2.5,29.999310003631276,
10,0,10,0,2,0,2,0,,,,,,,,,,,,,,,,,,,,,,,,,,,,,,,,,,,,,,,,,,,,,,,,,,,676.5902288001962,676.5902288001962,0.0066247000358998775,0.09910180000588298,3.0,2.3934217002242804,,,,,,,,,,,,,,,5854,Moral,2025-02-20_20h17.17.811,MoralCondition_v2,2022.2.5,29.999310003631276,
10,0,10,0,3,0,3,0,,,,,,,,,,,,,,,,,,,,,,,,,,,,,,,,,,,,,,,,,,,,,,,,,,,679.0234819999896,679.0234819999896,0.006759399548172951,0.09940979955717921,7.0,1.8940717997029424,,,,,,,,,,,,,,,5854,Moral,2025-02-20_20h17.17.811,MoralCondition_v2,2022.2.5,29.999310003631276,
10,0,10,0,4,0,4,0,,,,,,,,,,,,,,,,,,,,,,,,,,,,,,,,,,,,,,,,,,,,,,,,,,,680.9568767999299,680.9568767999299,0.007827400229871273,0.09778230031952262,4.0,1.8576251999475062,,,,,,,,,,,,,,,5854,Moral,2025-02-20_20h17.17.811,MoralCondition_v2,2022.2.5,29.999310003631276,
10,0,10,0,5,0,5,0,,,,,,,,,,,,,,,,,,,,,,,,,,,,,,,,,,,,,,,,,,,,,,,,,,,682.8738461001776,682.8738461001776,0.008256800007075071,0.11449710000306368,5.0,1.4738866002298892,,,,,,,,,,,,,,,5854,Moral,2025-02-20_20h17.17.811,MoralCondition_v2,2022.2.5,29.999310003631276,
10,0,10,0,6,0,6,0,,,,,,,,,,,,,,,,,,,,,,,,,,,,,,,,,,,,,,,,,,,,,,,,,,,684.37345500011,684.37345500011,0.007347399834543467,0.09790629986673594,1.0,1.7583134998567402,,,,,,,,,,,,,,,5854,Moral,2025-02-20_20h17.17.811,MoralCondition_v2,2022.2.5,29.999310003631276,
10,0,10,0,,,,,,,,,,,,,,,,,,,,,,,,,,,,,,,,,,,,,,,,,,,,,,,,,,,,,,,,,,,,,686.1734734000638,686.1734734000638,0.001871899701654911,0.09749529976397753,1.0,2.496960800141096,,,,,,,,,5854,Moral,2025-02-20_20h17.17.811,MoralCondition_v2,2022.2.5,29.999310003631276,
11,0,11,0,0,0,0,0,,,,,,,,,,,,,,,,,,,,,688.707080299966,0.0002280999906361103,0.09795469976961613,694.7234797999263,6.014632099773735,694.8903292999603,694.8903292999603,0.07151079969480634,0.1815001997165382,6.0146165997721255,700.9900881000794,700.9900881000794,700.9900881000794,0.07244209945201874,0.18140089977532625,706.690287400037,706.890239499975,6.014756199438125,6.114575199782848,712.890123500023,12.014575999695808,713.0234582000412,713.0234582000412,0.014793499372899532,0.1145395995117724,up,2.2741693002171814,715.3567453003488,5.779974162578583e-05,0.09798699989914894,721.3732616002671,721.3732616002671,0.025460599921643734,0.11441139969974756,5.0,2.7567060999572277,,,,,,,700.8901219000109,700.8901219000109,712.9901670999825,712.9901670999825,,,,,5854,Moral,2025-02-20_20h17.17.811,MoralCondition_v2,2022.2.5,29.999310003631276,
11,0,11,0,1,0,1,0,,,,,,,,,,,,,,,,,,,,,,,,,,,,,,,,,,,,,,,,,,,,,,,,,,,724.190028199926,724.190028199926,0.00971710029989481,0.11466090008616447,5.0,1.6725953998975456,,,,,,,,,,,,,,,5854,Moral,2025-02-20_20h17.17.811,MoralCondition_v2,2022.2.5,29.999310003631276,
11,0,11,0,2,0,2,0,,,,,,,,,,,,,,,,,,,,,,,,,,,,,,,,,,,,,,,,,,,,,,,,,,,725.8900677999482,725.8900677999482,0.007422199938446283,0.09777439991012216,7.0,1.6912730000913143,,,,,,,,,,,,,,,5854,Moral,2025-02-20_20h17.17.811,MoralCondition_v2,2022.2.5,29.999310003631276,
11,0,11,0,3,0,3,0,,,,,,,,,,,,,,,,,,,,,,,,,,,,,,,,,,,,,,,,,,,,,,,,,,,727.6235120003112,727.6235120003112,0.006590600125491619,0.09951920015737414,4.0,1.5936012999154627,,,,,,,,,,,,,,,5854,Moral,2025-02-20_20h17.17.811,MoralCondition_v2,2022.2.5,29.999310003631276,
11,0,11,0,4,0,4,0,,,,,,,,,,,,,,,,,,,,,,,,,,,,,,,,,,,,,,,,,,,,,,,,,,,729.2566988002509,729.2566988002509,0.008818599861115217,0.09749269997701049,1.0,1.9897823999635875,,,,,,,,,,,,,,,5854,Moral,2025-02-20_20h17.17.811,MoralCondition_v2,2022.2.5,29.999310003631276,
11,0,11,0,5,0,5,0,,,,,,,,,,,,,,,,,,,,,,,,,,,,,,,,,,,,,,,,,,,,,,,,,,,731.2901868000627,731.2901868000627,0.0060085998848080635,0.09729430032894015,3.0,2.426045199856162,,,,,,,,,,,,,,,5854,Moral,2025-02-20_20h17.17.811,MoralCondition_v2,2022.2.5,29.999310003631276,
11,0,11,0,6,0,6,0,,,,,,,,,,,,,,,,,,,,,,,,,,,,,,,,,,,,,,,,,,,,,,,,,,,733.7736593000591,733.7736593000591,0.008194699883460999,0.11426619999110699,5.0,1.540798299945891,,,,,,,,,,,,,,,5854,Moral,2025-02-20_20h17.17.811,MoralCondition_v2,2022.2.5,29.999310003631276,
11,0,11,0,,,,,,,,,,,,,,,,,,,,,,,,,,,,,,,,,,,,,,,,,,,,,,,,,,,,,,,,,,,,,735.3400779999793,735.3400779999793,0.0013659000396728516,0.0974477999843657,1.0,3.3641323996707797,,,,,,,,,5854,Moral,2025-02-20_20h17.17.811,MoralCondition_v2,2022.2.5,29.999310003631276,
12,0,12,0,0,0,0,0,,,,,,,,,,,,,,,,,,,,,738.740324200131,0.00024140020832419395,0.09849689994007349,744.7566591002978,6.014880700036883,744.9232331002131,744.9232331002131,0.06912449980154634,0.1817521001212299,6.01493649976328,751.0235548000783,751.0235548000783,751.0235548000783,0.06824309984222054,0.18175720004364848,756.7235042001121,756.923282600008,6.014900699723512,6.114919099956751,762.9232923001982,12.014940799679607,763.0565965003334,763.0565965003334,0.015073999762535095,0.11499109957367182,up,2.1934316996484995,765.2899306002073,4.2300205677747726e-05,0.09760050009936094,771.3067602002993,771.3067602002993,0.02381720021367073,0.1142416000366211,3.0,3.5247910995967686,,,,,,,750.9234385001473,750.9234385001473,763.023317000363,763.023317000363,,,,,5854,Moral,2025-02-20_20h17.17.811,MoralCondition_v2,2022.2.5,29.999310003631276,
12,0,12,0,1,0,1,0,,,,,,,,,,,,,,,,,,,,,,,,,,,,,,,,,,,,,,,,,,,,,,,,,,,774.8732406999916,774.8732406999916,0.007177100051194429,0.09793120017275214,6.0,2.625399800017476,,,,,,,,,,,,,,,5854,Moral,2025-02-20_20h17.17.811,MoralCondition_v2,2022.2.5,29.999310003631276,
12,0,12,0,2,0,2,0,,,,,,,,,,,,,,,,,,,,,,,,,,,,,,,,,,,,,,,,,,,,,,,,,,,777.5399711001664,777.5399711001664,0.006376100238412619,0.09920490020886064,1.0,2.3268550001084805,,,,,,,,,,,,,,,5854,Moral,2025-02-20_20h17.17.811,MoralCondition_v2,2022.2.5,29.999310003631276,
12,0,12,0,3,0,3,0,,,,,,,,,,,,,,,,,,,,,,,,,,,,,,,,,,,,,,,,,,,,,,,,,,,779.9232863001525,779.9232863001525,0.008289999794214964,0.11415900010615587,3.0,1.7733346000313759,,,,,,,,,,,,,,,5854,Moral,2025-02-20_20h17.17.811,MoralCondition_v2,2022.2.5,29.999310003631276,
12,0,12,0,4,0,4,0,,,,,,,,,,,,,,,,,,,,,,,,,,,,,,,,,,,,,,,,,,,,,,,,,,,781.723242000211,781.723242000211,0.007647600024938583,0.09774920018389821,4.0,2.024637999944389,,,,,,,,,,,,,,,5854,Moral,2025-02-20_20h17.17.811,MoralCondition_v2,2022.2.5,29.999310003631276,
12,0,12,0,5,0,5,0,,,,,,,,,,,,,,,,,,,,,,,,,,,,,,,,,,,,,,,,,,,,,,,,,,,783.78975490015,783.78975490015,0.00757679995149374,0.09780590003356338,3.0,2.35791390016675,,,,,,,,,,,,,,,5854,Moral,2025-02-20_20h17.17.811,MoralCondition_v2,2022.2.5,29.999310003631276,
12,0,12,0,6,0,6,0,,,,,,,,,,,,,,,,,,,,,,,,,,,,,,,,,,,,,,,,,,,,,,,,,,,786.2067948002368,786.2067948002368,0.00795480003580451,0.11422060010954738,3.0,4.80751289986074,,,,,,,,,,,,,,,5854,Moral,2025-02-20_20h17.17.811,MoralCondition_v2,2022.2.5,29.999310003631276,
12,0,12,0,,,,,,,,,,,,,,,,,,,,,,,,,,,,,,,,,,,,,,,,,,,,,,,,,,,,,,,,,,,,,791.0397988003679,791.0397988003679,0.000692400150001049,0.09924460016191006,7.0,5.466418199706823,,,,,,,,,5854,Moral,2025-02-20_20h17.17.811,MoralCondition_v2,2022.2.5,29.999310003631276,
13,0,13,0,0,0,0,0,,,,,,,,,,,,,,,,,,,,,796.5399371003732,0.0005788998678326607,0.09714929992333055,802.55649860017,6.0138129000552,802.72302830033,802.72302830033,0.07425240008160472,0.18046859977766871,6.013881400227547,808.8231117003597,808.8231117003597,808.8231117003597,0.07345680007711053,0.18056129990145564,814.5230885003693,814.7229977999814,6.013652000110596,6.113765200134367,820.7232917002402,12.013996299821883,820.8564321999438,820.8564321999438,0.013987999875098467,0.11374019971117377,up,2.1698685996234417,823.0897590001114,2.3599714040756226e-05,0.09902679966762662,829.1067629000172,829.1067629000172,0.010210899636149406,0.1156072998419404,3.0,5.706802200060338,,,,,,,808.7230990999378,808.7230990999378,820.8230781001039,820.8230781001039,,829.1067629000172,,,5854,Moral,2025-02-20_20h17.17.811,MoralCondition_v2,2022.2.5,29.999310003631276,
13,0,13,0,1,0,1,0,,,,,,,,,,,,,,,,,,,,,,,,,,,,,,,,,,,,,,,,,,,,,,,,,,,834.8395301001146,834.8395301001146,0.0065393997356295586,0.09924519993364811,3.0,4.493842199910432,,,,,,,,,,,,,,,5854,Moral,2025-02-20_20h17.17.811,MoralCondition_v2,2022.2.5,29.999310003631276,
13,0,13,0,2,0,2,0,,,,,,,,,,,,,,,,,,,,,,,,,,,,,,,,,,,,,,,,,,,,,,,,,,,839.3729135002941,839.3729135002941,0.007510200142860413,0.09800750017166138,2.0,2.658230200409889,,,,,,,,,,,,,,,5854,Moral,2025-02-20_20h17.17.811,MoralCondition_v2,2022.2.5,29.999310003631276,
13,0,13,0,3,0,3,0,,,,,,,,,,,,,,,,,,,,,,,,,,,,,,,,,,,,,,,,,,,,,,,,,,,842.0729267001152,842.0729267001152,0.007678200025111437,0.09764189971610904,7.0,1.7574284998700023,,,,,,,,,,,,,,,5854,Moral,2025-02-20_20h17.17.811,MoralCondition_v2,2022.2.5,29.999310003631276,
13,0,13,0,4,0,4,0,,,,,,,,,,,,,,,,,,,,,,,,,,,,,,,,,,,,,,,,,,,,,,,,,,,843.8730040001683,843.8730040001683,0.00776199996471405,0.0982371000573039,3.0,1.8244223999790847,,,,,,,,,,,,,,,5854,Moral,2025-02-20_20h17.17.811,MoralCondition_v2,2022.2.5,29.999310003631276,
13,0,13,0,5,0,5,0,,,,,,,,,,,,,,,,,,,,,,,,,,,,,,,,,,,,,,,,,,,,,,,,,,,845.7397475000471,845.7397475000471,0.007666099816560745,0.0980869997292757,1.0,2.0579220997169614,,,,,,,,,,,,,,,5854,Moral,2025-02-20_20h17.17.811,MoralCondition_v2,2022.2.5,29.999310003631276,
13,0,13,0,6,0,6,0,,,,,,,,,,,,,,,,,,,,,,,,,,,,,,,,,,,,,,,,,,,,,,,,,,,847.8395010000095,847.8395010000095,0.007329199928790331,0.09821499977260828,4.0,1.8252631002105772,,,,,,,,,,,,,,,5854,Moral,2025-02-20_20h17.17.811,MoralCondition_v2,2022.2.5,29.999310003631276,
13,0,13,0,,,,,,,,,,,,,,,,,,,,,,,,,,,,,,,,,,,,,,,,,,,,,,,,,,,,,,,,,,,,,849.7063242001459,849.7063242001459,0.0014006001874804497,0.09780940040946007,7.0,2.6641965000890195,,,,,,,,,5854,Moral,2025-02-20_20h17.17.811,MoralCondition_v2,2022.2.5,29.999310003631276,
14,0,14,0,0,0,0,0,,,,,,,,,,,,,,,,,,,,,852.4065387002192,0.0003403997980058193,0.09737950004637241,858.4229863001965,6.0140287997201085,858.5897842003033,858.5897842003033,0.07162889977917075,0.18079879973083735,6.014041599817574,864.6896080002189,864.6896080002189,864.6896080002189,0.06862759962677956,0.18088299967348576,870.3895638999529,870.5896242000163,6.014031499624252,6.114048599731177,876.5895854001865,12.014021699782461,876.7230062000453,876.7230062000453,0.01427319971844554,0.11391969956457615,up,1.646469899918884,878.4229859001935,3.7800054997205734e-05,0.09829699993133545,884.423036900349,884.423036900349,0.00618709996342659,0.09817310003563762,5.0,5.392821699846536,,,,,,,864.5728106000461,864.5728106000461,876.6897145002149,876.6897145002149,,884.423036900349,,,5854,Moral,2025-02-20_20h17.17.811,MoralCondition_v2,2022.2.5,29.999310003631276,
14,0,14,0,1,0,1,0,,,,,,,,,,,,,,,,,,,,,,,,,,,,,,,,,,,,,,,,,,,,,,,,,,,889.8561464003287,889.8561464003287,0.008181999903172255,0.09752709977328777,6.0,2.2902414998970926,,,,,,,,,,,,,,,5854,Moral,2025-02-20_20h17.17.811,MoralCondition_v2,2022.2.5,29.999310003631276,
14,0,14,0,2,0,2,0,,,,,,,,,,,,,,,,,,,,,,,,,,,,,,,,,,,,,,,,,,,,,,,,,,,892.1894732001238,892.1894732001238,0.00751699972897768,0.09794589970260859,1.0,1.8916827999055386,,,,,,,,,,,,,,,5854,Moral,2025-02-20_20h17.17.811,MoralCondition_v2,2022.2.5,29.999310003631276,
14,0,14,0,3,0,3,0,,,,,,,,,,,,,,,,,,,,,,,,,,,,,,,,,,,,,,,,,,,,,,,,,,,894.1228856001981,894.1228856001981,0.007343099918216467,0.09911269973963499,4.0,1.8930167998187244,,,,,,,,,,,,,,,5854,Moral,2025-02-20_20h17.17.811,MoralCondition_v2,2022.2.5,29.999310003631276,
14,0,14,0,4,0,4,0,,,,,,,,,,,,,,,,,,,,,,,,,,,,,,,,,,,,,,,,,,,,,,,,,,,896.056211499963,896.056211499963,0.006342899985611439,0.09919720003381371,4.0,2.0290554999373853,,,,,,,,,,,,,,,5854,Moral,2025-02-20_20h17.17.811,MoralCondition_v2,2022.2.5,29.999310003631276,
14,0,14,0,5,0,5,0,,,,,,,,,,,,,,,,,,,,,,,,,,,,,,,,,,,,,,,,,,,,,,,,,,,898.1227198000997,898.1227198000997,0.006787699647247791,0.09904689993709326,7.0,2.1936623002402484,,,,,,,,,,,,,,,5854,Moral,2025-02-20_20h17.17.811,MoralCondition_v2,2022.2.5,29.999310003631276,
14,0,14,0,6,0,6,0,,,,,,,,,,,,,,,,,,,,,,,,,,,,,,,,,,,,,,,,,,,,,,,,,,,900.356016300153,900.356016300153,0.006556100212037563,0.09945840016007423,5.0,2.5603187000378966,,,,,,,,,,,,,,,5854,Moral,2025-02-20_20h17.17.811,MoralCondition_v2,2022.2.5,29.999310003631276,
14,0,14,0,,,,,,,,,,,,,,,,,,,,,,,,,,,,,,,,,,,,,,,,,,,,,,,,,,,,,,,,,,,,,902.9563600001857,902.9563600001857,0.0013472000136971474,0.09769159974530339,1.0,7.797203599940985,,,,,,,,,5854,Moral,2025-02-20_20h17.17.811,MoralCondition_v2,2022.2.5,29.999310003631276,
15,0,15,0,0,0,0,0,,,,,,,,,,,,,,,,,,,,,910.7898051002994,0.0002926001325249672,0.09853139985352755,916.8062833002768,6.01472570002079,916.9729451001622,916.9729451001622,0.06789910001680255,0.18136279983446002,6.014589999802411,923.0727702002041,923.0727702002041,923.0727702002041,0.0666665998287499,0.18122449982911348,928.772835700307,928.9726928002201,6.014509099535644,6.114509499631822,934.9726730999537,12.014473299961537,935.1060020001605,935.1060020001605,0.014860999770462513,0.1144338995218277,up,2.1442494997754693,937.289333099965,4.4899992644786835e-05,0.09775459999218583,943.3060109000653,943.3060109000653,0.009170500095933676,0.1144599998369813,1.0,4.306120799854398,,,,,,,922.9727342003025,922.9727342003025,935.0727608003654,935.0727608003654,,943.3060109000653,,,5854,Moral,2025-02-20_20h17.17.811,MoralCondition_v2,2022.2.5,29.999310003631276,
15,0,15,0,1,0,1,0,,,,,,,,,,,,,,,,,,,,,,,,,,,,,,,,,,,,,,,,,,,,,,,,,,,947.6393818003125,947.6393818003125,0.0067819999530911446,0.09910670015960932,5.0,2.9266285998746753,,,,,,,,,,,,,,,5854,Moral,2025-02-20_20h17.17.811,MoralCondition_v2,2022.2.5,29.999310003631276,
15,0,15,0,2,0,2,0,,,,,,,,,,,,,,,,,,,,,,,,,,,,,,,,,,,,,,,,,,,,,,,,,,,950.6228681001812,950.6228681001812,0.008676800411194563,0.11422420013695955,5.0,2.14013160020113,,,,,,,,,,,,,,,5854,Moral,2025-02-20_20h17.17.811,MoralCondition_v2,2022.2.5,29.999310003631276,
15,0,15,0,3,0,3,0,,,,,,,,,,,,,,,,,,,,,,,,,,,,,,,,,,,,,,,,,,,,,,,,,,,952.8062372999266,952.8062372999266,0.008719599805772305,0.11405579978600144,7.0,2.3063829001039267,,,,,,,,,,,,,,,5854,Moral,2025-02-20_20h17.17.811,MoralCondition_v2,2022.2.5,29.999310003631276,
15,0,15,0,4,0,4,0,,,,,,,,,,,,,,,,,,,,,,,,,,,,,,,,,,,,,,,,,,,,,,,,,,,955.1394347003661,955.1394347003661,0.006701800040900707,0.0989664001390338,5.0,1.9600486000999808,,,,,,,,,,,,,,,5854,Moral,2025-02-20_20h17.17.811,MoralCondition_v2,2022.2.5,29.999310003631276,
15,0,15,0,5,0,5,0,,,,,,,,,,,,,,,,,,,,,,,,,,,,,,,,,,,,,,,,,,,,,,,,,,,957.1391278002411,957.1391278002411,0.007427200209349394,0.09799000015482306,7.0,1.6249693999998271,,,,,,,,,,,,,,,5854,Moral,2025-02-20_20h17.17.811,MoralCondition_v2,2022.2.5,29.999310003631276,
15,0,15,0,6,0,6,0,,,,,,,,,,,,,,,,,,,,,,,,,,,,,,,,,,,,,,,,,,,,,,,,,,,958.8226731000468,958.8226731000468,0.008691000286489725,0.11444380041211843,4.0,1.7734073996543884,,,,,,,,,,,,,,,5854,Moral,2025-02-20_20h17.17.811,MoralCondition_v2,2022.2.5,29.999310003631276,
15,0,15,0,,,,,,,,,,,,,,,,,,,,,,,,,,,,,,,,,,,,,,,,,,,,,,,,,,,,,,,,,,,,,960.6228628000244,960.6228628000244,0.001671799924224615,0.09720069961622357,1.0,2.93016010010615,,,,,,,,,5854,Moral,2025-02-20_20h17.17.811,MoralCondition_v2,2022.2.5,29.999310003631276,
16,0,16,0,0,0,0,0,,,,,,,,,,,,,,,,,,,,,963.5894976002164,0.00025829998776316643,0.09783739969134331,969.6059081000276,6.014483599923551,969.7724919002503,969.7724919002503,0.07697959989309311,0.18107949988916516,6.014400899875909,975.8725828002207,975.8725828002207,975.8725828002207,0.07393569964915514,0.1813402995467186,981.5725183002651,981.7724406002089,6.0143093997612596,6.114368299487978,987.7725154999644,12.014424999710172,987.9058420001529,987.9058420001529,0.01458279974758625,0.11436009965837002,up,1.2804712997749448,989.2225218000822,4.1400082409381866e-05,0.09812620002776384,995.2562159001827,995.2562159001827,0.02530129998922348,0.13154680002480745,5.0,3.9073303998447955,,,,,,,975.7725271000527,975.7725271000527,987.8725016000681,987.8725016000681,,,,,5854,Moral,2025-02-20_20h17.17.811,MoralCondition_v2,2022.2.5,29.999310003631276,
16,0,16,0,1,0,1,0,,,,,,,,,,,,,,,,,,,,,,,,,,,,,,,,,,,,,,,,,,,,,,,,,,,999.1889887000434,999.1889887000434,0.007407700177282095,0.09767889976501465,3.0,1.9913086001761258,,,,,,,,,,,,,,,5854,Moral,2025-02-20_20h17.17.811,MoralCondition_v2,2022.2.5,29.999310003631276,
16,0,16,0,2,0,2,0,,,,,,,,,,,,,,,,,,,,,,,,,,,,,,,,,,,,,,,,,,,,,,,,,,,1001.2394304000773,1001.2394304000773,0.010622000321745872,0.11429790034890175,5.0,1.7390103000216186,,,,,,,,,,,,,,,5854,Moral,2025-02-20_20h17.17.811,MoralCondition_v2,2022.2.5,29.999310003631276,
16,0,16,0,3,0,3,0,,,,,,,,,,,,,,,,,,,,,,,,,,,,,,,,,,,,,,,,,,,,,,,,,,,1003.0057063000277,1003.0057063000277,0.0086470996029675,0.09785289969295263,6.0,1.4569834000431001,,,,,,,,,,,,,,,5854,Moral,2025-02-20_20h17.17.811,MoralCondition_v2,2022.2.5,29.999310003631276,
16,0,16,0,4,0,4,0,,,,,,,,,,,,,,,,,,,,,,,,,,,,,,,,,,,,,,,,,,,,,,,,,,,1004.5228248001076,1004.5228248001076,0.008363400120288134,0.11448250012472272,7.0,1.6403986997902393,,,,,,,,,,,,,,,5854,Moral,2025-02-20_20h17.17.811,MoralCondition_v2,2022.2.5,29.999310003631276,
16,0,16,0,5,0,5,0,,,,,,,,,,,,,,,,,,,,,,,,,,,,,,,,,,,,,,,,,,,,,,,,,,,1006.1893333001062,1006.1893333001062,0.0068040997721254826,0.09932429995387793,1.0,2.1601910004392266,,,,,,,,,,,,,,,5854,Moral,2025-02-20_20h17.17.811,MoralCondition_v2,2022.2.5,29.999310003631276,
16,0,16,0,6,0,6,0,,,,,,,,,,,,,,,,,,,,,,,,,,,,,,,,,,,,,,,,,,,,,,,,,,,1008.3892143000849,1008.3892143000849,0.006733600050210953,0.0994254001416266,4.0,2.6601737001910806,,,,,,,,,,,,,,,5854,Moral,2025-02-20_20h17.17.811,MoralCondition_v2,2022.2.5,29.999310003631276,
16,0,16,0,,,,,,,,,,,,,,,,,,,,,,,,,,,,,,,,,,,,,,,,,,,,,,,,,,,,,,,,,,,,,1011.0892851999961,1011.0892851999961,0.0016677002422511578,0.0972731001675129,1.0,2.9965555001981556,,,,,,,,,5854,Moral,2025-02-20_20h17.17.811,MoralCondition_v2,2022.2.5,29.999310003631276,
17,0,17,0,0,0,0,0,,,,,,,,,,,,,,,,,,,,,1014.1226355000399,0.00013659987598657608,0.09918610006570816,1020.139088800177,6.015771999955177,1020.3058608002029,1020.3058608002029,0.07074399990960956,0.18271500011906028,6.015714100096375,1026.4056215002201,1026.4056215002201,1026.4056215002201,0.07009979989379644,0.18240689998492599,1032.105965600349,1032.3056954001077,6.01576770003885,6.115693199913949,1038.3056771000847,12.015751000028104,1038.4390198001638,1038.4390198001638,0.01599639980122447,0.11577169969677925,up,1.6586992996744812,1040.155685200356,4.569999873638153e-05,0.09795120032504201,1046.1890112003312,1046.1890112003312,0.02585249999538064,0.13139380002394319,3.0,3.1730072000063956,,,,,,,1026.3057071003132,1026.3057071003132,1038.4057721002027,1038.4057721002027,,,,,5854,Moral,2025-02-20_20h17.17.811,MoralCondition_v2,2022.2.5,29.999310003631276,
17,0,17,0,1,0,1,0,,,,,,,,,,,,,,,,,,,,,,,,,,,,,,,,,,,,,,,,,,,,,,,,,,,1049.4059301000088,1049.4059301000088,0.007710699923336506,0.11442149989306927,4.0,2.5410076999105513,,,,,,,,,,,,,,,5854,Moral,2025-02-20_20h17.17.811,MoralCondition_v2,2022.2.5,29.999310003631276,
17,0,17,0,2,0,2,0,,,,,,,,,,,,,,,,,,,,,,,,,,,,,,,,,,,,,,,,,,,,,,,,,,,1051.972264900338,1051.972264900338,0.00737860007211566,0.09837140003219247,4.0,2.3585397000424564,,,,,,,,,,,,,,,5854,Moral,2025-02-20_20h17.17.811,MoralCondition_v2,2022.2.5,29.999310003631276,
17,0,17,0,3,0,3,0,,,,,,,,,,,,,,,,,,,,,,,,,,,,,,,,,,,,,,,,,,,,,,,,,,,1054.3723071999848,1054.3723071999848,0.007284499704837799,0.0978736998513341,7.0,1.824818099848926,,,,,,,,,,,,,,,5854,Moral,2025-02-20_20h17.17.811,MoralCondition_v2,2022.2.5,29.999310003631276,
17,0,17,0,4,0,4,0,,,,,,,,,,,,,,,,,,,,,,,,,,,,,,,,,,,,,,,,,,,,,,,,,,,1056.239223500248,1056.239223500248,0.0076421997509896755,0.09759029978886247,2.0,1.9240963999181986,,,,,,,,,,,,,,,5854,Moral,2025-02-20_20h17.17.811,MoralCondition_v2,2022.2.5,29.999310003631276,
17,0,17,0,5,0,5,0,,,,,,,,,,,,,,,,,,,,,,,,,,,,,,,,,,,,,,,,,,,,,,,,,,,1058.222557200119,1058.222557200119,0.008357400074601173,0.11384449992328882,1.0,1.4733243002556264,,,,,,,,,,,,,,,5854,Moral,2025-02-20_20h17.17.811,MoralCondition_v2,2022.2.5,29.999310003631276,
17,0,17,0,6,0,6,0,,,,,,,,,,,,,,,,,,,,,,,,,,,,,,,,,,,,,,,,,,,,,,,,,,,1059.7388785001822,1059.7388785001822,0.00960719957947731,0.11403389973565936,2.0,1.30555190006271,,,,,,,,,,,,,,,5854,Moral,2025-02-20_20h17.17.811,MoralCondition_v2,2022.2.5,29.999310003631276,
17,0,17,0,,,,,,,,,,,,,,,,,,,,,,,,,,,,,,,,,,,,,,,,,,,,,,,,,,,,,,,,,,,,,1061.0723830000497,1061.0723830000497,0.0006605000235140324,0.09922980004921556,7.0,2.86672170041129,,,,,,,,,5854,Moral,2025-02-20_20h17.17.811,MoralCondition_v2,2022.2.5,29.999310003631276,
18,0,18,0,0,0,0,0,,,,,,,,,,,,,,,,,,,,,1063.972488600295,0.0002962001599371433,0.09808630030602217,1069.988869199995,6.0148269003257155,1070.1554197999649,1070.1554197999649,0.079339399933815,0.1812072000466287,6.014989200048149,1076.2555260001682,1076.2555260001682,1076.2555260001682,0.08216660004109144,0.18124329997226596,1081.9557229001075,1082.1553454003297,6.014477000106126,6.114524399861693,1088.1555369002745,12.01468349993229,1088.2888647001237,1088.2888647001237,0.014739600010216236,0.11465570004656911,up,2.3375734998844564,1090.6720179002732,1.0999850928783417e-05,0.0989772998727858,1096.6887839999981,1096.6887839999981,0.026421899907290936,0.1154517000541091,1.0,6.490234300028533,,,,,,,1076.138942700345,1076.138942700345,1088.2554697003216,1088.2554697003216,,,,,5854,Moral,2025-02-20_20h17.17.811,MoralCondition_v2,2022.2.5,29.999310003631276,
18,0,18,0,1,0,1,0,,,,,,,,,,,,,,,,,,,,,,,,,,,,,,,,,,,,,,,,,,,,,,,,,,,1103.222083600238,1103.222083600238,0.00747469998896122,0.0972980996593833,5.0,1.7577407001517713,,,,,,,,,,,,,,,5854,Moral,2025-02-20_20h17.17.811,MoralCondition_v2,2022.2.5,29.999310003631276,
18,0,18,0,2,0,2,0,,,,,,,,,,,,,,,,,,,,,,,,,,,,,,,,,,,,,,,,,,,,,,,,,,,1105.0220423000865,1105.0220423000865,0.007142700254917145,0.0993626001290977,5.0,1.5264330999925733,,,,,,,,,,,,,,,5854,Moral,2025-02-20_20h17.17.811,MoralCondition_v2,2022.2.5,29.999310003631276,
18,0,18,0,3,0,3,0,,,,,,,,,,,,,,,,,,,,,,,,,,,,,,,,,,,,,,,,,,,,,,,,,,,1106.588894800283,1106.588894800283,0.007651799824088812,0.09741130005568266,7.0,1.757242300081998,,,,,,,,,,,,,,,5854,Moral,2025-02-20_20h17.17.811,MoralCondition_v2,2022.2.5,29.999310003631276,
18,0,18,0,4,0,4,0,,,,,,,,,,,,,,,,,,,,,,,,,,,,,,,,,,,,,,,,,,,,,,,,,,,1108.40571500035,1108.40571500035,0.007781099993735552,0.11417119996622205,6.0,1.6406982997432351,,,,,,,,,,,,,,,5854,Moral,2025-02-20_20h17.17.811,MoralCondition_v2,2022.2.5,29.999310003631276,
18,0,18,0,5,0,5,0,,,,,,,,,,,,,,,,,,,,,,,,,,,,,,,,,,,,,,,,,,,,,,,,,,,1110.0720752999187,1110.0720752999187,0.007288999855518341,0.09794940007850528,5.0,1.658377599902451,,,,,,,,,,,,,,,5854,Moral,2025-02-20_20h17.17.811,MoralCondition_v2,2022.2.5,29.999310003631276,
18,0,18,0,6,0,6,0,,,,,,,,,,,,,,,,,,,,,,,,,,,,,,,,,,,,,,,,,,,,,,,,,,,1111.7719841003418,1111.7719841003418,0.006770499981939793,0.09921569982543588,4.0,1.5267522996291518,,,,,,,,,,,,,,,5854,Moral,2025-02-20_20h17.17.811,MoralCondition_v2,2022.2.5,29.999310003631276,
18,0,18,0,,,,,,,,,,,,,,,,,,,,,,,,,,,,,,,,,,,,,,,,,,,,,,,,,,,,,,,,,,,,,1113.3386405003257,1113.3386405003257,0.002170099876821041,0.09754629991948605,1.0,4.029775300063193,,,,,,,,,5854,Moral,2025-02-20_20h17.17.811,MoralCondition_v2,2022.2.5,29.999310003631276,
19,0,19,0,0,0,0,0,,,,,,,,,,,,,,,,,,,,,1117.4054434001446,0.0002578999847173691,0.09843689994886518,1123.42203540029,6.0151030998677015,1123.5886853002012,1123.5886853002012,0.07043559988960624,0.18194840010255575,6.015044699888676,1129.6887469999492,1129.6887469999492,1129.6887469999492,0.06999500002712011,0.18196549965068698,1135.388637199998,1135.5886625000276,6.015076600015163,6.11536779999733,1141.588702100329,12.015132899861783,1141.722096499987,1141.722096499987,0.01525129983201623,0.11500119976699352,up,2.967851399909705,1144.7386043001898,3.7599820643663406e-05,0.09808869985863566,1150.7721478999592,1150.7721478999592,0.026232399977743626,0.13142580026760697,5.0,2.906149999704212,,,,,,,1129.5888865003362,1129.5888865003362,1141.6886758003384,1141.6886758003384,,,,,5854,Moral,2025-02-20_20h17.17.811,MoralCondition_v2,2022.2.5,29.999310003631276,
19,0,19,0,1,0,1,0,,,,,,,,,,,,,,,,,,,,,,,,,,,,,,,,,,,,,,,,,,,,,,,,,,,1153.705409300048,1153.705409300048,0.007112899795174599,0.09893149975687265,6.0,1.9600515998899937,,,,,,,,,,,,,,,5854,Moral,2025-02-20_20h17.17.811,MoralCondition_v2,2022.2.5,29.999310003631276,
19,0,19,0,2,0,2,0,,,,,,,,,,,,,,,,,,,,,,,,,,,,,,,,,,,,,,,,,,,,,,,,,,,1155.7050240002573,1155.7050240002573,0.009436999913305044,0.09710610006004572,5.0,1.8557662996463478,,,,,,,,,,,,,,,5854,Moral,2025-02-20_20h17.17.811,MoralCondition_v2,2022.2.5,29.999310003631276,
19,0,19,0,3,0,3,0,,,,,,,,,,,,,,,,,,,,,,,,,,,,,,,,,,,,,,,,,,,,,,,,,,,1157.6052950001322,1157.6052950001322,0.00684039993211627,0.09930719994008541,4.0,2.794088799972087,,,,,,,,,,,,,,,5854,Moral,2025-02-20_20h17.17.811,MoralCondition_v2,2022.2.5,29.999310003631276,
19,0,19,0,4,0,4,0,,,,,,,,,,,,,,,,,,,,,,,,,,,,,,,,,,,,,,,,,,,,,,,,,,,1160.4386701001786,1160.4386701001786,0.007561699952930212,0.09839889965951443,6.0,2.125107899773866,,,,,,,,,,,,,,,5854,Moral,2025-02-20_20h17.17.811,MoralCondition_v2,2022.2.5,29.999310003631276,
19,0,19,0,5,0,5,0,,,,,,,,,,,,,,,,,,,,,,,,,,,,,,,,,,,,,,,,,,,,,,,,,,,1162.6052322001196,1162.6052322001196,0.006457899697124958,0.09926920011639595,3.0,2.093727200292051,,,,,,,,,,,,,,,5854,Moral,2025-02-20_20h17.17.811,MoralCondition_v2,2022.2.5,29.999310003631276,
19,0,19,0,6,0,6,0,,,,,,,,,,,,,,,,,,,,,,,,,,,,,,,,,,,,,,,,,,,,,,,,,,,1164.7386169000529,1164.7386169000529,0.008089200127869844,0.09795450000092387,1.0,2.5241252998821437,,,,,,,,,,,,,,,5854,Moral,2025-02-20_20h17.17.811,MoralCondition_v2,2022.2.5,29.999310003631276,
19,0,19,0,,,,,,,,,,,,,,,,,,,,,,,,,,,,,,,,,,,,,,,,,,,,,,,,,,,,,,,,,,,,,1167.3051109001972,1167.3051109001972,0.0009476998820900917,0.09867929993197322,1.0,3.1325268000364304,,,,,,,,,5854,Moral,2025-02-20_20h17.17.811,MoralCondition_v2,2022.2.5,29.999310003631276,
