loop.thisRepN,loop.thisTrialN,loop.thisN,loop.thisIndex,evaluate_all_emotions.thisRepN,evaluate_all_emotions.thisTrialN,evaluate_all_emotions.thisN,evaluate_all_emotions.thisIndex,sync_beep_1.started,p_port.started,p_port.stopped,sync_beep_2.started,sync_beep_3.started,sync_beep_3.stopped,sync_beep_4.started,sync_beep_4.stopped,baseline.started,p_port_2.started,p_port_2.stopped,baseline.stopped,p_port_3.started,Game_Start_Text.started,p_port_4.started,p_port_4.stopped,key_resp.started,key_resp.keys,key_resp.rt,fixation_cross.started,p_port_5.started,p_port_5.stopped,fixation_cross.stopped,p_port_6.started,player_image_intro.started,player_name_intro.started,p_port_7.started,p_port_7.stopped,p_port_8.started,player_image_offer.started,player_name_offer.started,proposed_split.started,p_port_9.started,p_port_9.stopped,proposed_split.stopped,accept_reject.started,p_port_15.started,p_port_15.stopped,accept_reject.stopped,p_port_10.started,player_image_offer.stopped,player_name_offer.stopped,arrow_instructions.started,offer_choice.started,p_port_11.started,p_port_11.stopped,offer_choice.keys,offer_choice.rt,Instructions_Affinity_Score.started,p_port_12.started,p_port_12.stopped,Emotion_Image.started,AffinityScore.started,p_port_13.started,p_port_13.stopped,AffinityScore.response,AffinityScore.rt,Instruction.started,Moral_Disgust_Score.started,p_port_14.started,p_port_14.stopped,Moral_Disgust_Score.response,Moral_Disgust_Score.rt,player_image_intro.stopped,player_name_intro.stopped,Instructions_Affinity_Score.stopped,p_port_6.stopped,p_port_8.stopped,p_port_10.stopped,participant,session,date,expName,psychopyVersion,frameRate,
,,,,,,,,34.13653450198472,0.0008327998220920563,0.1278651999309659,34.73564970018342,35.352455200068654,35.66913119982928,35.95239649983123,36.28571459976956,36.28571459976956,0.0137491999194026,0.1278776996769011,51.26894890004769,15.027772299479693,51.36903200019151,0.011226899456232786,0.11119739944115281,51.83574629994109,space,2.2058537998236716,,,,,,,,,,,,,,,,,,,,,,,,,,,,,,,,,,,,,,,,,,,,,,,,,,,5914,Moral,2024-11-13_17h27.28.357,MoralCondition_v2,2022.2.5,29.97944308941604,
0,0,0,0,0,0,0,0,,,,,,,,,,,,,,,,,,,,54.10256530018523,0.012910599820315838,0.11490519996732473,60.10244969977066,6.014841599855572,60.435660699848086,60.435660699848086,0.19094129977747798,0.3481275998055935,6.014862900134176,66.38583429995924,66.38583429995924,66.38583429995924,0.0734112998470664,0.19826769968494773,72.08569419989362,72.28576050000265,6.0315533997491,6.1315094996243715,78.2859106999822,12.03171020001173,78.38574169995263,78.38574169995263,78.41911040013656,78.41911040013656,0.03186889970675111,0.13170119980350137,down,3.7350345999002457,82.21917319996282,5.50001859664917e-05,0.09736610017716885,88.26904390007257,88.26904390007257,0.03540130006149411,0.14737860020250082,3.0,9.679613899905235,,,,,,,,,,,,,5914,Moral,2024-11-13_17h27.28.357,MoralCondition_v2,2022.2.5,29.97944308941604,
0,0,0,0,1,0,1,0,,,,,,,,,,,,,,,,,,,,,,,,,,,,,,,,,,,,,,,,,,,,,,,,,,,,97.96898530004546,97.96898530004546,0.009690800216048956,0.09757150011137128,1.0,6.28895920002833,,,,,,,,,,,,,5914,Moral,2024-11-13_17h27.28.357,MoralCondition_v2,2022.2.5,29.97944308941604,
0,0,0,0,2,0,2,0,,,,,,,,,,,,,,,,,,,,,,,,,,,,,,,,,,,,,,,,,,,,,,,,,,,,104.31933620013297,104.31933620013297,0.011862900108098984,0.11507060006260872,5.0,7.604247100185603,,,,,,,,,,,,,5914,Moral,2024-11-13_17h27.28.357,MoralCondition_v2,2022.2.5,29.97944308941604,
0,0,0,0,3,0,3,0,,,,,,,,,,,,,,,,,,,,,,,,,,,,,,,,,,,,,,,,,,,,,,,,,,,,111.95224450016394,111.95224450016394,0.009381100069731474,0.09792330022901297,1.0,3.556242600083351,,,,,,,,,,,,,5914,Moral,2024-11-13_17h27.28.357,MoralCondition_v2,2022.2.5,29.97944308941604,
0,0,0,0,4,0,4,0,,,,,,,,,,,,,,,,,,,,,,,,,,,,,,,,,,,,,,,,,,,,,,,,,,,,115.56939369998872,115.56939369998872,0.009499299805611372,0.11442779982462525,6.0,1.7726592998951674,,,,,,,,,,,,,5914,Moral,2024-11-13_17h27.28.357,MoralCondition_v2,2022.2.5,29.97944308941604,
0,0,0,0,5,0,5,0,,,,,,,,,,,,,,,,,,,,,,,,,,,,,,,,,,,,,,,,,,,,,,,,,,,,117.36911060009152,117.36911060009152,0.008161099627614021,0.09931299975141883,5.0,1.9587995000183582,,,,,,,,,,,,,5914,Moral,2024-11-13_17h27.28.357,MoralCondition_v2,2022.2.5,29.97944308941604,
0,0,0,0,6,0,6,0,,,,,,,,,,,,,,,,,,,,,,,,,,,,,,,,,,,,,,,,,,,,,,,,,,,,119.36892719985917,119.36892719985917,0.006566000171005726,0.0995069001801312,2.0,17.027244300115854,,,,,,,,,,,,,5914,Moral,2024-11-13_17h27.28.357,MoralCondition_v2,2022.2.5,29.97944308941604,
0,0,0,0,,,,,,,,,,,,,,,,,,,,,,,,,,,,,,,,,,,,,,,,,,,,,,,,,,,,,,,,,,,,,,136.4357726997696,136.4357726997696,0.0013891002163290977,0.09775220043957233,5.0,16.73222449980676,,,,,,,5914,Moral,2024-11-13_17h27.28.357,MoralCondition_v2,2022.2.5,29.97944308941604,
1,0,1,0,0,0,0,0,,,,,,,,,,,,,,,,,,,,153.2027165000327,0.0006756000220775604,0.09688979992642999,159.21911599999294,6.013598999939859,159.38579040020704,159.38579040020704,0.08154759975150228,0.18056349968537688,6.013752099592239,165.48590439977124,165.48590439977124,165.48590439977124,0.06999829970300198,0.18047809973359108,171.1858072001487,171.38579420000315,6.013749799691141,6.113589699845761,177.38569340016693,12.013539399486035,177.48578929994255,177.48578929994255,177.51910699997097,177.51910699997097,0.013791099656373262,0.11363729974254966,up,1.2112338999286294,178.7857832000591,5.110027268528938e-05,0.09764670021831989,184.80243510007858,184.80243510007858,0.009153999853879213,0.11430440004914999,2.0,3.8061973000876606,,,,,,,165.38577280007303,165.38577280007303,184.80243510007858,,,,5914,Moral,2024-11-13_17h27.28.357,MoralCondition_v2,2022.2.5,29.97944308941604,
1,0,1,0,1,0,1,0,,,,,,,,,,,,,,,,,,,,,,,,,,,,,,,,,,,,,,,,,,,,,,,,,,,,188.63584320014343,188.63584320014343,0.007789100054651499,0.09818580001592636,2.0,3.424618400167674,,,,,,,,,,,,,5914,Moral,2024-11-13_17h27.28.357,MoralCondition_v2,2022.2.5,29.97944308941604,
1,0,1,0,2,0,2,0,,,,,,,,,,,,,,,,,,,,,,,,,,,,,,,,,,,,,,,,,,,,,,,,,,,,192.10244080005214,192.10244080005214,0.007056099828332663,0.09897619998082519,5.0,2.02644390007481,,,,,,,,,,,,,5914,Moral,2024-11-13_17h27.28.357,MoralCondition_v2,2022.2.5,29.97944308941604,
1,0,1,0,3,0,3,0,,,,,,,,,,,,,,,,,,,,,,,,,,,,,,,,,,,,,,,,,,,,,,,,,,,,194.16901930002496,194.16901930002496,0.006874099839478731,0.09896710002794862,5.0,4.393141400068998,,,,,,,,,,,,,5914,Moral,2024-11-13_17h27.28.357,MoralCondition_v2,2022.2.5,29.97944308941604,
1,0,1,0,4,0,4,0,,,,,,,,,,,,,,,,,,,,,,,,,,,,,,,,,,,,,,,,,,,,,,,,,,,,198.6022521997802,198.6022521997802,0.00781779969111085,0.09763749968260527,6.0,3.4244542000815272,,,,,,,,,,,,,5914,Moral,2024-11-13_17h27.28.357,MoralCondition_v2,2022.2.5,29.97944308941604,
1,0,1,0,5,0,5,0,,,,,,,,,,,,,,,,,,,,,,,,,,,,,,,,,,,,,,,,,,,,,,,,,,,,202.0690699000843,202.0690699000843,0.007516299840062857,0.09789450000971556,4.0,2.5578739000484347,,,,,,,,,,,,,5914,Moral,2024-11-13_17h27.28.357,MoralCondition_v2,2022.2.5,29.97944308941604,
1,0,1,0,6,0,6,0,,,,,,,,,,,,,,,,,,,,,,,,,,,,,,,,,,,,,,,,,,,,,,,,,,,,204.66919009992853,204.66919009992853,0.007598400115966797,0.09758909977972507,2.0,1.2578050000593066,,,,,,,,,,,,,5914,Moral,2024-11-13_17h27.28.357,MoralCondition_v2,2022.2.5,29.97944308941604,
1,0,1,0,,,,,,,,,,,,,,,,,,,,,,,,,,,,,,,,,,,,,,,,,,,,,,,,,,,,,,,,,,,,,,205.96905810013413,205.96905810013413,0.0015528998337686062,0.09750019991770387,6.0,7.130496299825609,,,,,,,5914,Moral,2024-11-13_17h27.28.357,MoralCondition_v2,2022.2.5,29.97944308941604,
2,0,2,0,0,0,0,0,,,,,,,,,,,,,,,,,,,,213.13592489995062,0.00014850031584501266,0.09913570014759898,219.13593570003286,5.999434099998325,219.36923959990963,219.36923959990963,0.10843429993838072,0.23272059997543693,5.9991361000575125,225.43574539991096,225.43574539991096,225.43574539991096,0.09734079986810684,0.19904199987649918,231.135915200226,231.30239999992773,5.999058299697936,6.099104600027204,237.30247499980032,11.999156899750233,237.43581729987636,237.43581729987636,237.43581729987636,237.43581729987636,0.000183899886906147,0.09914289973676205,up,0.7660579001531005,238.2357608000748,4.810001701116562e-05,0.09757160022854805,244.268979200162,244.268979200162,0.027723300270736217,0.13068620022386312,1.0,3.471083799842745,,,,,,,,,,6.0990173001773655,6.099079899955541,12.099148000124842,5914,Moral,2024-11-13_17h27.28.357,MoralCondition_v2,2022.2.5,29.97944308941604,
2,0,2,0,1,0,1,0,,,,,,,,,,,,,,,,,,,,,,,,,,,,,,,,,,,,,,,,,,,,,,,,,,,,247.78610529983416,247.78610529983416,0.007794499862939119,0.11449800012633204,5.0,1.8411514000035822,,,,,,,,,,,,,5914,Moral,2024-11-13_17h27.28.357,MoralCondition_v2,2022.2.5,29.97944308941604,
2,0,2,0,2,0,2,0,,,,,,,,,,,,,,,,,,,,,,,,,,,,,,,,,,,,,,,,,,,,,,,,,,,,249.66909499978647,249.66909499978647,0.008842799812555313,0.11448440002277493,5.0,8.473443099763244,,,,,,,,,,,,,5914,Moral,2024-11-13_17h27.28.357,MoralCondition_v2,2022.2.5,29.97944308941604,
2,0,2,0,3,0,3,0,,,,,,,,,,,,,,,,,,,,,,,,,,,,,,,,,,,,,,,,,,,,,,,,,,,,258.16925759986043,258.16925759986043,0.00706949969753623,0.09729989990592003,2.0,2.791001799982041,,,,,,,,,,,,,5914,Moral,2024-11-13_17h27.28.357,MoralCondition_v2,2022.2.5,29.97944308941604,
2,0,2,0,4,0,4,0,,,,,,,,,,,,,,,,,,,,,,,,,,,,,,,,,,,,,,,,,,,,,,,,,,,,261.00229519978166,261.00229519978166,0.0078118001110851765,0.09755680011585355,2.0,1.1240791999734938,,,,,,,,,,,,,5914,Moral,2024-11-13_17h27.28.357,MoralCondition_v2,2022.2.5,29.97944308941604,
2,0,2,0,5,0,5,0,,,,,,,,,,,,,,,,,,,,,,,,,,,,,,,,,,,,,,,,,,,,,,,,,,,,262.1691271997988,262.1691271997988,0.007546199951320887,0.09838300012052059,6.0,2.225313200149685,,,,,,,,,,,,,5914,Moral,2024-11-13_17h27.28.357,MoralCondition_v2,2022.2.5,29.97944308941604,
2,0,2,0,6,0,6,0,,,,,,,,,,,,,,,,,,,,,,,,,,,,,,,,,,,,,,,,,,,,,,,,,,,,264.43564750021324,264.43564750021324,0.006921099964529276,0.099394999910146,6.0,1.6267135995440185,,,,,,,,,,,,,5914,Moral,2024-11-13_17h27.28.357,MoralCondition_v2,2022.2.5,29.97944308941604,
2,0,2,0,,,,,,,,,,,,,,,,,,,,,,,,,,,,,,,,,,,,,,,,,,,,,,,,,,,,,,,,,,,,,,266.1023556999862,266.1023556999862,0.001746899913996458,0.09686900023370981,6.0,6.296652699820697,,,,,,,5914,Moral,2024-11-13_17h27.28.357,MoralCondition_v2,2022.2.5,29.97944308941604,
3,0,3,0,0,0,0,0,,,,,,,,,,,,,,,,,,,,272.43612799979746,0.00015280023217201233,0.0993980998173356,278.4525045999326,6.015835300087929,278.6357109998353,278.6357109998353,0.08542629983276129,0.19944849982857704,5.999152000062168,284.7024058001116,284.7024058001116,284.7024058001116,0.05230059986934066,0.16590069979429245,290.40250100009143,290.60265799984336,5.9994139997288585,6.099169299937785,296.60248740017414,11.999223599676043,296.70245439978316,296.70245439978316,296.7358518000692,296.7358518000692,3.879982978105545e-05,0.09917229972779751,up,1.4658633996732533,298.23589819995686,3.679981455206871e-05,0.09777009999379516,304.23566780006513,304.23566780006513,0.008802699856460094,0.09763340000063181,2.0,2.390285700093955,,,,,,,284.7024058001116,284.7024058001116,304.23566780006513,,6.099291000049561,12.099277899600565,5914,Moral,2024-11-13_17h27.28.357,MoralCondition_v2,2022.2.5,29.97944308941604,
3,0,3,0,1,0,1,0,,,,,,,,,,,,,,,,,,,,,,,,,,,,,,,,,,,,,,,,,,,,,,,,,,,,306.66906839981675,306.66906839981675,0.006745399907231331,0.09941950021311641,2.0,1.0267583997920156,,,,,,,,,,,,,5914,Moral,2024-11-13_17h27.28.357,MoralCondition_v2,2022.2.5,29.97944308941604,
3,0,3,0,2,0,2,0,,,,,,,,,,,,,,,,,,,,,,,,,,,,,,,,,,,,,,,,,,,,,,,,,,,,307.7357312999666,307.7357312999666,0.007173200137913227,0.09793510008603334,2.0,1.6584918000735343,,,,,,,,,,,,,5914,Moral,2024-11-13_17h27.28.357,MoralCondition_v2,2022.2.5,29.97944308941604,
3,0,3,0,3,0,3,0,,,,,,,,,,,,,,,,,,,,,,,,,,,,,,,,,,,,,,,,,,,,,,,,,,,,309.4357444001362,309.4357444001362,0.0074628000147640705,0.09899750025942922,6.0,1.4926750003360212,,,,,,,,,,,,,5914,Moral,2024-11-13_17h27.28.357,MoralCondition_v2,2022.2.5,29.97944308941604,
3,0,3,0,4,0,4,0,,,,,,,,,,,,,,,,,,,,,,,,,,,,,,,,,,,,,,,,,,,,,,,,,,,,310.98596190009266,310.98596190009266,0.00789069989696145,0.11421659961342812,5.0,5.5073436996899545,,,,,,,,,,,,,5914,Moral,2024-11-13_17h27.28.357,MoralCondition_v2,2022.2.5,29.97944308941604,
3,0,3,0,5,0,5,0,,,,,,,,,,,,,,,,,,,,,,,,,,,,,,,,,,,,,,,,,,,,,,,,,,,,316.51916120015085,316.51916120015085,0.007441699970513582,0.09796079993247986,2.0,1.724876900203526,,,,,,,,,,,,,5914,Moral,2024-11-13_17h27.28.357,MoralCondition_v2,2022.2.5,29.97944308941604,
3,0,3,0,6,0,6,0,,,,,,,,,,,,,,,,,,,,,,,,,,,,,,,,,,,,,,,,,,,,,,,,,,,,318.2858633999713,318.2858633999713,0.006600500084459782,0.09954030020162463,6.0,0.9603683999739587,,,,,,,,,,,,,5914,Moral,2024-11-13_17h27.28.357,MoralCondition_v2,2022.2.5,29.97944308941604,
3,0,3,0,,,,,,,,,,,,,,,,,,,,,,,,,,,,,,,,,,,,,,,,,,,,,,,,,,,,,,,,,,,,,,319.28595029981807,319.28595029981807,0.0016169003210961819,0.09805270005017519,6.0,8.93083760002628,,,,,,,5914,Moral,2024-11-13_17h27.28.357,MoralCondition_v2,2022.2.5,29.97944308941604,
4,0,4,0,0,0,0,0,,,,,,,,,,,,,,,,,,,,328.2527002999559,0.0002771001309156418,0.09799010027199984,334.26915019983426,6.014556100126356,334.4355398998596,334.4355398998596,0.08345660008490086,0.1812208998017013,6.014654600061476,340.5358477998525,340.5358477998525,340.5358477998525,0.07820890005677938,0.18140569981187582,346.2357843997888,346.43577509978786,6.014612100087106,6.1146125998348,352.4357985998504,12.01460439991206,352.53577220020816,352.53577220020816,352.569134300109,352.569134300109,0.014763799961656332,0.11457959981635213,up,0.5605298997834325,353.16911790007725,3.7400051951408386e-05,0.0978061999194324,359.1858377000317,359.1858377000317,0.009566799737513065,0.11461000004783273,5.0,2.540060699917376,,,,,,,340.4360377998091,340.4360377998091,359.1858377000317,,,,5914,Moral,2024-11-13_17h27.28.357,MoralCondition_v2,2022.2.5,29.97944308941604,
4,0,4,0,1,0,1,0,,,,,,,,,,,,,,,,,,,,,,,,,,,,,,,,,,,,,,,,,,,,,,,,,,,,361.7524007000029,361.7524007000029,0.006842100061476231,0.09895100025460124,3.0,3.2930532000027597,,,,,,,,,,,,,5914,Moral,2024-11-13_17h27.28.357,MoralCondition_v2,2022.2.5,29.97944308941604,
4,0,4,0,2,0,2,0,,,,,,,,,,,,,,,,,,,,,,,,,,,,,,,,,,,,,,,,,,,,,,,,,,,,365.085775999818,365.085775999818,0.00656279968097806,0.09932159958407283,5.0,2.727255600038916,,,,,,,,,,,,,5914,Moral,2024-11-13_17h27.28.357,MoralCondition_v2,2022.2.5,29.97944308941604,
4,0,4,0,3,0,3,0,,,,,,,,,,,,,,,,,,,,,,,,,,,,,,,,,,,,,,,,,,,,,,,,,,,,367.85238589998335,367.85238589998335,0.00716949999332428,0.09819049993529916,3.0,2.0588452997617424,,,,,,,,,,,,,5914,Moral,2024-11-13_17h27.28.357,MoralCondition_v2,2022.2.5,29.97944308941604,
4,0,4,0,4,0,4,0,,,,,,,,,,,,,,,,,,,,,,,,,,,,,,,,,,,,,,,,,,,,,,,,,,,,369.9694054001011,369.9694054001011,0.00804120022803545,0.11447199992835522,6.0,1.2407490997575223,,,,,,,,,,,,,5914,Moral,2024-11-13_17h27.28.357,MoralCondition_v2,2022.2.5,29.97944308941604,
4,0,4,0,5,0,5,0,,,,,,,,,,,,,,,,,,,,,,,,,,,,,,,,,,,,,,,,,,,,,,,,,,,,371.235734899994,371.235734899994,0.0065957000479102135,0.09930980019271374,4.0,5.060386499855667,,,,,,,,,,,,,5914,Moral,2024-11-13_17h27.28.357,MoralCondition_v2,2022.2.5,29.97944308941604,
4,0,4,0,6,0,6,0,,,,,,,,,,,,,,,,,,,,,,,,,,,,,,,,,,,,,,,,,,,,,,,,,,,,376.33575849980116,376.33575849980116,0.006794400047510862,0.09923270018771291,2.0,7.760101899970323,,,,,,,,,,,,,5914,Moral,2024-11-13_17h27.28.357,MoralCondition_v2,2022.2.5,29.97944308941604,
4,0,4,0,,,,,,,,,,,,,,,,,,,,,,,,,,,,,,,,,,,,,,,,,,,,,,,,,,,,,,,,,,,,,,384.1358627001755,384.1358627001755,0.0007400000467896461,0.09905329998582602,3.0,9.099680999759585,,,,,,,5914,Moral,2024-11-13_17h27.28.357,MoralCondition_v2,2022.2.5,29.97944308941604,
5,0,5,0,0,0,0,0,,,,,,,,,,,,,,,,,,,,393.2691720002331,0.00031869998201727867,0.09793849987909198,399.2523710997775,6.014606100041419,399.43573069991544,399.43573069991544,0.06553439982235432,0.1645897999405861,6.0312693999148905,405.5689690997824,405.5689690997824,405.5689690997824,0.08992139995098114,0.1978532001376152,411.2691045999527,411.46911669988185,6.031351699959487,6.1312481998465955,417.4691022997722,12.031294799875468,417.56910359999165,417.56910359999165,417.60248149977997,417.60248149977997,0.03159909974783659,0.13110810006037354,up,0.5835713995620608,418.2191445999779,4.5000109821558e-05,0.09731450024992228,424.23570269998163,424.23570269998163,0.008983000181615353,0.11425720015540719,5.0,2.7728310003876686,,,,,,,405.4357678000815,405.4357678000815,424.23570269998163,6.097876700107008,,,5914,Moral,2024-11-13_17h27.28.357,MoralCondition_v2,2022.2.5,29.97944308941604,
5,0,5,0,1,0,1,0,,,,,,,,,,,,,,,,,,,,,,,,,,,,,,,,,,,,,,,,,,,,,,,,,,,,427.03563519986346,427.03563519986346,0.0062918998301029205,0.09913200000301003,3.0,3.5271385996602476,,,,,,,,,,,,,5914,Moral,2024-11-13_17h27.28.357,MoralCondition_v2,2022.2.5,29.97944308941604,
5,0,5,0,2,0,2,0,,,,,,,,,,,,,,,,,,,,,,,,,,,,,,,,,,,,,,,,,,,,,,,,,,,,430.6193547998555,430.6193547998555,0.007747099734842777,0.11396500002592802,2.0,3.440723499748856,,,,,,,,,,,,,5914,Moral,2024-11-13_17h27.28.357,MoralCondition_v2,2022.2.5,29.97944308941604,
5,0,5,0,3,0,3,0,,,,,,,,,,,,,,,,,,,,,,,,,,,,,,,,,,,,,,,,,,,,,,,,,,,,434.08562269993126,434.08562269993126,0.006312000099569559,0.09911740012466908,5.0,1.9939708998426795,,,,,,,,,,,,,5914,Moral,2024-11-13_17h27.28.357,MoralCondition_v2,2022.2.5,29.97944308941604,
5,0,5,0,4,0,4,0,,,,,,,,,,,,,,,,,,,,,,,,,,,,,,,,,,,,,,,,,,,,,,,,,,,,436.11912530008703,436.11912530008703,0.008257499895989895,0.0980838998220861,3.0,9.023963800165802,,,,,,,,,,,,,5914,Moral,2024-11-13_17h27.28.357,MoralCondition_v2,2022.2.5,29.97944308941604,
5,0,5,0,5,0,5,0,,,,,,,,,,,,,,,,,,,,,,,,,,,,,,,,,,,,,,,,,,,,,,,,,,,,445.1856790999882,445.1856790999882,0.00636899983510375,0.09936420014128089,4.0,3.1605346999131143,,,,,,,,,,,,,5914,Moral,2024-11-13_17h27.28.357,MoralCondition_v2,2022.2.5,29.97944308941604,
5,0,5,0,6,0,6,0,,,,,,,,,,,,,,,,,,,,,,,,,,,,,,,,,,,,,,,,,,,,,,,,,,,,448.38558520004153,448.38558520004153,0.007263700012117624,0.09764189971610904,2.0,3.2583925002254546,,,,,,,,,,,,,5914,Moral,2024-11-13_17h27.28.357,MoralCondition_v2,2022.2.5,29.97944308941604,
5,0,5,0,,,,,,,,,,,,,,,,,,,,,,,,,,,,,,,,,,,,,,,,,,,,,,,,,,,,,,,,,,,,,,451.68572300020605,451.68572300020605,0.000767500139772892,0.09908000007271767,6.0,5.099524000193924,,,,,,,5914,Moral,2024-11-13_17h27.28.357,MoralCondition_v2,2022.2.5,29.97944308941604,
6,0,6,0,0,0,0,0,,,,,,,,,,,,,,,,,,,,456.81927119987085,0.0001734001561999321,0.09912090003490448,462.83574520004913,6.015813200268894,463.05257900012657,463.05257900012657,0.11858669994398952,0.2324363999068737,5.999051900114864,469.11907339980826,469.11907339980826,469.11907339980826,0.08666219981387258,0.19928380008786917,474.8190334001556,475.01903149997815,5.999014699831605,6.099353299941868,481.0189843000844,11.999092599842697,481.1189727000892,481.1189727000892,481.1189727000892,481.1189727000892,0.0003130999393761158,0.09913859982043505,up,0.4106860999017954,481.58570430008695,4.349974915385246e-05,0.09785449970513582,487.600513599813,487.600513599813,0.008886399678885937,0.13134439988061786,5.0,2.456740400288254,,,,,,,,,487.600513599813,,6.0990483998321,12.09911369998008,5914,Moral,2024-11-13_17h27.28.357,MoralCondition_v2,2022.2.5,29.97944308941604,
6,0,6,0,1,0,1,0,,,,,,,,,,,,,,,,,,,,,,,,,,,,,,,,,,,,,,,,,,,,,,,,,,,,490.08553020004183,490.08553020004183,0.007526899687945843,0.0974876000545919,6.0,1.291309999767691,,,,,,,,,,,,,5914,Moral,2024-11-13_17h27.28.357,MoralCondition_v2,2022.2.5,29.97944308941604,
6,0,6,0,2,0,2,0,,,,,,,,,,,,,,,,,,,,,,,,,,,,,,,,,,,,,,,,,,,,,,,,,,,,491.41897139977664,491.41897139977664,0.007073800079524517,0.09843310015276074,2.0,1.7256137002259493,,,,,,,,,,,,,5914,Moral,2024-11-13_17h27.28.357,MoralCondition_v2,2022.2.5,29.97944308941604,
6,0,6,0,3,0,3,0,,,,,,,,,,,,,,,,,,,,,,,,,,,,,,,,,,,,,,,,,,,,,,,,,,,,493.20252409996465,493.20252409996465,0.008203800301998854,0.1140544000081718,2.0,0.8404183997772634,,,,,,,,,,,,,5914,Moral,2024-11-13_17h27.28.357,MoralCondition_v2,2022.2.5,29.97944308941604,
6,0,6,0,4,0,4,0,,,,,,,,,,,,,,,,,,,,,,,,,,,,,,,,,,,,,,,,,,,,,,,,,,,,494.0856987000443,494.0856987000443,0.00787709979340434,0.11427260003983974,2.0,0.8742184997536242,,,,,,,,,,,,,5914,Moral,2024-11-13_17h27.28.357,MoralCondition_v2,2022.2.5,29.97944308941604,
6,0,6,0,5,0,5,0,,,,,,,,,,,,,,,,,,,,,,,,,,,,,,,,,,,,,,,,,,,,,,,,,,,,494.9854814000428,494.9854814000428,0.007805400062352419,0.09932219982147217,2.0,1.0258468999527395,,,,,,,,,,,,,5914,Moral,2024-11-13_17h27.28.357,MoralCondition_v2,2022.2.5,29.97944308941604,
6,0,6,0,6,0,6,0,,,,,,,,,,,,,,,,,,,,,,,,,,,,,,,,,,,,,,,,,,,,,,,,,,,,496.05208670021966,496.05208670021966,0.006097500212490559,0.09910300001502037,3.0,1.8943093996495008,,,,,,,,,,,,,5914,Moral,2024-11-13_17h27.28.357,MoralCondition_v2,2022.2.5,29.97944308941604,
6,0,6,0,,,,,,,,,,,,,,,,,,,,,,,,,,,,,,,,,,,,,,,,,,,,,,,,,,,,,,,,,,,,,,497.98563219979405,497.98563219979405,0.0007138997316360474,0.09890839969739318,6.0,1.5664858999662101,,,,,,,5914,Moral,2024-11-13_17h27.28.357,MoralCondition_v2,2022.2.5,29.97944308941604,
7,0,7,0,0,0,0,0,,,,,,,,,,,,,,,,,,,,499.5856547001749,0.0005005998536944389,0.0972418999299407,505.58573789987713,6.030703499913216,505.8022302999161,505.8022302999161,0.10989529965445399,0.21390169952064753,6.013861699495465,511.86902739992365,511.86902739992365,511.86902739992365,0.07237739954143763,0.18087329948320985,517.5689504998736,517.7690062997863,6.013960899785161,6.1138435998000205,523.7689474001527,12.01389699941501,523.86895309994,523.86895309994,523.9023271999322,523.9023271999322,0.014176899567246437,0.11380469938740134,down,0.7159892995841801,524.6690337001346,4.620011895895004e-05,0.09780769981443882,530.6687857001089,530.6687857001089,0.005772300064563751,0.0977754001505673,6.0,1.7930443999357522,,,,,,,,,530.6687857001089,,,,5914,Moral,2024-11-13_17h27.28.357,MoralCondition_v2,2022.2.5,29.97944308941604,
7,0,7,0,1,0,1,0,,,,,,,,,,,,,,,,,,,,,,,,,,,,,,,,,,,,,,,,,,,,,,,,,,,,532.5190694001503,532.5190694001503,0.008177699986845255,0.11405989993363619,5.0,4.1401307000778615,,,,,,,,,,,,,5914,Moral,2024-11-13_17h27.28.357,MoralCondition_v2,2022.2.5,29.97944308941604,
7,0,7,0,2,0,2,0,,,,,,,,,,,,,,,,,,,,,,,,,,,,,,,,,,,,,,,,,,,,,,,,,,,,536.685481400229,536.685481400229,0.0062456997111439705,0.09954089997336268,2.0,2.760297799948603,,,,,,,,,,,,,5914,Moral,2024-11-13_17h27.28.357,MoralCondition_v2,2022.2.5,29.97944308941604,
7,0,7,0,3,0,3,0,,,,,,,,,,,,,,,,,,,,,,,,,,,,,,,,,,,,,,,,,,,,,,,,,,,,539.4854490999132,539.4854490999132,0.0055504003539681435,0.09931730013340712,2.0,1.5281405998393893,,,,,,,,,,,,,5914,Moral,2024-11-13_17h27.28.357,MoralCondition_v2,2022.2.5,29.97944308941604,
7,0,7,0,4,0,4,0,,,,,,,,,,,,,,,,,,,,,,,,,,,,,,,,,,,,,,,,,,,,,,,,,,,,541.0522203999572,541.0522203999572,0.006663599982857704,0.09814739972352982,6.0,3.559402000159025,,,,,,,,,,,,,5914,Moral,2024-11-13_17h27.28.357,MoralCondition_v2,2022.2.5,29.97944308941604,
7,0,7,0,5,0,5,0,,,,,,,,,,,,,,,,,,,,,,,,,,,,,,,,,,,,,,,,,,,,,,,,,,,,544.6522177997977,544.6522177997977,0.007446399889886379,0.09772140020504594,2.0,1.6579658002592623,,,,,,,,,,,,,5914,Moral,2024-11-13_17h27.28.357,MoralCondition_v2,2022.2.5,29.97944308941604,
7,0,7,0,6,0,6,0,,,,,,,,,,,,,,,,,,,,,,,,,,,,,,,,,,,,,,,,,,,,,,,,,,,,546.3689469997771,546.3689469997771,0.008293800055980682,0.1146327001042664,2.0,1.140814899932593,,,,,,,,,,,,,5914,Moral,2024-11-13_17h27.28.357,MoralCondition_v2,2022.2.5,29.97944308941604,
7,0,7,0,,,,,,,,,,,,,,,,,,,,,,,,,,,,,,,,,,,,,,,,,,,,,,,,,,,,,,,,,,,,,,547.5357773001306,547.5357773001306,0.0007140999659895897,0.0992136001586914,3.0,6.932885800022632,,,,,,,5914,Moral,2024-11-13_17h27.28.357,MoralCondition_v2,2022.2.5,29.97944308941604,
8,0,8,0,0,0,0,0,,,,,,,,,,,,,,,,,,,,554.5023139999248,0.0001472998410463333,0.09928289987146854,560.5192069001496,6.015993899665773,560.702197200153,560.702197200153,0.08492659963667393,0.19909739959985018,5.999175399541855,566.7687709000893,566.7687709000893,566.7687709000893,0.06235859962180257,0.16596229979768395,572.4688870999962,572.6689049000852,5.999185899738222,6.099140499718487,578.6688727000728,11.999144699890167,578.7688350002281,578.7688350002281,578.8021929999813,578.8021929999813,-5.700020119547844e-05,0.09907739935442805,up,1.0794747998006642,579.9355121999979,4.730001091957092e-05,0.09782759984955192,585.952189499978,585.952189499978,0.01104309968650341,0.1145691997371614,3.0,5.737874600104988,,,,,,,566.7687709000893,566.7687709000893,585.952189499978,,6.099115799646825,12.099177999887615,5914,Moral,2024-11-13_17h27.28.357,MoralCondition_v2,2022.2.5,29.97944308941604,
8,0,8,0,1,0,1,0,,,,,,,,,,,,,,,,,,,,,,,,,,,,,,,,,,,,,,,,,,,,,,,,,,,,591.7191614001058,591.7191614001058,0.007068000268191099,0.09805470006540418,6.0,3.325160500127822,,,,,,,,,,,,,5914,Moral,2024-11-13_17h27.28.357,MoralCondition_v2,2022.2.5,29.97944308941604,
8,0,8,0,2,0,2,0,,,,,,,,,,,,,,,,,,,,,,,,,,,,,,,,,,,,,,,,,,,,,,,,,,,,595.0854378999211,595.0854378999211,0.007778999861329794,0.09795249998569489,5.0,1.3914308999665082,,,,,,,,,,,,,5914,Moral,2024-11-13_17h27.28.357,MoralCondition_v2,2022.2.5,29.97944308941604,
8,0,8,0,3,0,3,0,,,,,,,,,,,,,,,,,,,,,,,,,,,,,,,,,,,,,,,,,,,,,,,,,,,,596.5186581998132,596.5186581998132,0.007516499608755112,0.09810969978570938,5.0,3.691614900249988,,,,,,,,,,,,,5914,Moral,2024-11-13_17h27.28.357,MoralCondition_v2,2022.2.5,29.97944308941604,
8,0,8,0,4,0,4,0,,,,,,,,,,,,,,,,,,,,,,,,,,,,,,,,,,,,,,,,,,,,,,,,,,,,600.2522150999866,600.2522150999866,0.0066419001668691635,0.09914250019937754,5.0,4.060288900043815,,,,,,,,,,,,,5914,Moral,2024-11-13_17h27.28.357,MoralCondition_v2,2022.2.5,29.97944308941604,
8,0,8,0,5,0,5,0,,,,,,,,,,,,,,,,,,,,,,,,,,,,,,,,,,,,,,,,,,,,,,,,,,,,604.3522057998925,604.3522057998925,0.007339500356465578,0.09782670019194484,6.0,2.7583494000136852,,,,,,,,,,,,,5914,Moral,2024-11-13_17h27.28.357,MoralCondition_v2,2022.2.5,29.97944308941604,
8,0,8,0,6,0,6,0,,,,,,,,,,,,,,,,,,,,,,,,,,,,,,,,,,,,,,,,,,,,,,,,,,,,607.1687497999519,607.1687497999519,0.007177900057286024,0.11378029966726899,3.0,1.840970799792558,,,,,,,,,,,,,5914,Moral,2024-11-13_17h27.28.357,MoralCondition_v2,2022.2.5,29.97944308941604,
8,0,8,0,,,,,,,,,,,,,,,,,,,,,,,,,,,,,,,,,,,,,,,,,,,,,,,,,,,,,,,,,,,,,,609.0354570997879,609.0354570997879,0.0007719001732766628,0.09920220030471683,2.0,3.199710600078106,,,,,,,5914,Moral,2024-11-13_17h27.28.357,MoralCondition_v2,2022.2.5,29.97944308941604,
9,0,9,0,0,0,0,0,,,,,,,,,,,,,,,,,,,,612.2690356001258,0.00030250009149312973,0.0978744002059102,618.2685684999451,6.03078979998827,618.4855108000338,618.4855108000338,0.11291190003976226,0.21446740021929145,6.014704999979585,624.5521102999337,624.5521102999337,624.5521102999337,0.06907540000975132,0.18102450016885996,630.2521143998019,630.4519624998793,6.014185099862516,6.114576399791986,636.4521519001573,12.014454300049692,636.552195600234,636.552195600234,636.5855569997802,636.5855569997802,0.014662399888038635,0.11440620012581348,up,0.5119950999505818,637.1520830001682,4.6199653297662735e-05,0.09785629995167255,643.1856192001142,643.1856192001142,0.027067499700933695,0.13133420003578067,2.0,2.505335799884051,,,,,,,,,,,,,5914,Moral,2024-11-13_17h27.28.357,MoralCondition_v2,2022.2.5,29.97944308941604,
9,0,9,0,1,0,1,0,,,,,,,,,,,,,,,,,,,,,,,,,,,,,,,,,,,,,,,,,,,,,,,,,,,,645.7185622998513,645.7185622998513,0.0071600996889173985,0.09781039971858263,5.0,3.225291899871081,,,,,,,,,,,,,5914,Moral,2024-11-13_17h27.28.357,MoralCondition_v2,2022.2.5,29.97944308941604,
9,0,9,0,2,0,2,0,,,,,,,,,,,,,,,,,,,,,,,,,,,,,,,,,,,,,,,,,,,,,,,,,,,,648.985389099922,648.985389099922,0.007794899865984917,0.09820890007540584,5.0,1.6580024999566376,,,,,,,,,,,,,5914,Moral,2024-11-13_17h27.28.357,MoralCondition_v2,2022.2.5,29.97944308941604,
9,0,9,0,3,0,3,0,,,,,,,,,,,,,,,,,,,,,,,,,,,,,,,,,,,,,,,,,,,,,,,,,,,,650.702152099926,650.702152099926,0.010131699964404106,0.11590370023623109,3.0,2.573462599888444,,,,,,,,,,,,,5914,Moral,2024-11-13_17h27.28.357,MoralCondition_v2,2022.2.5,29.97944308941604,
9,0,9,0,4,0,4,0,,,,,,,,,,,,,,,,,,,,,,,,,,,,,,,,,,,,,,,,,,,,,,,,,,,,653.3189866999164,653.3189866999164,0.008008400443941355,0.11433460004627705,2.0,2.440869400277734,,,,,,,,,,,,,5914,Moral,2024-11-13_17h27.28.357,MoralCondition_v2,2022.2.5,29.97944308941604,
9,0,9,0,5,0,5,0,,,,,,,,,,,,,,,,,,,,,,,,,,,,,,,,,,,,,,,,,,,,,,,,,,,,655.7853184998967,655.7853184998967,0.00669749965891242,0.09912149980664253,5.0,2.56010439991951,,,,,,,,,,,,,5914,Moral,2024-11-13_17h27.28.357,MoralCondition_v2,2022.2.5,29.97944308941604,
9,0,9,0,6,0,6,0,,,,,,,,,,,,,,,,,,,,,,,,,,,,,,,,,,,,,,,,,,,,,,,,,,,,658.3854387002066,658.3854387002066,0.007215199992060661,0.09766560001298785,3.0,2.0916452002711594,,,,,,,,,,,,,5914,Moral,2024-11-13_17h27.28.357,MoralCondition_v2,2022.2.5,29.97944308941604,
9,0,9,0,,,,,,,,,,,,,,,,,,,,,,,,,,,,,,,,,,,,,,,,,,,,,,,,,,,,,,,,,,,,,,660.518680700101,660.518680700101,0.0007695998065173626,0.09922740003094077,4.0,2.599662700202316,,,,,,,5914,Moral,2024-11-13_17h27.28.357,MoralCondition_v2,2022.2.5,29.97944308941604,
10,0,10,0,0,0,0,0,,,,,,,,,,,,,,,,,,,,663.1519892001525,0.0001459997147321701,0.09920099982991815,669.1686518997885,6.015895599965006,669.3522580000572,669.3522580000572,0.09161309991031885,0.199469399638474,5.99916289979592,675.4185759001411,675.4185759001411,675.4185759001411,0.061228999868035316,0.16606009984388947,681.1187344999053,681.3186849001795,5.999256699811667,6.099123399704695,687.3186146998778,11.999168399721384,687.4185966001824,687.4185966001824,687.4519226001576,687.4519226001576,-1.1700205504894257e-05,0.09919059975072742,down,0.7181153995916247,688.2186044999398,4.79002483189106e-05,0.09774930030107498,694.2352692000568,694.2352692000568,0.008894800208508968,0.11471410002559423,2.0,1.9067381001077592,,,,,,,675.4185759001411,675.4185759001411,694.2352692000568,,6.099143399856985,12.099162599537522,5914,Moral,2024-11-13_17h27.28.357,MoralCondition_v2,2022.2.5,29.97944308941604,
10,0,10,0,1,0,1,0,,,,,,,,,,,,,,,,,,,,,,,,,,,,,,,,,,,,,,,,,,,,,,,,,,,,696.1684241998009,696.1684241998009,0.008604600094258785,0.09901139978319407,6.0,1.724645999725908,,,,,,,,,,,,,5914,Moral,2024-11-13_17h27.28.357,MoralCondition_v2,2022.2.5,29.97944308941604,
10,0,10,0,2,0,2,0,,,,,,,,,,,,,,,,,,,,,,,,,,,,,,,,,,,,,,,,,,,,,,,,,,,,697.9351872000843,697.9351872000843,0.005392599850893021,0.09930319990962744,2.0,1.3617324996739626,,,,,,,,,,,,,5914,Moral,2024-11-13_17h27.28.357,MoralCondition_v2,2022.2.5,29.97944308941604,
10,0,10,0,3,0,3,0,,,,,,,,,,,,,,,,,,,,,,,,,,,,,,,,,,,,,,,,,,,,,,,,,,,,699.3521843999624,699.3521843999624,0.00862340023741126,0.11407200014218688,6.0,1.0064351996406913,,,,,,,,,,,,,5914,Moral,2024-11-13_17h27.28.357,MoralCondition_v2,2022.2.5,29.97944308941604,
10,0,10,0,4,0,4,0,,,,,,,,,,,,,,,,,,,,,,,,,,,,,,,,,,,,,,,,,,,,,,,,,,,,700.3851533001289,700.3851533001289,0.007668999955058098,0.09867839980870485,2.0,1.025662699714303,,,,,,,,,,,,,5914,Moral,2024-11-13_17h27.28.357,MoralCondition_v2,2022.2.5,29.97944308941604,
10,0,10,0,5,0,5,0,,,,,,,,,,,,,,,,,,,,,,,,,,,,,,,,,,,,,,,,,,,,,,,,,,,,701.4518415001221,701.4518415001221,0.00800959998741746,0.09851269982755184,3.0,1.9249681998044252,,,,,,,,,,,,,5914,Moral,2024-11-13_17h27.28.357,MoralCondition_v2,2022.2.5,29.97944308941604,
10,0,10,0,6,0,6,0,,,,,,,,,,,,,,,,,,,,,,,,,,,,,,,,,,,,,,,,,,,,,,,,,,,,703.4184174002148,703.4184174002148,0.006333199795335531,0.09909209981560707,2.0,1.1274425000883639,,,,,,,,,,,,,5914,Moral,2024-11-13_17h27.28.357,MoralCondition_v2,2022.2.5,29.97944308941604,
10,0,10,0,,,,,,,,,,,,,,,,,,,,,,,,,,,,,,,,,,,,,,,,,,,,,,,,,,,,,,,,,,,,,,704.5851186998188,704.5851186998188,0.002160799689590931,0.09730929974466562,4.0,3.563080799765885,,,,,,,5914,Moral,2024-11-13_17h27.28.357,MoralCondition_v2,2022.2.5,29.97944308941604,
11,0,11,0,0,0,0,0,,,,,,,,,,,,,,,,,,,,708.1852897000499,0.00037510041147470474,0.09771010000258684,714.1852277000435,6.030991500243545,714.3851537997834,714.3851537997834,0.09710630029439926,0.19750230014324188,6.03102400014177,720.4850159999914,720.4850159999914,720.4850159999914,0.09387659979984164,0.19784650020301342,726.185158399865,726.3852026998065,6.031256699934602,6.1308976002037525,732.3851803001016,12.030950999818742,732.4851214000955,732.4851214000955,732.5184778999537,732.5184778999537,0.03104689996689558,0.1311129997484386,up,0.4512075996026397,733.0185159998946,4.859967157244682e-05,0.09794999985024333,739.0351042998955,739.0351042998955,0.02129399962723255,0.11468329979106784,2.0,1.7608439000323415,,,,,,,720.3854032000527,720.3854032000527,,,,,5914,Moral,2024-11-13_17h27.28.357,MoralCondition_v2,2022.2.5,29.97944308941604,
11,0,11,0,1,0,1,0,,,,,,,,,,,,,,,,,,,,,,,,,,,,,,,,,,,,,,,,,,,,,,,,,,,,740.8350848001428,740.8350848001428,0.007595099974423647,0.09789830027148128,5.0,1.6912718997336924,,,,,,,,,,,,,5914,Moral,2024-11-13_17h27.28.357,MoralCondition_v2,2022.2.5,29.97944308941604,
11,0,11,0,2,0,2,0,,,,,,,,,,,,,,,,,,,,,,,,,,,,,,,,,,,,,,,,,,,,,,,,,,,,742.5683260001242,742.5683260001242,0.006532399915158749,0.0991734997369349,2.0,1.1937382998876274,,,,,,,,,,,,,5914,Moral,2024-11-13_17h27.28.357,MoralCondition_v2,2022.2.5,29.97944308941604,
11,0,11,0,3,0,3,0,,,,,,,,,,,,,,,,,,,,,,,,,,,,,,,,,,,,,,,,,,,,,,,,,,,,743.8016673000529,743.8016673000529,0.00669539999216795,0.09904380002990365,3.0,3.7460724003612995,,,,,,,,,,,,,5914,Moral,2024-11-13_17h27.28.357,MoralCondition_v2,2022.2.5,29.97944308941604,
11,0,11,0,4,0,4,0,,,,,,,,,,,,,,,,,,,,,,,,,,,,,,,,,,,,,,,,,,,,,,,,,,,,747.5847779000178,747.5847779000178,0.007904599886387587,0.09917639987543225,3.0,8.159156899899244,,,,,,,,,,,,,5914,Moral,2024-11-13_17h27.28.357,MoralCondition_v2,2022.2.5,29.97944308941604,
11,0,11,0,5,0,5,0,,,,,,,,,,,,,,,,,,,,,,,,,,,,,,,,,,,,,,,,,,,,,,,,,,,,755.7849806998856,755.7849806998856,0.007049900013953447,0.09847329976037145,6.0,1.0591100002638996,,,,,,,,,,,,,5914,Moral,2024-11-13_17h27.28.357,MoralCondition_v2,2022.2.5,29.97944308941604,
11,0,11,0,6,0,6,0,,,,,,,,,,,,,,,,,,,,,,,,,,,,,,,,,,,,,,,,,,,,,,,,,,,,756.8851586999372,756.8851586999372,0.006758200004696846,0.09917329996824265,2.0,2.1268557999283075,,,,,,,,,,,,,5914,Moral,2024-11-13_17h27.28.357,MoralCondition_v2,2022.2.5,29.97944308941604,
11,0,11,0,,,,,,,,,,,,,,,,,,,,,,,,,,,,,,,,,,,,,,,,,,,,,,,,,,,,,,,,,,,,,,759.051753200125,759.051753200125,0.00104490015655756,0.09859330020844936,6.0,2.631992000155151,,,,,,,5914,Moral,2024-11-13_17h27.28.357,MoralCondition_v2,2022.2.5,29.97944308941604,
12,0,12,0,0,0,0,0,,,,,,,,,,,,,,,,,,,,761.7184488000348,0.00021689990535378456,0.09829270001500845,767.7015166999772,6.014738900121301,767.9019645000808,767.9019645000808,0.06723070004954934,0.18163800006732345,6.014961599837989,774.001638900023,774.001638900023,774.001638900023,0.07888059969991446,0.18171249981969595,779.7018133001402,779.9017071998678,6.015074099879712,6.114683999679983,785.9016471998766,12.014952499885112,786.0018675001338,786.0018675001338,786.0351840001531,786.0351840001531,0.01524699991568923,0.11488399980589747,down,0.7428735001012683,786.8350138999522,7.459986954927444e-05,0.09774710005149245,792.8517932998948,792.8517932998948,0.011322500184178352,0.11440690001472831,5.0,1.7375382999889553,,,,,,,773.9017691998743,773.9017691998743,792.8517932998948,6.098351799882948,,,5914,Moral,2024-11-13_17h27.28.357,MoralCondition_v2,2022.2.5,29.97944308941604,
12,0,12,0,1,0,1,0,,,,,,,,,,,,,,,,,,,,,,,,,,,,,,,,,,,,,,,,,,,,,,,,,,,,794.6183174001053,794.6183174001053,0.0065218000672757626,0.09928000019863248,2.0,1.1937485998496413,,,,,,,,,,,,,5914,Moral,2024-11-13_17h27.28.357,MoralCondition_v2,2022.2.5,29.97944308941604,
12,0,12,0,2,0,2,0,,,,,,,,,,,,,,,,,,,,,,,,,,,,,,,,,,,,,,,,,,,,,,,,,,,,795.8517232001759,795.8517232001759,0.0072952997870743275,0.09799169981852174,7.0,1.6251373998820782,,,,,,,,,,,,,5914,Moral,2024-11-13_17h27.28.357,MoralCondition_v2,2022.2.5,29.97944308941604,
12,0,12,0,3,0,3,0,,,,,,,,,,,,,,,,,,,,,,,,,,,,,,,,,,,,,,,,,,,,,,,,,,,,797.5351506001316,797.5351506001316,0.007907000370323658,0.11413030000403523,3.0,3.274031499866396,,,,,,,,,,,,,5914,Moral,2024-11-13_17h27.28.357,MoralCondition_v2,2022.2.5,29.97944308941604,
12,0,12,0,4,0,4,0,,,,,,,,,,,,,,,,,,,,,,,,,,,,,,,,,,,,,,,,,,,,,,,,,,,,800.834838999901,800.834838999901,0.009091199841350317,0.09945470001548529,2.0,1.1578942998312414,,,,,,,,,,,,,5914,Moral,2024-11-13_17h27.28.357,MoralCondition_v2,2022.2.5,29.97944308941604,
12,0,12,0,5,0,5,0,,,,,,,,,,,,,,,,,,,,,,,,,,,,,,,,,,,,,,,,,,,,,,,,,,,,802.0349002000876,802.0349002000876,0.007590100169181824,0.09783839993178844,2.0,1.7911263001151383,,,,,,,,,,,,,5914,Moral,2024-11-13_17h27.28.357,MoralCondition_v2,2022.2.5,29.97944308941604,
12,0,12,0,6,0,6,0,,,,,,,,,,,,,,,,,,,,,,,,,,,,,,,,,,,,,,,,,,,,,,,,,,,,803.868153499905,803.868153499905,0.007059299852699041,0.09826490003615618,5.0,1.3256939998827875,,,,,,,,,,,,,5914,Moral,2024-11-13_17h27.28.357,MoralCondition_v2,2022.2.5,29.97944308941604,
12,0,12,0,,,,,,,,,,,,,,,,,,,,,,,,,,,,,,,,,,,,,,,,,,,,,,,,,,,,,,,,,,,,,,805.2352378000505,805.2352378000505,0.0007357001304626465,0.09913530014455318,3.0,3.56638569990173,,,,,,,5914,Moral,2024-11-13_17h27.28.357,MoralCondition_v2,2022.2.5,29.97944308941604,
13,0,13,0,0,0,0,0,,,,,,,,,,,,,,,,,,,,808.8351985998452,0.0002879002131521702,0.09822120005264878,814.8349250000902,6.031572999898344,815.0182627001777,815.0182627001777,0.08180790022015572,0.1815925999544561,6.014923000242561,821.1184360999614,821.1184360999614,821.1184360999614,0.07362299971282482,0.18148239981383085,826.8182294000871,827.0182227999903,6.0148732997477055,6.114870700053871,833.018218500074,12.014898699708283,833.1182062001899,833.1182062001899,833.1515664998442,833.1515664998442,0.015008300077170134,0.11483219964429736,up,1.0029674000106752,834.2184247002006,5.330005660653114e-05,0.09776159981265664,840.2348289000802,840.2348289000802,0.023005600087344646,0.11411699978634715,2.0,1.8257373999804258,,,,,,,821.0182345001958,821.0182345001958,,,,,5914,Moral,2024-11-13_17h27.28.357,MoralCondition_v2,2022.2.5,29.97944308941604,
13,0,13,0,1,0,1,0,,,,,,,,,,,,,,,,,,,,,,,,,,,,,,,,,,,,,,,,,,,,,,,,,,,,842.1013968000188,842.1013968000188,0.007762599736452103,0.09819009993225336,6.0,1.0914199999533594,,,,,,,,,,,,,5914,Moral,2024-11-13_17h27.28.357,MoralCondition_v2,2022.2.5,29.97944308941604,
13,0,13,0,2,0,2,0,,,,,,,,,,,,,,,,,,,,,,,,,,,,,,,,,,,,,,,,,,,,,,,,,,,,843.2347209001891,843.2347209001891,0.0069426000118255615,0.09798750001937151,5.0,1.6924186004325747,,,,,,,,,,,,,5914,Moral,2024-11-13_17h27.28.357,MoralCondition_v2,2022.2.5,29.97944308941604,
13,0,13,0,3,0,3,0,,,,,,,,,,,,,,,,,,,,,,,,,,,,,,,,,,,,,,,,,,,,,,,,,,,,844.9850437999703,844.9850437999703,0.007151800207793713,0.11499450029805303,2.0,1.1754878000356257,,,,,,,,,,,,,5914,Moral,2024-11-13_17h27.28.357,MoralCondition_v2,2022.2.5,29.97944308941604,
13,0,13,0,4,0,4,0,,,,,,,,,,,,,,,,,,,,,,,,,,,,,,,,,,,,,,,,,,,,,,,,,,,,846.201725800056,846.201725800056,0.00825559999793768,0.11451190011575818,2.0,0.8406516998074949,,,,,,,,,,,,,5914,Moral,2024-11-13_17h27.28.357,MoralCondition_v2,2022.2.5,29.97944308941604,
13,0,13,0,5,0,5,0,,,,,,,,,,,,,,,,,,,,,,,,,,,,,,,,,,,,,,,,,,,,,,,,,,,,847.0681656999514,847.0681656999514,0.007792099844664335,0.09903339995071292,2.0,0.6256529004313052,,,,,,,,,,,,,5914,Moral,2024-11-13_17h27.28.357,MoralCondition_v2,2022.2.5,29.97944308941604,
13,0,13,0,6,0,6,0,,,,,,,,,,,,,,,,,,,,,,,,,,,,,,,,,,,,,,,,,,,,,,,,,,,,847.7347935000435,847.7347935000435,0.007965000346302986,0.09871410019695759,3.0,1.691910000052303,,,,,,,,,,,,,5914,Moral,2024-11-13_17h27.28.357,MoralCondition_v2,2022.2.5,29.97944308941604,
13,0,13,0,,,,,,,,,,,,,,,,,,,,,,,,,,,,,,,,,,,,,,,,,,,,,,,,,,,,,,,,,,,,,,849.4683194002137,849.4683194002137,0.001862499862909317,0.09877629997208714,6.0,7.498085599858314,,,,,,,5914,Moral,2024-11-13_17h27.28.357,MoralCondition_v2,2022.2.5,29.97944308941604,
14,0,14,0,0,0,0,0,,,,,,,,,,,,,,,,,,,,857.0016593998298,0.000344699714332819,0.09816409973427653,863.0181447998621,6.014759799931198,863.1849274998531,863.1849274998531,0.07507179956883192,0.18177679972723126,6.01485289959237,869.2847680998966,869.2847680998966,869.2847680998966,0.07045309944078326,0.18163379980251193,874.9847818999551,875.1848026998341,6.014794499613345,6.114755699411035,881.1847953000106,12.014794099610299,881.2846814999357,881.2846814999357,881.3181111002341,881.3181111002341,0.014757899567484856,0.11472899932414293,up,1.075389000121504,882.4514064001851,5.190027877688408e-05,0.09772629989311099,888.468171000015,888.468171000015,0.008739199955016375,0.11452360032126307,5.0,1.5733908000402153,,,,,,,869.1847995999269,869.1847995999269,888.468171000015,,,,5914,Moral,2024-11-13_17h27.28.357,MoralCondition_v2,2022.2.5,29.97944308941604,
14,0,14,0,1,0,1,0,,,,,,,,,,,,,,,,,,,,,,,,,,,,,,,,,,,,,,,,,,,,,,,,,,,,890.0682048001327,890.0682048001327,0.007255799602717161,0.09761029994115233,2.0,1.5247598001733422,,,,,,,,,,,,,5914,Moral,2024-11-13_17h27.28.357,MoralCondition_v2,2022.2.5,29.97944308941604,
14,0,14,0,2,0,2,0,,,,,,,,,,,,,,,,,,,,,,,,,,,,,,,,,,,,,,,,,,,,,,,,,,,,891.6347015998326,891.6347015998326,0.007770400028675795,0.09806720027700067,3.0,1.6248832000419497,,,,,,,,,,,,,5914,Moral,2024-11-13_17h27.28.357,MoralCondition_v2,2022.2.5,29.97944308941604,
14,0,14,0,3,0,3,0,,,,,,,,,,,,,,,,,,,,,,,,,,,,,,,,,,,,,,,,,,,,,,,,,,,,893.3014755002223,893.3014755002223,0.007104000076651573,0.09826700016856194,2.0,1.2255552997812629,,,,,,,,,,,,,5914,Moral,2024-11-13_17h27.28.357,MoralCondition_v2,2022.2.5,29.97944308941604,
14,0,14,0,4,0,4,0,,,,,,,,,,,,,,,,,,,,,,,,,,,,,,,,,,,,,,,,,,,,,,,,,,,,894.5680581000634,894.5680581000634,0.007381599862128496,0.09800839982926846,5.0,1.2583311996422708,,,,,,,,,,,,,5914,Moral,2024-11-13_17h27.28.357,MoralCondition_v2,2022.2.5,29.97944308941604,
14,0,14,0,5,0,5,0,,,,,,,,,,,,,,,,,,,,,,,,,,,,,,,,,,,,,,,,,,,,,,,,,,,,895.884643800091,895.884643800091,0.008237000089138746,0.11450840020552278,5.0,1.8406408000737429,,,,,,,,,,,,,5914,Moral,2024-11-13_17h27.28.357,MoralCondition_v2,2022.2.5,29.97944308941604,
14,0,14,0,6,0,6,0,,,,,,,,,,,,,,,,,,,,,,,,,,,,,,,,,,,,,,,,,,,,,,,,,,,,897.7683856999502,897.7683856999502,0.008487400133162737,0.11494670016691089,5.0,1.4740083003416657,,,,,,,,,,,,,5914,Moral,2024-11-13_17h27.28.357,MoralCondition_v2,2022.2.5,29.97944308941604,
14,0,14,0,,,,,,,,,,,,,,,,,,,,,,,,,,,,,,,,,,,,,,,,,,,,,,,,,,,,,,,,,,,,,,899.2681267000735,899.2681267000735,0.001281800214201212,0.09771530004218221,3.0,2.364247700199485,,,,,,,5914,Moral,2024-11-13_17h27.28.357,MoralCondition_v2,2022.2.5,29.97944308941604,
15,0,15,0,0,0,0,0,,,,,,,,,,,,,,,,,,,,901.6682834997773,0.0002856999635696411,0.0993661000393331,907.6680300999433,5.999104399699718,907.8346103001386,907.8346103001386,0.06616799952462316,0.16601529950276017,5.999043199699372,913.9347020001151,913.9347020001151,913.9347020001151,0.0609178994782269,0.16588269965723157,919.6346954000182,919.8680281001143,5.99901369959116,6.0990407997742295,925.8679835000075,11.99903649976477,925.9346806998365,925.9346806998365,925.9679866000079,925.9679866000079,-1.6600359231233597e-05,0.09902249975129962,down,0.7140863998793066,926.7179930000566,3.6499928683042526e-05,0.0979356998577714,932.7515802998096,932.7515802998096,0.025575299747288227,0.13119049975648522,2.0,1.873274200130254,,,,,,,913.8347105998546,913.8347105998546,,6.099021999631077,6.099089699797332,12.099075899459422,5914,Moral,2024-11-13_17h27.28.357,MoralCondition_v2,2022.2.5,29.97944308941604,
15,0,15,0,1,0,1,0,,,,,,,,,,,,,,,,,,,,,,,,,,,,,,,,,,,,,,,,,,,,,,,,,,,,934.651233300101,934.651233300101,0.007127199787646532,0.09806629968807101,2.0,1.392103400081396,,,,,,,,,,,,,5914,Moral,2024-11-13_17h27.28.357,MoralCondition_v2,2022.2.5,29.97944308941604,
15,0,15,0,2,0,2,0,,,,,,,,,,,,,,,,,,,,,,,,,,,,,,,,,,,,,,,,,,,,,,,,,,,,936.0846664002165,936.0846664002165,0.007351300213485956,0.09768830006942153,3.0,2.5917353997938335,,,,,,,,,,,,,5914,Moral,2024-11-13_17h27.28.357,MoralCondition_v2,2022.2.5,29.97944308941604,
15,0,15,0,3,0,3,0,,,,,,,,,,,,,,,,,,,,,,,,,,,,,,,,,,,,,,,,,,,,,,,,,,,,938.7179145999253,938.7179145999253,0.007023999933153391,0.09851380018517375,6.0,1.859469700139016,,,,,,,,,,,,,5914,Moral,2024-11-13_17h27.28.357,MoralCondition_v2,2022.2.5,29.97944308941604,
15,0,15,0,4,0,4,0,,,,,,,,,,,,,,,,,,,,,,,,,,,,,,,,,,,,,,,,,,,,,,,,,,,,940.6178998001851,940.6178998001851,0.00675030006095767,0.09844480035826564,6.0,0.9927141997031868,,,,,,,,,,,,,5914,Moral,2024-11-13_17h27.28.357,MoralCondition_v2,2022.2.5,29.97944308941604,
15,0,15,0,5,0,5,0,,,,,,,,,,,,,,,,,,,,,,,,,,,,,,,,,,,,,,,,,,,,,,,,,,,,941.6516140000895,941.6516140000895,0.0077956002205610275,0.09753060014918447,2.0,2.724326599854976,,,,,,,,,,,,,5914,Moral,2024-11-13_17h27.28.357,MoralCondition_v2,2022.2.5,29.97944308941604,
15,0,15,0,6,0,6,0,,,,,,,,,,,,,,,,,,,,,,,,,,,,,,,,,,,,,,,,,,,,,,,,,,,,944.4179324000143,944.4179324000143,0.007165499962866306,0.09896080009639263,6.0,0.7928194999694824,,,,,,,,,,,,,5914,Moral,2024-11-13_17h27.28.357,MoralCondition_v2,2022.2.5,29.97944308941604,
15,0,15,0,,,,,,,,,,,,,,,,,,,,,,,,,,,,,,,,,,,,,,,,,,,,,,,,,,,,,,,,,,,,,,945.2511932998896,945.2511932998896,0.0007866001687943935,0.09910820005461574,2.0,2.8995817000977695,,,,,,,5914,Moral,2024-11-13_17h27.28.357,MoralCondition_v2,2022.2.5,29.97944308941604,
16,0,16,0,0,0,0,0,,,,,,,,,,,,,,,,,,,,948.1847096001729,0.00025029992684721947,0.09836369985714555,954.2012881999835,6.015208300203085,954.3678341000341,954.3678341000341,0.07720299996435642,0.1818804000504315,6.014978900086135,960.4680435000919,960.4680435000919,960.4680435000919,0.06941999960690737,0.18185949977487326,966.167880800087,966.3678986998275,6.015044800005853,6.115024899598211,972.3678954001516,12.015004399698228,972.4678660999052,972.4678660999052,972.501232100185,972.501232100185,0.015131399966776371,0.11495879990980029,up,0.7565465001389384,973.3012128998525,4.009995609521866e-05,0.0978923998773098,979.3347788001411,979.3347788001411,0.026332199573516846,0.1314054997637868,2.0,1.5392514998093247,,,,,,,960.3678979999386,960.3678979999386,,,,,5914,Moral,2024-11-13_17h27.28.357,MoralCondition_v2,2022.2.5,29.97944308941604,
16,0,16,0,1,0,1,0,,,,,,,,,,,,,,,,,,,,,,,,,,,,,,,,,,,,,,,,,,,,,,,,,,,,980.901096300222,980.901096300222,0.007122100330889225,0.0974774002097547,5.0,1.3916185996495187,,,,,,,,,,,,,5914,Moral,2024-11-13_17h27.28.357,MoralCondition_v2,2022.2.5,29.97944308941604,
16,0,16,0,2,0,2,0,,,,,,,,,,,,,,,,,,,,,,,,,,,,,,,,,,,,,,,,,,,,,,,,,,,,982.3344104997814,982.3344104997814,0.006513699889183044,0.0988626996986568,3.0,1.1934451004490256,,,,,,,,,,,,,5914,Moral,2024-11-13_17h27.28.357,MoralCondition_v2,2022.2.5,29.97944308941604,
16,0,16,0,3,0,3,0,,,,,,,,,,,,,,,,,,,,,,,,,,,,,,,,,,,,,,,,,,,,,,,,,,,,983.567919800058,983.567919800058,0.007247899658977985,0.09845409961417317,2.0,0.859215599950403,,,,,,,,,,,,,5914,Moral,2024-11-13_17h27.28.357,MoralCondition_v2,2022.2.5,29.97944308941604,
16,0,16,0,4,0,4,0,,,,,,,,,,,,,,,,,,,,,,,,,,,,,,,,,,,,,,,,,,,,,,,,,,,,984.4678421001881,984.4678421001881,0.0076929000206291676,0.09904860006645322,6.0,1.1591130997985601,,,,,,,,,,,,,5914,Moral,2024-11-13_17h27.28.357,MoralCondition_v2,2022.2.5,29.97944308941604,
16,0,16,0,5,0,5,0,,,,,,,,,,,,,,,,,,,,,,,,,,,,,,,,,,,,,,,,,,,,,,,,,,,,985.6677680001594,985.6677680001594,0.007199000101536512,0.09880670020356774,2.0,1.1261581000871956,,,,,,,,,,,,,5914,Moral,2024-11-13_17h27.28.357,MoralCondition_v2,2022.2.5,29.97944308941604,
16,0,16,0,6,0,6,0,,,,,,,,,,,,,,,,,,,,,,,,,,,,,,,,,,,,,,,,,,,,,,,,,,,,986.8510909001343,986.8510909001343,0.008667200338095427,0.11490130005404353,3.0,1.4406444998458028,,,,,,,,,,,,,5914,Moral,2024-11-13_17h27.28.357,MoralCondition_v2,2022.2.5,29.97944308941604,
16,0,16,0,,,,,,,,,,,,,,,,,,,,,,,,,,,,,,,,,,,,,,,,,,,,,,,,,,,,,,,,,,,,,,988.3177294000052,988.3177294000052,0.0020731003023684025,0.09764890000224113,6.0,2.296884700190276,,,,,,,5914,Moral,2024-11-13_17h27.28.357,MoralCondition_v2,2022.2.5,29.97944308941604,
17,0,17,0,0,0,0,0,,,,,,,,,,,,,,,,,,,,990.6514178002253,0.0002590999938547611,0.09817729983478785,996.6511960998178,6.03158860001713,996.8510838998482,996.8510838998482,0.09774329978972673,0.1983437999151647,6.031484500039369,1002.9511142000556,1002.9511142000556,1002.9511142000556,0.08934849966317415,0.19845669995993376,1008.6512281000614,1008.8510843999684,6.031474999617785,6.131442099809647,1014.8510990999639,12.031495299655944,1014.9513914999552,1014.9513914999552,1014.984426099807,1014.984426099807,0.03196799987927079,0.13145569991320372,down,0.5933977998793125,1015.6177586000413,5.030026659369469e-05,0.09801980014890432,1021.6343025998212,1021.6343025998212,0.02600400010123849,0.1145847998559475,2.0,2.3895018002949655,,,,,,,1002.8510814998299,1002.8510814998299,,,,,5914,Moral,2024-11-13_17h27.28.357,MoralCondition_v2,2022.2.5,29.97944308941604,
17,0,17,0,1,0,1,0,,,,,,,,,,,,,,,,,,,,,,,,,,,,,,,,,,,,,,,,,,,,,,,,,,,,1024.0676524997689,1024.0676524997689,0.00728789996355772,0.09791450016200542,5.0,2.424996300134808,,,,,,,,,,,,,5914,Moral,2024-11-13_17h27.28.357,MoralCondition_v2,2022.2.5,29.97944308941604,
17,0,17,0,2,0,2,0,,,,,,,,,,,,,,,,,,,,,,,,,,,,,,,,,,,,,,,,,,,,,,,,,,,,1026.534221699927,1026.534221699927,0.0068339998833835125,0.09823840018361807,5.0,2.0925302002578974,,,,,,,,,,,,,5914,Moral,2024-11-13_17h27.28.357,MoralCondition_v2,2022.2.5,29.97944308941604,
17,0,17,0,3,0,3,0,,,,,,,,,,,,,,,,,,,,,,,,,,,,,,,,,,,,,,,,,,,,,,,,,,,,1028.66763000004,1028.66763000004,0.007257699966430664,0.09790399996563792,5.0,1.5584044000133872,,,,,,,,,,,,,5914,Moral,2024-11-13_17h27.28.357,MoralCondition_v2,2022.2.5,29.97944308941604,
17,0,17,0,4,0,4,0,,,,,,,,,,,,,,,,,,,,,,,,,,,,,,,,,,,,,,,,,,,,,,,,,,,,1030.2677202001214,1030.2677202001214,0.006980599835515022,0.09917020006105304,6.0,1.0267184996046126,,,,,,,,,,,,,5914,Moral,2024-11-13_17h27.28.357,MoralCondition_v2,2022.2.5,29.97944308941604,
17,0,17,0,5,0,5,0,,,,,,,,,,,,,,,,,,,,,,,,,,,,,,,,,,,,,,,,,,,,,,,,,,,,1031.3347025997937,1031.3347025997937,0.008294899947941303,0.09909339994192123,2.0,1.1918522003106773,,,,,,,,,,,,,5914,Moral,2024-11-13_17h27.28.357,MoralCondition_v2,2022.2.5,29.97944308941604,
17,0,17,0,6,0,6,0,,,,,,,,,,,,,,,,,,,,,,,,,,,,,,,,,,,,,,,,,,,,,,,,,,,,1032.567534999922,1032.567534999922,0.009162900038063526,0.0978736998513341,2.0,1.6233505001291633,,,,,,,,,,,,,5914,Moral,2024-11-13_17h27.28.357,MoralCondition_v2,2022.2.5,29.97944308941604,
17,0,17,0,,,,,,,,,,,,,,,,,,,,,,,,,,,,,,,,,,,,,,,,,,,,,,,,,,,,,,,,,,,,,,1034.23449910013,1034.23449910013,0.0007480001077055931,0.09927030000835657,5.0,2.666250799782574,,,,,,,5914,Moral,2024-11-13_17h27.28.357,MoralCondition_v2,2022.2.5,29.97944308941604,
18,0,18,0,0,0,0,0,,,,,,,,,,,,,,,,,,,,1036.934568299912,0.00014520017430186272,0.09947660006582737,1042.9343174002133,5.999304799828678,1043.1008733999915,1043.1008733999915,0.06735319970175624,0.1660942998714745,5.999230999965221,1049.200935699977,1049.200935699977,1049.200935699977,0.05794099997729063,0.16597999958321452,1054.901003899984,1055.1009479002096,5.9992884998209774,6.09925949992612,1061.1009340998717,11.999276499729604,1061.2009024000727,1061.2009024000727,1061.2343036001548,1061.2343036001548,8.869962766766548e-05,0.09930879948660731,down,9.127931199967861,1070.417541100178,3.770040348172188e-05,0.09932600008323789,1076.4342260998674,1076.4342260998674,0.010684899985790253,0.11602600011974573,3.0,7.17300120042637,,,,,,,1049.1011760002002,1049.1011760002002,1076.4342260998674,6.099334099795669,6.099517100024968,12.099232899956405,5914,Moral,2024-11-13_17h27.28.357,MoralCondition_v2,2022.2.5,29.97944308941604,
18,0,18,0,1,0,1,0,,,,,,,,,,,,,,,,,,,,,,,,,,,,,,,,,,,,,,,,,,,,,,,,,,,,1083.6341101001017,1083.6341101001017,0.006747700273990631,0.09885450033470988,3.0,2.259769099764526,,,,,,,,,,,,,5914,Moral,2024-11-13_17h27.28.357,MoralCondition_v2,2022.2.5,29.97944308941604,
18,0,18,0,2,0,2,0,,,,,,,,,,,,,,,,,,,,,,,,,,,,,,,,,,,,,,,,,,,,,,,,,,,,1085.9344863998704,1085.9344863998704,0.006665899883955717,0.09890319965779781,6.0,1.326462300028652,,,,,,,,,,,,,5914,Moral,2024-11-13_17h27.28.357,MoralCondition_v2,2022.2.5,29.97944308941604,
18,0,18,0,3,0,3,0,,,,,,,,,,,,,,,,,,,,,,,,,,,,,,,,,,,,,,,,,,,,,,,,,,,,1087.30082029989,1087.30082029989,0.0064455000683665276,0.0988888000138104,5.0,1.4269400001503527,,,,,,,,,,,,,5914,Moral,2024-11-13_17h27.28.357,MoralCondition_v2,2022.2.5,29.97944308941604,
18,0,18,0,4,0,4,0,,,,,,,,,,,,,,,,,,,,,,,,,,,,,,,,,,,,,,,,,,,,,,,,,,,,1088.7674333998002,1088.7674333998002,0.007062999997287989,0.0982137001119554,2.0,1.292295599821955,,,,,,,,,,,,,5914,Moral,2024-11-13_17h27.28.357,MoralCondition_v2,2022.2.5,29.97944308941604,
18,0,18,0,5,0,5,0,,,,,,,,,,,,,,,,,,,,,,,,,,,,,,,,,,,,,,,,,,,,,,,,,,,,1090.1007586000487,1090.1007586000487,0.00721470033749938,0.09783330000936985,2.0,1.1585506000556052,,,,,,,,,,,,,5914,Moral,2024-11-13_17h27.28.357,MoralCondition_v2,2022.2.5,29.97944308941604,
18,0,18,0,6,0,6,0,,,,,,,,,,,,,,,,,,,,,,,,,,,,,,,,,,,,,,,,,,,,,,,,,,,,1091.3174541001208,1091.3174541001208,0.008083200082182884,0.11450470006093383,6.0,1.0076252003200352,,,,,,,,,,,,,5914,Moral,2024-11-13_17h27.28.357,MoralCondition_v2,2022.2.5,29.97944308941604,
18,0,18,0,,,,,,,,,,,,,,,,,,,,,,,,,,,,,,,,,,,,,,,,,,,,,,,,,,,,,,,,,,,,,,1092.3507865997963,1092.3507865997963,0.0014137998223304749,0.09782940009608865,6.0,4.597894900012761,,,,,,,5914,Moral,2024-11-13_17h27.28.357,MoralCondition_v2,2022.2.5,29.97944308941604,
19,0,19,0,0,0,0,0,,,,,,,,,,,,,,,,,,,,1096.984326200094,0.0005164998583495617,0.09754090011119843,1103.0007675001398,6.014163500163704,1103.167389899958,1103.167389899958,0.07613210007548332,0.1808118000626564,6.014327799901366,1109.2677064999007,1109.2677064999007,1109.2677064999007,0.07343989983201027,0.18102989997714758,1114.9674363997765,1115.1676254998893,6.0143299996852875,6.114137599710375,1121.1674819001928,12.014146599918604,1121.2673885999247,1121.2673885999247,1121.3007493000478,1121.3007493000478,0.014282399788498878,0.1140340999700129,up,3.01339009962976,1124.350732800085,5.239993333816528e-05,0.09779229993000627,1130.3674808000214,1130.3674808000214,0.011882300022989511,0.11454829992726445,2.0,1.703684899955988,,,,,,,1109.1674263998866,1109.1674263998866,1130.3674808000214,,,,5914,Moral,2024-11-13_17h27.28.357,MoralCondition_v2,2022.2.5,29.97944308941604,
19,0,19,0,1,0,1,0,,,,,,,,,,,,,,,,,,,,,,,,,,,,,,,,,,,,,,,,,,,,,,,,,,,,1132.100608299952,1132.100608299952,0.006239700131118298,0.0984605997800827,5.0,2.69343789992854,,,,,,,,,,,,,5914,Moral,2024-11-13_17h27.28.357,MoralCondition_v2,2022.2.5,29.97944308941604,
19,0,19,0,2,0,2,0,,,,,,,,,,,,,,,,,,,,,,,,,,,,,,,,,,,,,,,,,,,,,,,,,,,,1134.834028299898,1134.834028299898,0.007436600048094988,0.0980124999769032,5.0,1.8250203002244234,,,,,,,,,,,,,5914,Moral,2024-11-13_17h27.28.357,MoralCondition_v2,2022.2.5,29.97944308941604,
19,0,19,0,3,0,3,0,,,,,,,,,,,,,,,,,,,,,,,,,,,,,,,,,,,,,,,,,,,,,,,,,,,,1136.7007335000671,1136.7007335000671,0.0064224000088870525,0.09922390012070537,2.0,1.860306799877435,,,,,,,,,,,,,5914,Moral,2024-11-13_17h27.28.357,MoralCondition_v2,2022.2.5,29.97944308941604,
19,0,19,0,4,0,4,0,,,,,,,,,,,,,,,,,,,,,,,,,,,,,,,,,,,,,,,,,,,,,,,,,,,,1138.6005540997721,1138.6005540997721,0.007347800303250551,0.09786440012976527,5.0,1.658016700297594,,,,,,,,,,,,,5914,Moral,2024-11-13_17h27.28.357,MoralCondition_v2,2022.2.5,29.97944308941604,
19,0,19,0,5,0,5,0,,,,,,,,,,,,,,,,,,,,,,,,,,,,,,,,,,,,,,,,,,,,,,,,,,,,1140.3005757997744,1140.3005757997744,0.005337399896234274,0.09951259987428784,5.0,2.8954058000817895,,,,,,,,,,,,,5914,Moral,2024-11-13_17h27.28.357,MoralCondition_v2,2022.2.5,29.97944308941604,
19,0,19,0,6,0,6,0,,,,,,,,,,,,,,,,,,,,,,,,,,,,,,,,,,,,,,,,,,,,,,,,,,,,1143.2338582999073,1143.2338582999073,0.006789700128138065,0.09811480017378926,3.0,1.7925981003791094,,,,,,,,,,,,,5914,Moral,2024-11-13_17h27.28.357,MoralCondition_v2,2022.2.5,29.97944308941604,
19,0,19,0,,,,,,,,,,,,,,,,,,,,,,,,,,,,,,,,,,,,,,,,,,,,,,,,,,,,,,,,,,,,,,1145.067228899803,1145.067228899803,0.0012154998257756233,0.0978405000641942,3.0,3.7313140998594463,,,,,,,5914,Moral,2024-11-13_17h27.28.357,MoralCondition_v2,2022.2.5,29.97944308941604,
