loop.thisRepN,loop.thisTrialN,loop.thisN,loop.thisIndex,evaluate_all_emotions.thisRepN,evaluate_all_emotions.thisTrialN,evaluate_all_emotions.thisN,evaluate_all_emotions.thisIndex,sync_beep_1.started,p_port.started,p_port.stopped,sync_beep_2.started,sync_beep_3.started,sync_beep_4.started,baseline.started,p_port_2.started,p_port_2.stopped,baseline.stopped,p_port_3.started,Game_Start_Text.started,p_port_4.started,p_port_4.stopped,key_resp.started,key_resp.keys,key_resp.rt,fixation_cross.started,p_port_5.started,p_port_5.stopped,p_port_6.started,fixation_cross.stopped,player_image_intro.started,player_name_intro.started,p_port_7.started,p_port_7.stopped,p_port_8.started,player_image_offer.started,player_name_offer.started,proposed_split.started,p_port_9.started,p_port_9.stopped,proposed_split.stopped,accept_reject.started,p_port_15.started,p_port_15.stopped,accept_reject.stopped,p_port_10.started,arrow_instructions.started,offer_choice.started,p_port_11.started,p_port_11.stopped,offer_choice.keys,offer_choice.rt,Instructions_Affinity_Score.started,p_port_12.started,p_port_12.stopped,Emotion_Image.started,AffinityScore.started,p_port_13.started,p_port_13.stopped,AffinityScore.response,AffinityScore.rt,Instruction.started,Moral_Disgust_Score.started,p_port_14.started,p_port_14.stopped,Moral_Disgust_Score.response,Moral_Disgust_Score.rt,player_image_intro.stopped,player_name_intro.stopped,player_image_offer.stopped,player_name_offer.stopped,participant,session,date,expName,psychopyVersion,frameRate,
,,,,,,,,19.6200673809275,0.0010863000061362982,0.12174390000291169,20.21680153007619,20.81679963003844,21.41316502992995,21.73350410000421,0.0022721998393535614,0.10506189987063408,36.733488199999556,15.005174399819225,36.8334240000695,0.005114899715408683,0.10506969969719648,37.31703729997389,space,3.298608500044793,,,,,,,,,,,,,,,,,,,,,,,,,,,,,,,,,,,,,,,,,,,,,,,6164,Moral,2025-02-07_10h37.18.903,MoralCondition_v2,2022.2.5,59.92387266267894,
0,0,0,0,0,0,0,0,,,,,,,,,,,,,,,,,,40.650286900112405,0.0005577001720666885,0.11600940022617579,5.999460100196302,46.65007980004884,46.84651509998366,46.84651509998366,0.07437480008229613,0.23267769999802113,5.999346100026742,52.96692500007339,52.96692500007339,52.96692500007339,0.0884241999592632,0.24938929989002645,58.700117599917576,58.8334492999129,6.0160566999111325,6.1494087998289615,64.86689860001206,12.016106199938804,64.95011300011538,64.95011300011538,0.016101899789646268,0.11591429985128343,up,1.1857148001436144,66.16667940001935,1.3499986380338669e-05,0.10305660008452833,72.25025849998929,72.25025849998929,0.03480549994856119,0.20296739996410906,5.0,6.419296799926087,,,,,,,,,,,6164,Moral,2025-02-07_10h37.18.903,MoralCondition_v2,2022.2.5,59.92387266267894,
0,0,0,0,1,0,1,0,,,,,,,,,,,,,,,,,,,,,,,,,,,,,,,,,,,,,,,,,,,,,,,,78.68376079993322,78.68376079993322,0.011966700199991465,0.14890970010310411,7.0,4.404728300170973,,,,,,,,,,,6164,Moral,2025-02-07_10h37.18.903,MoralCondition_v2,2022.2.5,59.92387266267894,
0,0,0,0,2,0,2,0,,,,,,,,,,,,,,,,,,,,,,,,,,,,,,,,,,,,,,,,,,,,,,,,83.13349439995363,83.13349439995363,0.013423100113868713,0.14917950006201863,2.0,3.570118400035426,,,,,,,,,,,6164,Moral,2025-02-07_10h37.18.903,MoralCondition_v2,2022.2.5,59.92387266267894,
0,0,0,0,3,0,3,0,,,,,,,,,,,,,,,,,,,,,,,,,,,,,,,,,,,,,,,,,,,,,,,,86.75006120000035,86.75006120000035,0.011967799859121442,0.14902219991199672,1.0,1.7380222999490798,,,,,,,,,,,6164,Moral,2025-02-07_10h37.18.903,MoralCondition_v2,2022.2.5,59.92387266267894,
0,0,0,0,4,0,4,0,,,,,,,,,,,,,,,,,,,,,,,,,,,,,,,,,,,,,,,,,,,,,,,,88.5333690000698,88.5333690000698,0.021374099887907505,0.14929259987547994,1.0,3.4623523999471217,,,,,,,,,,,6164,Moral,2025-02-07_10h37.18.903,MoralCondition_v2,2022.2.5,59.92387266267894,
0,0,0,0,5,0,5,0,,,,,,,,,,,,,,,,,,,,,,,,,,,,,,,,,,,,,,,,,,,,,,,,92.05020199995488,92.05020199995488,0.012834200169891119,0.14918280020356178,2.0,2.5707725000102073,,,,,,,,,,,6164,Moral,2025-02-07_10h37.18.903,MoralCondition_v2,2022.2.5,59.92387266267894,
0,0,0,0,6,0,6,0,,,,,,,,,,,,,,,,,,,,,,,,,,,,,,,,,,,,,,,,,,,,,,,,94.6668962999247,94.6668962999247,0.015600400045514107,0.14903749991208315,3.0,3.8678129999898374,,,,,,,,,,,6164,Moral,2025-02-07_10h37.18.903,MoralCondition_v2,2022.2.5,59.92387266267894,
0,0,0,0,,,,,,,,,,,,,,,,,,,,,,,,,,,,,,,,,,,,,,,,,,,,,,,,,,,,,,,,,,98.56668259995058,98.56668259995058,0.0005264000501483679,0.1323258001357317,3.0,4.799735800130293,,,,,6164,Moral,2025-02-07_10h37.18.903,MoralCondition_v2,2022.2.5,59.92387266267894,
1,0,1,0,0,0,0,0,,,,,,,,,,,,,,,,,,103.40017809998244,0.00011490005999803543,0.11567349988035858,5.999026899924502,109.39991899998859,109.73339800001122,109.73339800001122,0.11108379997313023,0.3657725998200476,5.99910969985649,115.73360459995456,115.73360459995456,115.73360459995456,0.12207769975066185,0.2658644998446107,121.46667500003241,121.59997430001386,5.99903509975411,6.132466799812391,127.63338060001843,11.999066599877551,127.71674189995974,127.71674189995974,0.03261479968205094,0.13289139978587627,up,1.2671676001045853,129.03347019990906,1.1399853974580765e-05,0.12904849997721612,135.0500636000652,135.0500636000652,0.02811509999446571,0.14930549985729158,1.0,3.688845199998468,,,,,,,,,,,6164,Moral,2025-02-07_10h37.18.903,MoralCondition_v2,2022.2.5,59.92387266267894,
1,0,1,0,1,0,1,0,,,,,,,,,,,,,,,,,,,,,,,,,,,,,,,,,,,,,,,,,,,,,,,,138.8001284999773,138.8001284999773,0.010119599988684058,0.149001199984923,5.0,3.37354930001311,,,,,,,,,,,6164,Moral,2025-02-07_10h37.18.903,MoralCondition_v2,2022.2.5,59.92387266267894,
1,0,1,0,2,0,2,0,,,,,,,,,,,,,,,,,,,,,,,,,,,,,,,,,,,,,,,,,,,,,,,,142.19985820003785,142.19985820003785,0.006035099970176816,0.13228469993919134,2.0,3.127255800180137,,,,,,,,,,,6164,Moral,2025-02-07_10h37.18.903,MoralCondition_v2,2022.2.5,59.92387266267894,
1,0,1,0,3,0,3,0,,,,,,,,,,,,,,,,,,,,,,,,,,,,,,,,,,,,,,,,,,,,,,,,145.3666825001128,145.3666825001128,0.005544999847188592,0.13245849986560643,1.0,1.6279684000182897,,,,,,,,,,,6164,Moral,2025-02-07_10h37.18.903,MoralCondition_v2,2022.2.5,59.92387266267894,
1,0,1,0,4,0,4,0,,,,,,,,,,,,,,,,,,,,,,,,,,,,,,,,,,,,,,,,,,,,,,,,147.03318829997443,147.03318829997443,0.008205499965697527,0.13256499986164272,1.0,2.0586403999477625,,,,,,,,,,,6164,Moral,2025-02-07_10h37.18.903,MoralCondition_v2,2022.2.5,59.92387266267894,
1,0,1,0,5,0,5,0,,,,,,,,,,,,,,,,,,,,,,,,,,,,,,,,,,,,,,,,,,,,,,,,149.14995840005577,149.14995840005577,0.01101539982482791,0.14916479983367026,2.0,4.739724199986085,,,,,,,,,,,6164,Moral,2025-02-07_10h37.18.903,MoralCondition_v2,2022.2.5,59.92387266267894,
1,0,1,0,6,0,6,0,,,,,,,,,,,,,,,,,,,,,,,,,,,,,,,,,,,,,,,,,,,,,,,,153.9333409999963,153.9333409999963,0.012952099787071347,0.14814449986442924,4.0,2.7359462999738753,,,,,,,,,,,6164,Moral,2025-02-07_10h37.18.903,MoralCondition_v2,2022.2.5,59.92387266267894,
1,0,1,0,,,,,,,,,,,,,,,,,,,,,,,,,,,,,,,,,,,,,,,,,,,,,,,,,,,,,,,,,,156.69982050010003,156.69982050010003,0.0005680001340806484,0.13259580009616911,7.0,4.133347500115633,,,,,6164,Moral,2025-02-07_10h37.18.903,MoralCondition_v2,2022.2.5,59.92387266267894,
2,0,2,0,0,0,0,0,,,,,,,,,,,,,,,,,,160.8668064000085,0.00013729999773204327,0.13250779989175498,6.015784200048074,166.88335760007612,167.05033640004694,167.05033640004694,0.07752899988554418,0.21584689989686012,6.01572519983165,173.15002440009266,173.15002440009266,173.15002440009266,0.07942609977908432,0.2159413998015225,178.88334119995125,179.0500026999507,6.015827199909836,6.1490707998164,185.0833121999167,12.016002899734303,185.18333439994603,185.18333439994603,0.016115299658849835,0.14906869968399405,down,0.9364702000748366,186.1666433000937,5.300017073750496e-05,0.13116820016875863,192.21687439992093,192.21687439992093,0.04278400004841387,0.18096810020506382,2.0,3.0728367001283914,,,,,,,,,,,6164,Moral,2025-02-07_10h37.18.903,MoralCondition_v2,2022.2.5,59.92387266267894,
2,0,2,0,1,0,1,0,,,,,,,,,,,,,,,,,,,,,,,,,,,,,,,,,,,,,,,,,,,,,,,,195.31654529995285,195.31654529995285,0.0075789999682456255,0.13118679984472692,3.0,3.39135259995237,,,,,,,,,,,6164,Moral,2025-02-07_10h37.18.903,MoralCondition_v2,2022.2.5,59.92387266267894,
2,0,2,0,2,0,2,0,,,,,,,,,,,,,,,,,,,,,,,,,,,,,,,,,,,,,,,,,,,,,,,,198.74999239994213,198.74999239994213,0.006652700016275048,0.13244169997051358,1.0,1.6936339000239968,,,,,,,,,,,6164,Moral,2025-02-07_10h37.18.903,MoralCondition_v2,2022.2.5,59.92387266267894,
2,0,2,0,3,0,3,0,,,,,,,,,,,,,,,,,,,,,,,,,,,,,,,,,,,,,,,,,,,,,,,,200.48333540000021,200.48333540000021,0.007547999965026975,0.13068059994839132,6.0,2.1911983999889344,,,,,,,,,,,6164,Moral,2025-02-07_10h37.18.903,MoralCondition_v2,2022.2.5,59.92387266267894,
2,0,2,0,4,0,4,0,,,,,,,,,,,,,,,,,,,,,,,,,,,,,,,,,,,,,,,,,,,,,,,,202.71633059997112,202.71633059997112,0.007345099933445454,0.13148640003055334,7.0,1.8585713999345899,,,,,,,,,,,6164,Moral,2025-02-07_10h37.18.903,MoralCondition_v2,2022.2.5,59.92387266267894,
2,0,2,0,5,0,5,0,,,,,,,,,,,,,,,,,,,,,,,,,,,,,,,,,,,,,,,,,,,,,,,,204.63355739996769,204.63355739996769,0.008676899829879403,0.14766779984347522,4.0,6.173368600197136,,,,,,,,,,,6164,Moral,2025-02-07_10h37.18.903,MoralCondition_v2,2022.2.5,59.92387266267894,
2,0,2,0,6,0,6,0,,,,,,,,,,,,,,,,,,,,,,,,,,,,,,,,,,,,,,,,,,,,,,,,210.83314500004053,210.83314500004053,0.006563300034031272,0.13261359999887645,3.0,2.193869600072503,,,,,,,,,,,6164,Moral,2025-02-07_10h37.18.903,MoralCondition_v2,2022.2.5,59.92387266267894,
2,0,2,0,,,,,,,,,,,,,,,,,,,,,,,,,,,,,,,,,,,,,,,,,,,,,,,,,,,,,,,,,,213.06665790011175,213.06665790011175,0.0007893999572843313,0.13221310009248555,2.0,4.933067500125617,,,,,6164,Moral,2025-02-07_10h37.18.903,MoralCondition_v2,2022.2.5,59.92387266267894,
3,0,3,0,0,0,0,0,,,,,,,,,,,,,,,,,,218.03352249995805,0.00013440009206533432,0.13247390021570027,5.999283600132912,224.06650860002264,224.24989750003442,224.24989750003442,0.10079280007630587,0.24912480008788407,6.0158057999797165,230.3168391000945,230.3168391000945,230.3168391000945,0.07105569983832538,0.2160181999206543,236.04991500009783,236.24979669996537,6.015781200025231,6.149147199932486,242.283161399886,12.015782299917191,242.35002629994415,242.35002629994415,0.01608089986257255,0.14908549981191754,down,0.8738102000206709,243.28318869997747,4.42001037299633e-05,0.131186299957335,249.29992350004613,249.29992350004613,0.025390800088644028,0.1476493999361992,5.0,3.990072000073269,,,,,,,,,,,6164,Moral,2025-02-07_10h37.18.903,MoralCondition_v2,2022.2.5,59.92387266267894,
3,0,3,0,1,0,1,0,,,,,,,,,,,,,,,,,,,,,,,,,,,,,,,,,,,,,,,,,,,,,,,,253.33320180000737,253.33320180000737,0.007262700004503131,0.13089730008505285,6.0,2.858168999897316,,,,,,,,,,,6164,Moral,2025-02-07_10h37.18.903,MoralCondition_v2,2022.2.5,59.92387266267894,
3,0,3,0,2,0,2,0,,,,,,,,,,,,,,,,,,,,,,,,,,,,,,,,,,,,,,,,,,,,,,,,256.2330980999395,256.2330980999395,0.007917599985376,0.13179560005664825,1.0,2.058212999952957,,,,,,,,,,,6164,Moral,2025-02-07_10h37.18.903,MoralCondition_v2,2022.2.5,59.92387266267894,
3,0,3,0,3,0,3,0,,,,,,,,,,,,,,,,,,,,,,,,,,,,,,,,,,,,,,,,,,,,,,,,258.332842099946,258.332842099946,0.007802599808201194,0.13137509999796748,2.0,2.6910004999954253,,,,,,,,,,,6164,Moral,2025-02-07_10h37.18.903,MoralCondition_v2,2022.2.5,59.92387266267894,
3,0,3,0,4,0,4,0,,,,,,,,,,,,,,,,,,,,,,,,,,,,,,,,,,,,,,,,,,,,,,,,261.0665106000379,261.0665106000379,0.0068888000678271055,0.13222120003774762,6.0,5.32638860004954,,,,,,,,,,,6164,Moral,2025-02-07_10h37.18.903,MoralCondition_v2,2022.2.5,59.92387266267894,
3,0,3,0,5,0,5,0,,,,,,,,,,,,,,,,,,,,,,,,,,,,,,,,,,,,,,,,,,,,,,,,266.4331390999723,266.4331390999723,0.006781000178307295,0.13277400005608797,5.0,3.0608942001126707,,,,,,,,,,,6164,Moral,2025-02-07_10h37.18.903,MoralCondition_v2,2022.2.5,59.92387266267894,
3,0,3,0,6,0,6,0,,,,,,,,,,,,,,,,,,,,,,,,,,,,,,,,,,,,,,,,,,,,,,,,269.5336331001017,269.5336331001017,0.007283400045707822,0.13156130001880229,2.0,2.9919602000154555,,,,,,,,,,,6164,Moral,2025-02-07_10h37.18.903,MoralCondition_v2,2022.2.5,59.92387266267894,
3,0,3,0,,,,,,,,,,,,,,,,,,,,,,,,,,,,,,,,,,,,,,,,,,,,,,,,,,,,,,,,,,272.5665661999956,272.5665661999956,0.001350899925455451,0.13131510000675917,2.0,4.797849199967459,,,,,6164,Moral,2025-02-07_10h37.18.903,MoralCondition_v2,2022.2.5,59.92387266267894,
4,0,4,0,0,0,0,0,,,,,,,,,,,,,,,,,,277.39991830009967,0.0002859998494386673,0.13117669988423586,6.03121929988265,283.43301560007967,283.5997037999332,283.5997037999332,0.09331219992600381,0.23137209983542562,6.0311019998043776,289.69953770004213,289.69953770004213,289.69953770004213,0.09685769979842007,0.23155309981666505,295.43298560008407,295.5996612000745,6.03112979978323,6.164269299712032,301.6329413000494,12.031185599742457,301.73296330007724,301.73296330007724,0.031226199585944414,0.1643315996043384,down,2.1781184999272227,303.96628939989023,5.62998466193676e-05,0.13113310001790524,309.9828095000703,309.9828095000703,0.024352299980819225,0.14784669992513955,6.0,3.8911445001140237,,,,,,,,,,,6164,Moral,2025-02-07_10h37.18.903,MoralCondition_v2,2022.2.5,59.92387266267894,
4,0,4,0,1,0,1,0,,,,,,,,,,,,,,,,,,,,,,,,,,,,,,,,,,,,,,,,,,,,,,,,313.9330915999599,313.9330915999599,0.00753389997407794,0.14763529994525015,2.0,1.9415490000974387,,,,,,,,,,,6164,Moral,2025-02-07_10h37.18.903,MoralCondition_v2,2022.2.5,59.92387266267894,
4,0,4,0,2,0,2,0,,,,,,,,,,,,,,,,,,,,,,,,,,,,,,,,,,,,,,,,,,,,,,,,315.8995076001156,315.8995076001156,0.00669110007584095,0.13256620010361075,5.0,2.3938786000944674,,,,,,,,,,,6164,Moral,2025-02-07_10h37.18.903,MoralCondition_v2,2022.2.5,59.92387266267894,
4,0,4,0,3,0,3,0,,,,,,,,,,,,,,,,,,,,,,,,,,,,,,,,,,,,,,,,,,,,,,,,318.3327242999803,318.3327242999803,0.006592199904844165,0.1323821998666972,3.0,2.027044399874285,,,,,,,,,,,6164,Moral,2025-02-07_10h37.18.903,MoralCondition_v2,2022.2.5,59.92387266267894,
4,0,4,0,4,0,4,0,,,,,,,,,,,,,,,,,,,,,,,,,,,,,,,,,,,,,,,,,,,,,,,,320.39960239990614,320.39960239990614,0.006879199994727969,0.13255109987221658,1.0,1.493187600048259,,,,,,,,,,,6164,Moral,2025-02-07_10h37.18.903,MoralCondition_v2,2022.2.5,59.92387266267894,
4,0,4,0,5,0,5,0,,,,,,,,,,,,,,,,,,,,,,,,,,,,,,,,,,,,,,,,,,,,,,,,321.93272950011306,321.93272950011306,0.008389899972826242,0.1316589000634849,3.0,6.357500500045717,,,,,,,,,,,6164,Moral,2025-02-07_10h37.18.903,MoralCondition_v2,2022.2.5,59.92387266267894,
4,0,4,0,6,0,6,0,,,,,,,,,,,,,,,,,,,,,,,,,,,,,,,,,,,,,,,,,,,,,,,,328.332754699979,328.332754699979,0.00802129996009171,0.1315188999287784,6.0,2.0913887000642717,,,,,,,,,,,6164,Moral,2025-02-07_10h37.18.903,MoralCondition_v2,2022.2.5,59.92387266267894,
4,0,4,0,,,,,,,,,,,,,,,,,,,,,,,,,,,,,,,,,,,,,,,,,,,,,,,,,,,,,,,,,,330.46627099998295,330.46627099998295,0.0012886999174952507,0.13099159998819232,2.0,3.6980242000427097,,,,,6164,Moral,2025-02-07_10h37.18.903,MoralCondition_v2,2022.2.5,59.92387266267894,
5,0,5,0,0,0,0,0,,,,,,,,,,,,,,,,,,334.19940520008095,0.00018500001169741154,0.13253069994971156,5.999102599918842,340.2159607000649,340.38269719993696,340.38269719993696,0.06832579988986254,0.2157667998690158,6.0156267997808754,346.4826929999981,346.4826929999981,346.4826929999981,0.070717099821195,0.21581609966233373,352.2160706000868,352.4161092999857,6.015613499796018,6.149068099679425,358.4494052999653,12.015627399785444,358.5160727999173,358.5160727999173,0.015879899729043245,0.14894899958744645,up,1.5235069999471307,360.08273899997585,8.110003545880318e-05,0.13121969997882843,366.11609939998016,366.11609939998016,0.025216199923306704,0.1643304000608623,1.0,2.0069675999693573,,,,,,,,,,,6164,Moral,2025-02-07_10h37.18.903,MoralCondition_v2,2022.2.5,59.92387266267894,
5,0,5,0,1,0,1,0,,,,,,,,,,,,,,,,,,,,,,,,,,,,,,,,,,,,,,,,,,,,,,,,368.14917810005136,368.14917810005136,0.008108400041237473,0.13084870018064976,1.0,2.757475000107661,,,,,,,,,,,6164,Moral,2025-02-07_10h37.18.903,MoralCondition_v2,2022.2.5,59.92387266267894,
5,0,5,0,2,0,2,0,,,,,,,,,,,,,,,,,,,,,,,,,,,,,,,,,,,,,,,,,,,,,,,,370.9492625000421,370.9492625000421,0.00641649984754622,0.13204810000024736,5.0,2.460030699847266,,,,,,,,,,,6164,Moral,2025-02-07_10h37.18.903,MoralCondition_v2,2022.2.5,59.92387266267894,
5,0,5,0,3,0,3,0,,,,,,,,,,,,,,,,,,,,,,,,,,,,,,,,,,,,,,,,,,,,,,,,373.44927920005284,373.44927920005284,0.006914400029927492,0.13263439992442727,6.0,2.4265101000200957,,,,,,,,,,,6164,Moral,2025-02-07_10h37.18.903,MoralCondition_v2,2022.2.5,59.92387266267894,
5,0,5,0,4,0,4,0,,,,,,,,,,,,,,,,,,,,,,,,,,,,,,,,,,,,,,,,,,,,,,,,375.9330285000615,375.9330285000615,0.009409799939021468,0.14787679980508983,1.0,1.7727442998439074,,,,,,,,,,,6164,Moral,2025-02-07_10h37.18.903,MoralCondition_v2,2022.2.5,59.92387266267894,
5,0,5,0,5,0,5,0,,,,,,,,,,,,,,,,,,,,,,,,,,,,,,,,,,,,,,,,,,,,,,,,377.73275729990564,377.73275729990564,0.00878859986551106,0.13098239991813898,1.0,1.589707599952817,,,,,,,,,,,6164,Moral,2025-02-07_10h37.18.903,MoralCondition_v2,2022.2.5,59.92387266267894,
5,0,5,0,6,0,6,0,,,,,,,,,,,,,,,,,,,,,,,,,,,,,,,,,,,,,,,,,,,,,,,,379.36589380004443,379.36589380004443,0.007307399995625019,0.13132379995658994,2.0,2.6250674000475556,,,,,,,,,,,6164,Moral,2025-02-07_10h37.18.903,MoralCondition_v2,2022.2.5,59.92387266267894,
5,0,5,0,,,,,,,,,,,,,,,,,,,,,,,,,,,,,,,,,,,,,,,,,,,,,,,,,,,,,,,,,,382.03282499988563,382.03282499988563,0.0012760001700371504,0.13148370012640953,7.0,3.8647344999480993,,,,,6164,Moral,2025-02-07_10h37.18.903,MoralCondition_v2,2022.2.5,59.92387266267894,
6,0,6,0,0,0,0,0,,,,,,,,,,,,,,,,,,385.9326158000622,0.0004759998992085457,0.13065459998324513,6.03064679983072,391.96592839993536,392.1330534000881,392.1330534000881,0.09495879989117384,0.23051089979708195,6.030773899750784,398.2325792000629,398.2325792000629,398.2325792000629,0.08581769978627563,0.23053799965418875,403.9660275001079,404.1326985999476,6.030682999640703,6.163862599758431,410.1658644999843,12.030497199622914,410.2658776999451,410.2658776999451,0.030690899584442377,0.1638162995222956,up,0.4134589000605047,410.732587199891,4.369998350739479e-05,0.13119710003957152,416.76565789990127,416.76565789990127,0.041989400051534176,0.16464370000176132,1.0,6.09014969994314,,,,,,,,,,,6164,Moral,2025-02-07_10h37.18.903,MoralCondition_v2,2022.2.5,59.92387266267894,
6,0,6,0,1,0,1,0,,,,,,,,,,,,,,,,,,,,,,,,,,,,,,,,,,,,,,,,,,,,,,,,422.8992041000165,422.8992041000165,0.0067708001006394625,0.13267339998856187,5.0,1.4599576001055539,,,,,,,,,,,6164,Moral,2025-02-07_10h37.18.903,MoralCondition_v2,2022.2.5,59.92387266267894,
6,0,6,0,2,0,2,0,,,,,,,,,,,,,,,,,,,,,,,,,,,,,,,,,,,,,,,,,,,,,,,,424.3992723999545,424.3992723999545,0.00686300010420382,0.13102540001273155,1.0,2.458826599875465,,,,,,,,,,,6164,Moral,2025-02-07_10h37.18.903,MoralCondition_v2,2022.2.5,59.92387266267894,
6,0,6,0,3,0,3,0,,,,,,,,,,,,,,,,,,,,,,,,,,,,,,,,,,,,,,,,,,,,,,,,426.8992790998891,426.8992790998891,0.0070697998162359,0.13130709994584322,2.0,1.8253780000377446,,,,,,,,,,,6164,Moral,2025-02-07_10h37.18.903,MoralCondition_v2,2022.2.5,59.92387266267894,
6,0,6,0,4,0,4,0,,,,,,,,,,,,,,,,,,,,,,,,,,,,,,,,,,,,,,,,,,,,,,,,428.76586810010485,428.76586810010485,0.007430699886754155,0.13143339985981584,1.0,2.0581565001048148,,,,,,,,,,,6164,Moral,2025-02-07_10h37.18.903,MoralCondition_v2,2022.2.5,59.92387266267894,
6,0,6,0,5,0,5,0,,,,,,,,,,,,,,,,,,,,,,,,,,,,,,,,,,,,,,,,,,,,,,,,430.8657666000072,430.8657666000072,0.006930999923497438,0.13269830006174743,2.0,2.8933722998481244,,,,,,,,,,,6164,Moral,2025-02-07_10h37.18.903,MoralCondition_v2,2022.2.5,59.92387266267894,
6,0,6,0,6,0,6,0,,,,,,,,,,,,,,,,,,,,,,,,,,,,,,,,,,,,,,,,,,,,,,,,433.79916819999926,433.79916819999926,0.0071888999082148075,0.1311818000394851,6.0,2.3253099999856204,,,,,,,,,,,6164,Moral,2025-02-07_10h37.18.903,MoralCondition_v2,2022.2.5,59.92387266267894,
6,0,6,0,,,,,,,,,,,,,,,,,,,,,,,,,,,,,,,,,,,,,,,,,,,,,,,,,,,,,,,,,,436.16598029993474,436.16598029993474,0.0009928001090884209,0.13149710022844374,6.0,3.198354900116101,,,,,6164,Moral,2025-02-07_10h37.18.903,MoralCondition_v2,2022.2.5,59.92387266267894,
7,0,7,0,0,0,0,0,,,,,,,,,,,,,,,,,,439.3989975999575,0.0002799001522362232,0.13144090003333986,6.0145853001158684,445.41581790009513,445.58235660009086,445.58235660009086,0.07771899993531406,0.21463539986871183,6.014549300074577,451.68241659994237,451.68241659994237,451.68241659994237,0.07798449997790158,0.21459049987606704,457.4157320000231,457.61576130008325,6.014586099889129,6.147966699907556,463.6492659000214,12.014503799844533,463.71569889993407,463.71569889993407,0.014956999802961946,0.14793639979325235,down,0.596099799964577,464.3489685000386,5.539995618164539e-05,0.13116839993745089,470.38254819996655,470.38254819996655,0.041946399956941605,0.16431299992837012,1.0,2.1234288001433015,,,,,,,,,,,6164,Moral,2025-02-07_10h37.18.903,MoralCondition_v2,2022.2.5,59.92387266267894,
7,0,7,0,1,0,1,0,,,,,,,,,,,,,,,,,,,,,,,,,,,,,,,,,,,,,,,,,,,,,,,,472.54891019989736,472.54891019989736,0.007663999916985631,0.1310620999429375,6.0,1.891088099917397,,,,,,,,,,,6164,Moral,2025-02-07_10h37.18.903,MoralCondition_v2,2022.2.5,59.92387266267894,
7,0,7,0,2,0,2,0,,,,,,,,,,,,,,,,,,,,,,,,,,,,,,,,,,,,,,,,,,,,,,,,474.4822470000945,474.4822470000945,0.007265700027346611,0.1312958998605609,1.0,3.525186700047925,,,,,,,,,,,6164,Moral,2025-02-07_10h37.18.903,MoralCondition_v2,2022.2.5,59.92387266267894,
7,0,7,0,3,0,3,0,,,,,,,,,,,,,,,,,,,,,,,,,,,,,,,,,,,,,,,,,,,,,,,,478.048790599918,478.048790599918,0.007076999871060252,0.13253819989040494,5.0,2.759955600136891,,,,,,,,,,,6164,Moral,2025-02-07_10h37.18.903,MoralCondition_v2,2022.2.5,59.92387266267894,
7,0,7,0,4,0,4,0,,,,,,,,,,,,,,,,,,,,,,,,,,,,,,,,,,,,,,,,,,,,,,,,480.84885330009274,480.84885330009274,0.007844599895179272,0.1314637998584658,1.0,2.557319200132042,,,,,,,,,,,6164,Moral,2025-02-07_10h37.18.903,MoralCondition_v2,2022.2.5,59.92387266267894,
7,0,7,0,5,0,5,0,,,,,,,,,,,,,,,,,,,,,,,,,,,,,,,,,,,,,,,,,,,,,,,,483.4487825999968,483.4487825999968,0.005441899877041578,0.1327373997773975,2.0,2.278478299966082,,,,,,,,,,,6164,Moral,2025-02-07_10h37.18.903,MoralCondition_v2,2022.2.5,59.92387266267894,
7,0,7,0,6,0,6,0,,,,,,,,,,,,,,,,,,,,,,,,,,,,,,,,,,,,,,,,,,,,,,,,485.76527839992195,485.76527839992195,0.007024100050330162,0.13250810001045465,4.0,3.326425800099969,,,,,,,,,,,6164,Moral,2025-02-07_10h37.18.903,MoralCondition_v2,2022.2.5,59.92387266267894,
7,0,7,0,,,,,,,,,,,,,,,,,,,,,,,,,,,,,,,,,,,,,,,,,,,,,,,,,,,,,,,,,,489.1321272999048,489.1321272999048,0.0009777999948710203,0.13215450011193752,2.0,3.3656186999287456,,,,,6164,Moral,2025-02-07_10h37.18.903,MoralCondition_v2,2022.2.5,59.92387266267894,
8,0,8,0,0,0,0,0,,,,,,,,,,,,,,,,,,492.53254200005904,0.0001314000692218542,0.13263710006140172,6.0158560001291335,498.54882310004905,498.73211030010134,498.73211030010134,0.08783970004878938,0.23290230007842183,5.999174900120124,504.83225440001115,504.83225440001115,504.83225440001115,0.08625799999572337,0.23255599988624454,510.56547729996964,510.73209369997494,5.999192599905655,6.132539599901065,516.7654663000721,11.999134699814022,516.8654064999428,516.8654064999428,0.03281539981253445,0.16579519980587065,up,1.1416574001777917,518.0487160999328,1.750001683831215e-05,0.13292060000821948,524.0821426000912,524.0821426000912,0.0406315999571234,0.1663385999854654,5.0,2.5936533000785857,,,,,,,,,,,6164,Moral,2025-02-07_10h37.18.903,MoralCondition_v2,2022.2.5,59.92387266267894,
8,0,8,0,1,0,1,0,,,,,,,,,,,,,,,,,,,,,,,,,,,,,,,,,,,,,,,,,,,,,,,,526.7153012999333,526.7153012999333,0.0073605000507086515,0.13156410004012287,1.0,6.958509200019762,,,,,,,,,,,6164,Moral,2025-02-07_10h37.18.903,MoralCondition_v2,2022.2.5,59.92387266267894,
8,0,8,0,2,0,2,0,,,,,,,,,,,,,,,,,,,,,,,,,,,,,,,,,,,,,,,,,,,,,,,,533.7152525000274,533.7152525000274,0.008602299960330129,0.13120780000463128,2.0,2.7570436999667436,,,,,,,,,,,6164,Moral,2025-02-07_10h37.18.903,MoralCondition_v2,2022.2.5,59.92387266267894,
8,0,8,0,3,0,3,0,,,,,,,,,,,,,,,,,,,,,,,,,,,,,,,,,,,,,,,,,,,,,,,,536.5152261001058,536.5152261001058,0.0066223000176250935,0.13261510012671351,1.0,1.7602814000565559,,,,,,,,,,,6164,Moral,2025-02-07_10h37.18.903,MoralCondition_v2,2022.2.5,59.92387266267894,
8,0,8,0,4,0,4,0,,,,,,,,,,,,,,,,,,,,,,,,,,,,,,,,,,,,,,,,,,,,,,,,538.3153659000527,538.3153659000527,0.007332000182941556,0.13101720018312335,2.0,2.4246443000156432,,,,,,,,,,,6164,Moral,2025-02-07_10h37.18.903,MoralCondition_v2,2022.2.5,59.92387266267894,
8,0,8,0,5,0,5,0,,,,,,,,,,,,,,,,,,,,,,,,,,,,,,,,,,,,,,,,,,,,,,,,540.7819600999355,540.7819600999355,0.007715299958363175,0.1314332999754697,6.0,2.0245817999821156,,,,,,,,,,,6164,Moral,2025-02-07_10h37.18.903,MoralCondition_v2,2022.2.5,59.92387266267894,
8,0,8,0,6,0,6,0,,,,,,,,,,,,,,,,,,,,,,,,,,,,,,,,,,,,,,,,,,,,,,,,542.8488714001141,542.8488714001141,0.009252600139006972,0.13032730016857386,2.0,2.0223477999679744,,,,,,,,,,,6164,Moral,2025-02-07_10h37.18.903,MoralCondition_v2,2022.2.5,59.92387266267894,
8,0,8,0,,,,,,,,,,,,,,,,,,,,,,,,,,,,,,,,,,,,,,,,,,,,,,,,,,,,,,,,,,544.9153199000284,544.9153199000284,0.0022053997963666916,0.13068069983273745,6.0,2.829767799936235,,,,,6164,Moral,2025-02-07_10h37.18.903,MoralCondition_v2,2022.2.5,59.92387266267894,
9,0,9,0,0,0,0,0,,,,,,,,,,,,,,,,,,547.7823093000334,0.00025889999233186245,0.1315840999595821,6.031498400028795,553.815307199955,554.0486796000041,554.0486796000041,0.15830920008011162,0.2981326000299305,6.031469099922106,560.0820132000372,560.0820132000372,560.0820132000372,0.08440959989093244,0.23160669999197125,565.8154555999208,565.9818629999645,6.031484199920669,6.164766899775714,572.0152171000373,12.031395399942994,572.1151209000964,572.1151209000964,0.03164209984242916,0.1647656997665763,up,0.6118769999593496,572.765201299917,2.8799986466765404e-05,0.13182000000961125,578.7817053999752,578.7817053999752,0.0262018998619169,0.1482329999562353,6.0,1.8563977000303566,,,,,,,,,,,6164,Moral,2025-02-07_10h37.18.903,MoralCondition_v2,2022.2.5,59.92387266267894,
9,0,9,0,1,0,1,0,,,,,,,,,,,,,,,,,,,,,,,,,,,,,,,,,,,,,,,,,,,,,,,,580.6816471000202,580.6816471000202,0.007721100002527237,0.13102070009335876,1.0,3.82439580000937,,,,,,,,,,,6164,Moral,2025-02-07_10h37.18.903,MoralCondition_v2,2022.2.5,59.92387266267894,
9,0,9,0,2,0,2,0,,,,,,,,,,,,,,,,,,,,,,,,,,,,,,,,,,,,,,,,,,,,,,,,584.548547500046,584.548547500046,0.006287999916821718,0.13218359998427331,1.0,2.529237300157547,,,,,,,,,,,6164,Moral,2025-02-07_10h37.18.903,MoralCondition_v2,2022.2.5,59.92387266267894,
9,0,9,0,3,0,3,0,,,,,,,,,,,,,,,,,,,,,,,,,,,,,,,,,,,,,,,,,,,,,,,,587.1319405999966,587.1319405999966,0.008280999958515167,0.1475599999539554,2.0,1.640475400025025,,,,,,,,,,,6164,Moral,2025-02-07_10h37.18.903,MoralCondition_v2,2022.2.5,59.92387266267894,
9,0,9,0,4,0,4,0,,,,,,,,,,,,,,,,,,,,,,,,,,,,,,,,,,,,,,,,,,,,,,,,588.7983868999872,588.7983868999872,0.007018700009211898,0.13181750010699034,1.0,1.8595677998382598,,,,,,,,,,,6164,Moral,2025-02-07_10h37.18.903,MoralCondition_v2,2022.2.5,59.92387266267894,
9,0,9,0,5,0,5,0,,,,,,,,,,,,,,,,,,,,,,,,,,,,,,,,,,,,,,,,,,,,,,,,590.7152805998921,590.7152805998921,0.007573500042781234,0.14747860003262758,5.0,2.1409023001324385,,,,,,,,,,,6164,Moral,2025-02-07_10h37.18.903,MoralCondition_v2,2022.2.5,59.92387266267894,
9,0,9,0,6,0,6,0,,,,,,,,,,,,,,,,,,,,,,,,,,,,,,,,,,,,,,,,,,,,,,,,592.8985800999217,592.8985800999217,0.007466399809345603,0.14749669982120395,2.0,1.9742660000920296,,,,,,,,,,,6164,Moral,2025-02-07_10h37.18.903,MoralCondition_v2,2022.2.5,59.92387266267894,
9,0,9,0,,,,,,,,,,,,,,,,,,,,,,,,,,,,,,,,,,,,,,,,,,,,,,,,,,,,,,,,,,594.8986514001153,594.8986514001153,0.0006879998836666346,0.13273009983822703,6.0,2.699750099796802,,,,,6164,Moral,2025-02-07_10h37.18.903,MoralCondition_v2,2022.2.5,59.92387266267894,
10,0,10,0,0,0,0,0,,,,,,,,,,,,,,,,,,597.632065899903,0.0001547001302242279,0.13235750002786517,6.032324600033462,603.6651037998963,603.8319908999838,603.8319908999838,0.0860657999292016,0.23230739985592663,6.032310100039467,609.9149058000185,609.9149058000185,609.9149058000185,0.08365749986842275,0.2158175997901708,615.6483730000909,615.8483444999438,6.0155897999648005,6.148954399861395,621.8816645999905,12.015673199901357,621.9483439000323,621.9483439000323,0.015798499807715416,0.14901299984194338,up,1.0352417998947203,623.0483003999107,3.809994086623192e-05,0.1311283998657018,629.098306800006,629.098306800006,0.04234239994548261,0.18095709988847375,1.0,5.273179299896583,,,,,,,,,,,6164,Moral,2025-02-07_10h37.18.903,MoralCondition_v2,2022.2.5,59.92387266267894,
10,0,10,0,1,0,1,0,,,,,,,,,,,,,,,,,,,,,,,,,,,,,,,,,,,,,,,,,,,,,,,,634.3981093999464,634.3981093999464,0.007665300043299794,0.1312411001417786,5.0,2.158098200103268,,,,,,,,,,,6164,Moral,2025-02-07_10h37.18.903,MoralCondition_v2,2022.2.5,59.92387266267894,
10,0,10,0,2,0,2,0,,,,,,,,,,,,,,,,,,,,,,,,,,,,,,,,,,,,,,,,,,,,,,,,636.5983039001003,636.5983039001003,0.006567200180143118,0.13221450010314584,1.0,1.89370399992913,,,,,,,,,,,6164,Moral,2025-02-07_10h37.18.903,MoralCondition_v2,2022.2.5,59.92387266267894,
10,0,10,0,3,0,3,0,,,,,,,,,,,,,,,,,,,,,,,,,,,,,,,,,,,,,,,,,,,,,,,,638.5315698001068,638.5315698001068,0.007045199861750007,0.1319221998564899,6.0,2.3256630999967456,,,,,,,,,,,6164,Moral,2025-02-07_10h37.18.903,MoralCondition_v2,2022.2.5,59.92387266267894,
10,0,10,0,4,0,4,0,,,,,,,,,,,,,,,,,,,,,,,,,,,,,,,,,,,,,,,,,,,,,,,,640.914959799964,640.914959799964,0.00929259997792542,0.14852470019832253,1.0,2.606946300016716,,,,,,,,,,,6164,Moral,2025-02-07_10h37.18.903,MoralCondition_v2,2022.2.5,59.92387266267894,
10,0,10,0,5,0,5,0,,,,,,,,,,,,,,,,,,,,,,,,,,,,,,,,,,,,,,,,,,,,,,,,643.5482671000063,643.5482671000063,0.006631399970501661,0.13226559991016984,3.0,2.593414600007236,,,,,,,,,,,6164,Moral,2025-02-07_10h37.18.903,MoralCondition_v2,2022.2.5,59.92387266267894,
10,0,10,0,6,0,6,0,,,,,,,,,,,,,,,,,,,,,,,,,,,,,,,,,,,,,,,,,,,,,,,,646.1817642999813,646.1817642999813,0.007751900004222989,0.13121990021318197,2.0,1.957864600000903,,,,,,,,,,,6164,Moral,2025-02-07_10h37.18.903,MoralCondition_v2,2022.2.5,59.92387266267894,
10,0,10,0,,,,,,,,,,,,,,,,,,,,,,,,,,,,,,,,,,,,,,,,,,,,,,,,,,,,,,,,,,648.1816746999975,648.1816746999975,0.001651400001719594,0.13098750007338822,6.0,2.2972333999350667,,,,,6164,Moral,2025-02-07_10h37.18.903,MoralCondition_v2,2022.2.5,59.92387266267894,
11,0,11,0,0,0,0,0,,,,,,,,,,,,,,,,,,650.5149163999595,0.0003021999727934599,0.13119829981587827,6.031226299935952,656.5482071000151,656.6981816999614,656.6981816999614,0.06916229985654354,0.21453259978443384,6.014516299823299,662.7980394000188,662.7980394000188,662.7980394000188,0.06762399966828525,0.21436249976977706,668.5315233999863,668.7314927000552,6.014485599705949,6.1478270997758955,674.7648217000533,12.014654799597338,674.8314420001116,674.8314420001116,0.014725999673828483,0.14776919968426228,up,0.6002589000854641,675.4647603000049,2.3899832740426064e-05,0.13168099988251925,681.498026000103,681.498026000103,0.026299199787899852,0.16482639987953007,1.0,4.806698299944401,,,,,,,,,,,6164,Moral,2025-02-07_10h37.18.903,MoralCondition_v2,2022.2.5,59.92387266267894,
11,0,11,0,1,0,1,0,,,,,,,,,,,,,,,,,,,,,,,,,,,,,,,,,,,,,,,,,,,,,,,,686.3314406999853,686.3314406999853,0.006566999945789576,0.13226059987209737,5.0,1.8602146999910474,,,,,,,,,,,6164,Moral,2025-02-07_10h37.18.903,MoralCondition_v2,2022.2.5,59.92387266267894,
11,0,11,0,2,0,2,0,,,,,,,,,,,,,,,,,,,,,,,,,,,,,,,,,,,,,,,,,,,,,,,,688.2315807999112,688.2315807999112,0.0068039000034332275,0.13237049989402294,1.0,1.993482399964705,,,,,,,,,,,6164,Moral,2025-02-07_10h37.18.903,MoralCondition_v2,2022.2.5,59.92387266267894,
11,0,11,0,3,0,3,0,,,,,,,,,,,,,,,,,,,,,,,,,,,,,,,,,,,,,,,,,,,,,,,,690.2647228001151,690.2647228001151,0.006583499955013394,0.13236989988945425,2.0,3.193726100027561,,,,,,,,,,,6164,Moral,2025-02-07_10h37.18.903,MoralCondition_v2,2022.2.5,59.92387266267894,
11,0,11,0,4,0,4,0,,,,,,,,,,,,,,,,,,,,,,,,,,,,,,,,,,,,,,,,,,,,,,,,693.4981871999335,693.4981871999335,0.0076651000417768955,0.13095039990730584,6.0,1.9913061000406742,,,,,,,,,,,6164,Moral,2025-02-07_10h37.18.903,MoralCondition_v2,2022.2.5,59.92387266267894,
11,0,11,0,5,0,5,0,,,,,,,,,,,,,,,,,,,,,,,,,,,,,,,,,,,,,,,,,,,,,,,,695.5312967000064,695.5312967000064,0.008042600005865097,0.1311029999051243,1.0,1.9908416999969631,,,,,,,,,,,6164,Moral,2025-02-07_10h37.18.903,MoralCondition_v2,2022.2.5,59.92387266267894,
11,0,11,0,6,0,6,0,,,,,,,,,,,,,,,,,,,,,,,,,,,,,,,,,,,,,,,,,,,,,,,,697.5646917999256,697.5646917999256,0.009467300027608871,0.13143170019611716,3.0,2.3894559999462217,,,,,,,,,,,6164,Moral,2025-02-07_10h37.18.903,MoralCondition_v2,2022.2.5,59.92387266267894,
11,0,11,0,,,,,,,,,,,,,,,,,,,,,,,,,,,,,,,,,,,,,,,,,,,,,,,,,,,,,,,,,,699.9982767999172,699.9982767999172,0.0007064000237733126,0.13285799999721348,6.0,1.8332291000988334,,,,,6164,Moral,2025-02-07_10h37.18.903,MoralCondition_v2,2022.2.5,59.92387266267894,
12,0,12,0,0,0,0,0,,,,,,,,,,,,,,,,,,701.8650048999116,0.0003208001144230366,0.11402949993498623,6.014335900079459,707.8813402000815,708.0312922000885,708.0312922000885,0.0659719998948276,0.1975942999124527,6.030922800069675,714.1651091999374,714.1651091999374,714.1651091999374,0.08652369980700314,0.23098449991084635,719.8979593999684,720.0647656000219,6.031044599832967,6.164163399953395,726.0978059999179,12.030628899810836,726.1811049000826,726.1811049000826,0.03086839965544641,0.13083719974383712,down,0.6747194998897612,726.8980533001013,4.1400082409381866e-05,0.11415780009701848,732.9479032000527,732.9479032000527,0.04216359998099506,0.18096780008636415,4.0,2.872884900076315,,,,,,,714.0646099001169,714.0646099001169,,,6164,Moral,2025-02-07_10h37.18.903,MoralCondition_v2,2022.2.5,59.92387266267894,
12,0,12,0,1,0,1,0,,,,,,,,,,,,,,,,,,,,,,,,,,,,,,,,,,,,,,,,,,,,,,,,735.848071299959,735.848071299959,0.0077003000769764185,0.13083739997819066,2.0,2.4911201000213623,,,,,,,,,,,6164,Moral,2025-02-07_10h37.18.903,MoralCondition_v2,2022.2.5,59.92387266267894,
12,0,12,0,2,0,2,0,,,,,,,,,,,,,,,,,,,,,,,,,,,,,,,,,,,,,,,,,,,,,,,,738.3810552000068,738.3810552000068,0.006538900081068277,0.1324988000560552,5.0,2.526785100111738,,,,,,,,,,,6164,Moral,2025-02-07_10h37.18.903,MoralCondition_v2,2022.2.5,59.92387266267894,
12,0,12,0,3,0,3,0,,,,,,,,,,,,,,,,,,,,,,,,,,,,,,,,,,,,,,,,,,,,,,,,740.9478132000659,740.9478132000659,0.006600100081413984,0.13273399998433888,5.0,2.093695100164041,,,,,,,,,,,6164,Moral,2025-02-07_10h37.18.903,MoralCondition_v2,2022.2.5,59.92387266267894,
12,0,12,0,4,0,4,0,,,,,,,,,,,,,,,,,,,,,,,,,,,,,,,,,,,,,,,,,,,,,,,,743.0810567000881,743.0810567000881,0.007150999968871474,0.13262289995327592,7.0,1.9930743998847902,,,,,,,,,,,6164,Moral,2025-02-07_10h37.18.903,MoralCondition_v2,2022.2.5,59.92387266267894,
12,0,12,0,5,0,5,0,,,,,,,,,,,,,,,,,,,,,,,,,,,,,,,,,,,,,,,,,,,,,,,,745.1144608000759,745.1144608000759,0.006653800141066313,0.13236339995637536,1.0,1.560085800010711,,,,,,,,,,,6164,Moral,2025-02-07_10h37.18.903,MoralCondition_v2,2022.2.5,59.92387266267894,
12,0,12,0,6,0,6,0,,,,,,,,,,,,,,,,,,,,,,,,,,,,,,,,,,,,,,,,,,,,,,,,746.7145002000034,746.7145002000034,0.007381000090390444,0.1312824001070112,5.0,3.4581077999901026,,,,,,,,,,,6164,Moral,2025-02-07_10h37.18.903,MoralCondition_v2,2022.2.5,59.92387266267894,
12,0,12,0,,,,,,,,,,,,,,,,,,,,,,,,,,,,,,,,,,,,,,,,,,,,,,,,,,,,,,,,,,750.21440539998,750.21440539998,0.0014944998547434807,0.13069809996522963,2.0,5.296894500032067,,,,,6164,Moral,2025-02-07_10h37.18.903,MoralCondition_v2,2022.2.5,59.92387266267894,
13,0,13,0,0,0,0,0,,,,,,,,,,,,,,,,,,755.5479820000473,0.00030640000477433205,0.13088880013674498,6.0309439999982715,761.5811256000306,761.7476216999348,761.7476216999348,0.08883380005136132,0.23108830000273883,6.0308348999824375,767.8475581000093,767.8475581000093,767.8475581000093,0.08869289979338646,0.23079459997825325,773.5811681998894,773.7477841000073,6.030848699854687,6.164198399987072,779.7810458000749,12.030803799862042,779.8810320999473,779.8810320999473,0.030974699882790446,0.16410049982368946,up,9.694615100044757,789.6309750000946,5.3900061175227165e-05,0.13144550006836653,795.6645810999908,795.6645810999908,0.02588680014014244,0.16461500013247132,1.0,2.206868699984625,,,,,,,,,,,6164,Moral,2025-02-07_10h37.18.903,MoralCondition_v2,2022.2.5,59.92387266267894,
13,0,13,0,1,0,1,0,,,,,,,,,,,,,,,,,,,,,,,,,,,,,,,,,,,,,,,,,,,,,,,,797.8974798999261,797.8974798999261,0.0075465000700205564,0.13131220010109246,1.0,1.1913314000703394,,,,,,,,,,,6164,Moral,2025-02-07_10h37.18.903,MoralCondition_v2,2022.2.5,59.92387266267894,
13,0,13,0,2,0,2,0,,,,,,,,,,,,,,,,,,,,,,,,,,,,,,,,,,,,,,,,,,,,,,,,799.130873600021,799.130873600021,0.007771000033244491,0.1311015000101179,7.0,2.757757500046864,,,,,,,,,,,6164,Moral,2025-02-07_10h37.18.903,MoralCondition_v2,2022.2.5,59.92387266267894,
13,0,13,0,3,0,3,0,,,,,,,,,,,,,,,,,,,,,,,,,,,,,,,,,,,,,,,,,,,,,,,,801.9311146999244,801.9311146999244,0.007185199996456504,0.1313842001836747,2.0,2.458492700010538,,,,,,,,,,,6164,Moral,2025-02-07_10h37.18.903,MoralCondition_v2,2022.2.5,59.92387266267894,
13,0,13,0,4,0,4,0,,,,,,,,,,,,,,,,,,,,,,,,,,,,,,,,,,,,,,,,,,,,,,,,804.4480451999698,804.4480451999698,0.008808000013232231,0.1470419999677688,4.0,3.1726233998779207,,,,,,,,,,,6164,Moral,2025-02-07_10h37.18.903,MoralCondition_v2,2022.2.5,59.92387266267894,
13,0,13,0,5,0,5,0,,,,,,,,,,,,,,,,,,,,,,,,,,,,,,,,,,,,,,,,,,,,,,,,807.6474357999396,807.6474357999396,0.007564599858596921,0.13094699988141656,5.0,2.4579054000787437,,,,,,,,,,,6164,Moral,2025-02-07_10h37.18.903,MoralCondition_v2,2022.2.5,59.92387266267894,
13,0,13,0,6,0,6,0,,,,,,,,,,,,,,,,,,,,,,,,,,,,,,,,,,,,,,,,,,,,,,,,810.1475678000133,810.1475678000133,0.007222800049930811,0.13142230012454093,2.0,2.0252427000086755,,,,,,,,,,,6164,Moral,2025-02-07_10h37.18.903,MoralCondition_v2,2022.2.5,59.92387266267894,
13,0,13,0,,,,,,,,,,,,,,,,,,,,,,,,,,,,,,,,,,,,,,,,,,,,,,,,,,,,,,,,,,812.2144599999301,812.2144599999301,0.0006921999156475067,0.13276810012757778,2.0,4.766604100121185,,,,,6164,Moral,2025-02-07_10h37.18.903,MoralCondition_v2,2022.2.5,59.92387266267894,
14,0,14,0,0,0,0,0,,,,,,,,,,,,,,,,,,817.0144895999692,0.0003925999626517296,0.13074349984526634,6.030666299862787,823.0475270999596,823.1974975001067,823.1974975001067,0.0717411998193711,0.214032799936831,6.014231399865821,829.2976188000757,829.2976188000757,829.2976188000757,0.07249259972013533,0.21413879981264472,835.030835099984,835.2309290000703,6.013992699794471,6.147392199840397,841.2641698000953,12.013893699739128,841.330738699995,841.330738699995,0.01422569970600307,0.14729029964655638,up,0.6766648001503199,842.0641055000015,4.720012657344341e-05,0.131218200083822,848.0806173998863,848.0806173998863,0.02598930010572076,0.1477215001359582,1.0,2.789496999932453,,,,,,,,,,,6164,Moral,2025-02-07_10h37.18.903,MoralCondition_v2,2022.2.5,59.92387266267894,
14,0,14,0,1,0,1,0,,,,,,,,,,,,,,,,,,,,,,,,,,,,,,,,,,,,,,,,,,,,,,,,850.9310111999512,850.9310111999512,0.008054499980062246,0.14761270000599325,2.0,1.9738718001171947,,,,,,,,,,,6164,Moral,2025-02-07_10h37.18.903,MoralCondition_v2,2022.2.5,59.92387266267894,
14,0,14,0,2,0,2,0,,,,,,,,,,,,,,,,,,,,,,,,,,,,,,,,,,,,,,,,,,,,,,,,852.9307806000579,852.9307806000579,0.0066754999570548534,0.13248439994640648,6.0,2.0604767000768334,,,,,,,,,,,6164,Moral,2025-02-07_10h37.18.903,MoralCondition_v2,2022.2.5,59.92387266267894,
14,0,14,0,3,0,3,0,,,,,,,,,,,,,,,,,,,,,,,,,,,,,,,,,,,,,,,,,,,,,,,,855.0307038000319,855.0307038000319,0.00645110011100769,0.13201040006242692,1.0,1.7934455000795424,,,,,,,,,,,6164,Moral,2025-02-07_10h37.18.903,MoralCondition_v2,2022.2.5,59.92387266267894,
14,0,14,0,4,0,4,0,,,,,,,,,,,,,,,,,,,,,,,,,,,,,,,,,,,,,,,,,,,,,,,,856.8808351000771,856.8808351000771,0.007888599997386336,0.14807519991882145,3.0,1.4740722000133246,,,,,,,,,,,6164,Moral,2025-02-07_10h37.18.903,MoralCondition_v2,2022.2.5,59.92387266267894,
14,0,14,0,5,0,5,0,,,,,,,,,,,,,,,,,,,,,,,,,,,,,,,,,,,,,,,,,,,,,,,,858.3805386999156,858.3805386999156,0.006329299882054329,0.13223799993284047,4.0,2.9936089001130313,,,,,,,,,,,6164,Moral,2025-02-07_10h37.18.903,MoralCondition_v2,2022.2.5,59.92387266267894,
14,0,14,0,6,0,6,0,,,,,,,,,,,,,,,,,,,,,,,,,,,,,,,,,,,,,,,,,,,,,,,,861.430854300037,861.430854300037,0.00851960014551878,0.14794700010679662,7.0,1.9405886998865753,,,,,,,,,,,6164,Moral,2025-02-07_10h37.18.903,MoralCondition_v2,2022.2.5,59.92387266267894,
14,0,14,0,,,,,,,,,,,,,,,,,,,,,,,,,,,,,,,,,,,,,,,,,,,,,,,,,,,,,,,,,,863.3972352999263,863.3972352999263,0.0013577998615801334,0.1310318000614643,7.0,4.897607799852267,,,,,6164,Moral,2025-02-07_10h37.18.903,MoralCondition_v2,2022.2.5,59.92387266267894,
15,0,15,0,0,0,0,0,,,,,,,,,,,,,,,,,,868.330657799961,0.0005328000988811255,0.11385999992489815,6.030619699973613,874.363956599962,874.5140990999062,874.5140990999062,0.07201149989850819,0.2139485999941826,6.013842299813405,880.6139314998873,880.6139314998873,880.6139314998873,0.07111329981125891,0.21390059986151755,886.3472327999771,886.5472347000614,6.013972299871966,6.147183399880305,892.5807370999828,12.014182399725541,892.6473077998962,892.6473077998962,0.013988499762490392,0.14714439981617033,up,0.784235900035128,893.4807512001134,3.360002301633358e-05,0.13231670018285513,899.5306494999677,899.5306494999677,0.04236700013279915,0.18201290001161397,1.0,2.940572999883443,,,,,,,,,,,6164,Moral,2025-02-07_10h37.18.903,MoralCondition_v2,2022.2.5,59.92387266267894,
15,0,15,0,1,0,1,0,,,,,,,,,,,,,,,,,,,,,,,,,,,,,,,,,,,,,,,,,,,,,,,,902.4973043999635,902.4973043999635,0.005674100015312433,0.1328984999563545,7.0,1.5286371000111103,,,,,,,,,,,6164,Moral,2025-02-07_10h37.18.903,MoralCondition_v2,2022.2.5,59.92387266267894,
15,0,15,0,2,0,2,0,,,,,,,,,,,,,,,,,,,,,,,,,,,,,,,,,,,,,,,,,,,,,,,,904.0640066999476,904.0640066999476,0.006944800028577447,0.1316434999462217,2.0,3.0591061001177877,,,,,,,,,,,6164,Moral,2025-02-07_10h37.18.903,MoralCondition_v2,2022.2.5,59.92387266267894,
15,0,15,0,3,0,3,0,,,,,,,,,,,,,,,,,,,,,,,,,,,,,,,,,,,,,,,,,,,,,,,,907.1638917999808,907.1638917999808,0.009321999968960881,0.13071470009163022,2.0,3.189369000028819,,,,,,,,,,,6164,Moral,2025-02-07_10h37.18.903,MoralCondition_v2,2022.2.5,59.92387266267894,
15,0,15,0,4,0,4,0,,,,,,,,,,,,,,,,,,,,,,,,,,,,,,,,,,,,,,,,,,,,,,,,910.3972183000296,910.3972183000296,0.009351100074127316,0.13085440010763705,1.0,2.255784699926153,,,,,,,,,,,6164,Moral,2025-02-07_10h37.18.903,MoralCondition_v2,2022.2.5,59.92387266267894,
15,0,15,0,5,0,5,0,,,,,,,,,,,,,,,,,,,,,,,,,,,,,,,,,,,,,,,,,,,,,,,,912.6974774999544,912.6974774999544,0.0065789001528173685,0.1327624002005905,5.0,3.12759429984726,,,,,,,,,,,6164,Moral,2025-02-07_10h37.18.903,MoralCondition_v2,2022.2.5,59.92387266267894,
15,0,15,0,6,0,6,0,,,,,,,,,,,,,,,,,,,,,,,,,,,,,,,,,,,,,,,,,,,,,,,,915.8809128000867,915.8809128000867,0.008726600091904402,0.14771790010854602,1.0,1.6066865001339465,,,,,,,,,,,6164,Moral,2025-02-07_10h37.18.903,MoralCondition_v2,2022.2.5,59.92387266267894,
15,0,15,0,,,,,,,,,,,,,,,,,,,,,,,,,,,,,,,,,,,,,,,,,,,,,,,,,,,,,,,,,,917.5137726000976,917.5137726000976,0.0013967000413686037,0.13134329998865724,6.0,2.930913800140843,,,,,6164,Moral,2025-02-07_10h37.18.903,MoralCondition_v2,2022.2.5,59.92387266267894,
16,0,16,0,0,0,0,0,,,,,,,,,,,,,,,,,,920.4807424999308,0.0003331999760121107,0.1307035000063479,6.014033399987966,926.4971187000629,926.6636010999791,926.6636010999791,0.06655750004574656,0.21405120007693768,6.0140098999254405,932.746933999937,932.746933999937,932.746933999937,0.0649521998129785,0.19750029989518225,938.4803774999455,938.6803566999733,6.030691099818796,6.163980099838227,944.7136929000262,12.030599699821323,944.8136694999412,944.8136694999412,0.030829599825665355,0.16400739969685674,up,1.9458653000183403,946.796967699891,2.240017056465149e-05,0.13245130004361272,952.8308651000261,952.8308651000261,0.026054700138047338,0.16557980002835393,5.0,3.674110900145024,,,,,,,,,944.780304600019,944.780304600019,6164,Moral,2025-02-07_10h37.18.903,MoralCondition_v2,2022.2.5,59.92387266267894,
16,0,16,0,1,0,1,0,,,,,,,,,,,,,,,,,,,,,,,,,,,,,,,,,,,,,,,,,,,,,,,,956.530188600067,956.530188600067,0.007810899987816811,0.13241209997795522,1.0,1.8256852000486106,,,,,,,,,,,6164,Moral,2025-02-07_10h37.18.903,MoralCondition_v2,2022.2.5,59.92387266267894,
16,0,16,0,2,0,2,0,,,,,,,,,,,,,,,,,,,,,,,,,,,,,,,,,,,,,,,,,,,,,,,,958.3968362000305,958.3968362000305,0.0070050000213086605,0.13193460018374026,1.0,1.6258840998634696,,,,,,,,,,,6164,Moral,2025-02-07_10h37.18.903,MoralCondition_v2,2022.2.5,59.92387266267894,
16,0,16,0,3,0,3,0,,,,,,,,,,,,,,,,,,,,,,,,,,,,,,,,,,,,,,,,,,,,,,,,960.0634173001163,960.0634173001163,0.007713800063356757,0.13128980016335845,7.0,2.2581211999058723,,,,,,,,,,,6164,Moral,2025-02-07_10h37.18.903,MoralCondition_v2,2022.2.5,59.92387266267894,
16,0,16,0,4,0,4,0,,,,,,,,,,,,,,,,,,,,,,,,,,,,,,,,,,,,,,,,,,,,,,,,962.3636237001047,962.3636237001047,0.007974700070917606,0.13188620004802942,1.0,2.825316800037399,,,,,,,,,,,6164,Moral,2025-02-07_10h37.18.903,MoralCondition_v2,2022.2.5,59.92387266267894,
16,0,16,0,5,0,5,0,,,,,,,,,,,,,,,,,,,,,,,,,,,,,,,,,,,,,,,,,,,,,,,,965.2303665999789,965.2303665999789,0.0068951998837292194,0.13213649997487664,2.0,1.5932436001021415,,,,,,,,,,,6164,Moral,2025-02-07_10h37.18.903,MoralCondition_v2,2022.2.5,59.92387266267894,
16,0,16,0,6,0,6,0,,,,,,,,,,,,,,,,,,,,,,,,,,,,,,,,,,,,,,,,,,,,,,,,966.8635913000908,966.8635913000908,0.006543800001963973,0.13265580008737743,1.0,2.5936495000496507,,,,,,,,,,,6164,Moral,2025-02-07_10h37.18.903,MoralCondition_v2,2022.2.5,59.92387266267894,
16,0,16,0,,,,,,,,,,,,,,,,,,,,,,,,,,,,,,,,,,,,,,,,,,,,,,,,,,,,,,,,,,969.4968113999348,969.4968113999348,0.00046849995851516724,0.13234249991364777,6.0,1.9999245000071824,,,,,6164,Moral,2025-02-07_10h37.18.903,MoralCondition_v2,2022.2.5,59.92387266267894,
17,0,17,0,0,0,0,0,,,,,,,,,,,,,,,,,,971.5304972000886,0.0003206999972462654,0.13034559995867312,6.030330399982631,977.5634896999691,977.7301245999988,977.7301245999988,0.08580289990641177,0.23028929997235537,6.030276899924502,983.8301226000767,983.8301226000767,983.8301226000767,0.08280709991231561,0.23038589977659285,989.5633696001023,989.7301499999594,6.030312099726871,6.163553899852559,995.7635154000018,12.030244199791923,995.863560799975,995.863560799975,0.030406899750232697,0.1635285997763276,up,1.1201190000865608,997.030381300021,4.7800131142139435e-05,0.1309710000641644,1003.0800872999243,1003.0800872999243,0.04209020012058318,0.18086299998685718,1.0,2.273031699936837,,,,,,,,,,,6164,Moral,2025-02-07_10h37.18.903,MoralCondition_v2,2022.2.5,59.92387266267894,
17,0,17,0,1,0,1,0,,,,,,,,,,,,,,,,,,,,,,,,,,,,,,,,,,,,,,,,,,,,,,,,1005.380250700051,1005.380250700051,0.005962600000202656,0.1313452001195401,1.0,2.4597601999994367,,,,,,,,,,,6164,Moral,2025-02-07_10h37.18.903,MoralCondition_v2,2022.2.5,59.92387266267894,
17,0,17,0,2,0,2,0,,,,,,,,,,,,,,,,,,,,,,,,,,,,,,,,,,,,,,,,,,,,,,,,1007.8800609998871,1007.8800609998871,0.007898199837654829,0.13091959990561008,3.0,2.2241638998966664,,,,,,,,,,,6164,Moral,2025-02-07_10h37.18.903,MoralCondition_v2,2022.2.5,59.92387266267894,
17,0,17,0,3,0,3,0,,,,,,,,,,,,,,,,,,,,,,,,,,,,,,,,,,,,,,,,,,,,,,,,1010.1467895000242,1010.1467895000242,0.007632700027897954,0.13146639987826347,1.0,1.1915255000349134,,,,,,,,,,,6164,Moral,2025-02-07_10h37.18.903,MoralCondition_v2,2022.2.5,59.92387266267894,
17,0,17,0,4,0,4,0,,,,,,,,,,,,,,,,,,,,,,,,,,,,,,,,,,,,,,,,,,,,,,,,1011.3799751999322,1011.3799751999322,0.007584499893710017,0.13106609997339547,7.0,1.7913677000906318,,,,,,,,,,,6164,Moral,2025-02-07_10h37.18.903,MoralCondition_v2,2022.2.5,59.92387266267894,
17,0,17,0,5,0,5,0,,,,,,,,,,,,,,,,,,,,,,,,,,,,,,,,,,,,,,,,,,,,,,,,1013.2302002999932,1013.2302002999932,0.007892700145021081,0.1473867001477629,5.0,1.9404848001431674,,,,,,,,,,,6164,Moral,2025-02-07_10h37.18.903,MoralCondition_v2,2022.2.5,59.92387266267894,
17,0,17,0,6,0,6,0,,,,,,,,,,,,,,,,,,,,,,,,,,,,,,,,,,,,,,,,,,,,,,,,1015.1965481999796,1015.1965481999796,0.00641489983536303,0.13262319983914495,1.0,2.3605597000569105,,,,,,,,,,,6164,Moral,2025-02-07_10h37.18.903,MoralCondition_v2,2022.2.5,59.92387266267894,
17,0,17,0,,,,,,,,,,,,,,,,,,,,,,,,,,,,,,,,,,,,,,,,,,,,,,,,,,,,,,,,,,1017.5967733000871,1017.5967733000871,0.0014922998379915953,0.13128619990311563,6.0,1.7642188998870552,,,,,6164,Moral,2025-02-07_10h37.18.903,MoralCondition_v2,2022.2.5,59.92387266267894,
18,0,18,0,0,0,0,0,,,,,,,,,,,,,,,,,,1019.3968776001129,0.00029639992862939835,0.1310574000235647,6.01453600008972,1025.4134492999874,1025.5968470999505,1025.5968470999505,0.09154469985514879,0.23129140003584325,6.031177399912849,1031.6966570001096,1031.6966570001096,1031.6966570001096,0.09067679988220334,0.23118699993938208,1037.4298805000726,1037.5967186999042,6.031350399833173,6.164313399931416,1043.629899499938,12.031118899816647,1043.7298858000431,1043.7298858000431,0.03135429974645376,0.16447679977864027,down,0.6609906000085175,1044.429880599957,4.0499959141016006e-05,0.1311379000544548,1050.4468115000054,1050.4468115000054,0.023426200030371547,0.14747179998084903,1.0,1.7251472000498325,,,,,,,,,,,6164,Moral,2025-02-07_10h37.18.903,MoralCondition_v2,2022.2.5,59.92387266267894,
18,0,18,0,1,0,1,0,,,,,,,,,,,,,,,,,,,,,,,,,,,,,,,,,,,,,,,,,,,,,,,,1052.2131068001036,1052.2131068001036,0.005975899985060096,0.1325903998222202,2.0,3.2275068000890315,,,,,,,,,,,6164,Moral,2025-02-07_10h37.18.903,MoralCondition_v2,2022.2.5,59.92387266267894,
18,0,18,0,2,0,2,0,,,,,,,,,,,,,,,,,,,,,,,,,,,,,,,,,,,,,,,,,,,,,,,,1055.4968220998999,1055.4968220998999,0.007906100014224648,0.1475414999295026,7.0,2.7073868999723345,,,,,,,,,,,6164,Moral,2025-02-07_10h37.18.903,MoralCondition_v2,2022.2.5,59.92387266267894,
18,0,18,0,3,0,3,0,,,,,,,,,,,,,,,,,,,,,,,,,,,,,,,,,,,,,,,,,,,,,,,,1058.2469299999066,1058.2469299999066,0.009184800088405609,0.14834569999948144,5.0,2.7402731999754906,,,,,,,,,,,6164,Moral,2025-02-07_10h37.18.903,MoralCondition_v2,2022.2.5,59.92387266267894,
18,0,18,0,4,0,4,0,,,,,,,,,,,,,,,,,,,,,,,,,,,,,,,,,,,,,,,,,,,,,,,,1061.013145300094,1061.013145300094,0.0068045000080019236,0.1323813998606056,4.0,3.3601776999421418,,,,,,,,,,,6164,Moral,2025-02-07_10h37.18.903,MoralCondition_v2,2022.2.5,59.92387266267894,
18,0,18,0,5,0,5,0,,,,,,,,,,,,,,,,,,,,,,,,,,,,,,,,,,,,,,,,,,,,,,,,1064.4129846000578,1064.4129846000578,0.006298599997535348,0.13209199998527765,5.0,1.9602037000004202,,,,,,,,,,,6164,Moral,2025-02-07_10h37.18.903,MoralCondition_v2,2022.2.5,59.92387266267894,
18,0,18,0,6,0,6,0,,,,,,,,,,,,,,,,,,,,,,,,,,,,,,,,,,,,,,,,,,,,,,,,1066.4131912998855,1066.4131912998855,0.006855399813503027,0.13267869991250336,7.0,1.8269637001212686,,,,,,,,,,,6164,Moral,2025-02-07_10h37.18.903,MoralCondition_v2,2022.2.5,59.92387266267894,
18,0,18,0,,,,,,,,,,,,,,,,,,,,,,,,,,,,,,,,,,,,,,,,,,,,,,,,,,,,,,,,,,1068.2800318000372,1068.2800318000372,0.0006870999932289124,0.13270549988374114,1.0,3.532783899921924,,,,,6164,Moral,2025-02-07_10h37.18.903,MoralCondition_v2,2022.2.5,59.92387266267894,
19,0,19,0,0,0,0,0,,,,,,,,,,,,,,,,,,1071.8464359999634,0.0005592000670731068,0.13058620016090572,6.0136641000863165,1077.8463069000281,1078.0463833000977,1078.0463833000977,0.09328019991517067,0.23042849986813962,6.030351500026882,1084.1463778000325,1084.1463778000325,1084.1463778000325,0.09320109989494085,0.230407299939543,1089.8797190999612,1090.046368200099,6.030385499820113,6.163777699926868,1096.0796739000361,12.030306099914014,1096.1797124000732,1096.1797124000732,0.03048519976437092,0.1636606997344643,up,0.5795766999945045,1096.7963654999621,3.429991193115711e-05,0.1311228999402374,1102.8128460000735,1102.8128460000735,0.024771800031885505,0.14769420004449785,1.0,5.657385000027716,,,,,,,,,,,6164,Moral,2025-02-07_10h37.18.903,MoralCondition_v2,2022.2.5,59.92387266267894,
19,0,19,0,1,0,1,0,,,,,,,,,,,,,,,,,,,,,,,,,,,,,,,,,,,,,,,,,,,,,,,,1108.5295949999709,1108.5295949999709,0.008248399943113327,0.14707139995880425,1.0,1.0730530000291765,,,,,,,,,,,6164,Moral,2025-02-07_10h37.18.903,MoralCondition_v2,2022.2.5,59.92387266267894,
19,0,19,0,2,0,2,0,,,,,,,,,,,,,,,,,,,,,,,,,,,,,,,,,,,,,,,,,,,,,,,,1109.6293496999424,1109.6293496999424,0.007714099949225783,0.13117130007594824,5.0,2.757897400064394,,,,,,,,,,,6164,Moral,2025-02-07_10h37.18.903,MoralCondition_v2,2022.2.5,59.92387266267894,
19,0,19,0,3,0,3,0,,,,,,,,,,,,,,,,,,,,,,,,,,,,,,,,,,,,,,,,,,,,,,,,1112.4295012000948,1112.4295012000948,0.006750499829649925,0.1326090998481959,5.0,1.7936599000822753,,,,,,,,,,,6164,Moral,2025-02-07_10h37.18.903,MoralCondition_v2,2022.2.5,59.92387266267894,
19,0,19,0,4,0,4,0,,,,,,,,,,,,,,,,,,,,,,,,,,,,,,,,,,,,,,,,,,,,,,,,1114.2795140000526,1114.2795140000526,0.008655200013890862,0.14751409995369613,7.0,1.6397534999996424,,,,,,,,,,,6164,Moral,2025-02-07_10h37.18.903,MoralCondition_v2,2022.2.5,59.92387266267894,
19,0,19,0,5,0,5,0,,,,,,,,,,,,,,,,,,,,,,,,,,,,,,,,,,,,,,,,,,,,,,,,1115.9463023999706,1115.9463023999706,0.0073847000021487474,0.13142400002107024,1.0,1.3917965998407453,,,,,,,,,,,6164,Moral,2025-02-07_10h37.18.903,MoralCondition_v2,2022.2.5,59.92387266267894,
19,0,19,0,6,0,6,0,,,,,,,,,,,,,,,,,,,,,,,,,,,,,,,,,,,,,,,,,,,,,,,,1117.3796669999138,1117.3796669999138,0.007777900202199817,0.1313452001195401,1.0,2.0246425999794155,,,,,,,,,,,6164,Moral,2025-02-07_10h37.18.903,MoralCondition_v2,2022.2.5,59.92387266267894,
19,0,19,0,,,,,,,,,,,,,,,,,,,,,,,,,,,,,,,,,,,,,,,,,,,,,,,,,,,,,,,,,,1119.4463498000987,1119.4463498000987,0.0007386000361293554,0.13228749996051192,6.0,2.2328043999150395,,,,,6164,Moral,2025-02-07_10h37.18.903,MoralCondition_v2,2022.2.5,59.92387266267894,
