loop.thisRepN,loop.thisTrialN,loop.thisN,loop.thisIndex,evaluate_all_emotions.thisRepN,evaluate_all_emotions.thisTrialN,evaluate_all_emotions.thisN,evaluate_all_emotions.thisIndex,sync_beep_1.started,p_port.started,p_port.stopped,sync_beep_1.stopped,sync_beep_2.started,sync_beep_2.stopped,sync_beep_3.started,sync_beep_3.stopped,sync_beep_4.started,sync_beep_4.stopped,baseline.started,p_port_2.started,p_port_2.stopped,baseline.stopped,p_port_3.started,p_port_3.stopped,Game_Start_Text.started,p_port_4.started,p_port_4.stopped,key_resp.started,key_resp.keys,key_resp.rt,fixation_cross.started,p_port_5.started,p_port_5.stopped,fixation_cross.stopped,p_port_6.started,player_image_intro.started,player_name_intro.started,p_port_7.started,p_port_7.stopped,p_port_8.started,player_image_offer.started,player_name_offer.started,proposed_split.started,p_port_9.started,p_port_9.stopped,proposed_split.stopped,accept_reject.started,p_port_15.started,p_port_15.stopped,accept_reject.stopped,p_port_10.started,arrow_instructions.started,offer_choice.started,p_port_11.started,p_port_11.stopped,offer_choice.keys,offer_choice.rt,Instructions_Affinity_Score.started,p_port_12.started,p_port_12.stopped,Instructions_Affinity_Score.stopped,Emotion_Image.started,AffinityScore.started,p_port_13.started,p_port_13.stopped,AffinityScore.response,AffinityScore.rt,Instruction.started,Moral_Disgust_Score.started,p_port_14.started,p_port_14.stopped,Moral_Disgust_Score.response,Moral_Disgust_Score.rt,player_image_offer.stopped,player_name_offer.stopped,player_image_intro.stopped,player_name_intro.stopped,p_port_8.stopped,p_port_10.stopped,p_port_6.stopped,participant,session,date,expName,psychopyVersion,frameRate,
,,,,,,,,17.137133608758447,0.0008448995649814606,0.11588210053741932,17.438367798924446,17.721383499726652,18.038188599050045,18.338230198994278,18.654810899868608,18.938299699500202,19.2548222001642,19.2548222001642,0.0325568001717329,0.1326655000448227,34.25487719848752,14.999330399557948,15.099300000816584,34.354900598526,0.00012650154531002045,0.09921720065176487,34.82157249934971,space,1.389529600739479,,,,,,,,,,,,,,,,,,,,,,,,,,,,,,,,,,,,,,,,,,,,,,,,,,,6466,Moral,2024-07-03_09h26.51.931,MoralCondition_v2,2022.2.5,30.0036034217876,
0,0,0,0,0,0,0,0,,,,,,,,,,,,,,,,,,,,,,,36.27158339880407,0.0020921994000673294,0.10091109946370125,42.271524999290705,6.0009049996733665,42.4882474001497,42.4882474001497,0.0824194997549057,0.21762320026755333,6.0177263002842665,48.58830769918859,48.58830769918859,48.58830769918859,0.0885597001761198,0.21792560070753098,54.28820429928601,54.454882100224495,6.017571400851011,6.117543799802661,60.454886799678206,12.017597399652004,60.58820549957454,60.58820549957454,0.017830900847911835,0.11768200062215328,up,1.8068230021744967,62.45487709902227,3.390014171600342e-05,0.09677979908883572,68.47152069956064,68.47152069956064,68.47152069956064,0.007972098886966705,0.11331930011510849,4.0,6.672920100390911,,,,,,,,,,,,,,6466,Moral,2024-07-03_09h26.51.931,MoralCondition_v2,2022.2.5,30.0036034217876,
0,0,0,0,1,0,1,0,,,,,,,,,,,,,,,,,,,,,,,,,,,,,,,,,,,,,,,,,,,,,,,,,,,,,,75.18824579939246,75.18824579939246,0.027592500671744347,0.11575530096888542,2.0,8.355612000450492,,,,,,,,,,,,,,6466,Moral,2024-07-03_09h26.51.931,MoralCondition_v2,2022.2.5,30.0036034217876,
0,0,0,0,2,0,2,0,,,,,,,,,,,,,,,,,,,,,,,,,,,,,,,,,,,,,,,,,,,,,,,,,,,,,,83.60489979945123,83.60489979945123,0.011845100671052933,0.11395610123872757,2.0,4.336624199524522,,,,,,,,,,,,,,6466,Moral,2024-07-03_09h26.51.931,MoralCondition_v2,2022.2.5,30.0036034217876,
0,0,0,0,3,0,3,0,,,,,,,,,,,,,,,,,,,,,,,,,,,,,,,,,,,,,,,,,,,,,,,,,,,,,,87.98834949918091,87.98834949918091,0.011591700837016106,0.11407610028982162,3.0,3.236905498430133,,,,,,,,,,,,,,6466,Moral,2024-07-03_09h26.51.931,MoralCondition_v2,2022.2.5,30.0036034217876,
0,0,0,0,4,0,4,0,,,,,,,,,,,,,,,,,,,,,,,,,,,,,,,,,,,,,,,,,,,,,,,,,,,,,,91.27178269997239,91.27178269997239,0.011640001088380814,0.11429640091955662,2.0,6.036959299817681,,,,,,,,,,,,,,6466,Moral,2024-07-03_09h26.51.931,MoralCondition_v2,2022.2.5,30.0036034217876,
0,0,0,0,5,0,5,0,,,,,,,,,,,,,,,,,,,,,,,,,,,,,,,,,,,,,,,,,,,,,,,,,,,,,,97.35521369986236,97.35521369986236,0.011273600161075592,0.11458560079336166,5.0,5.570888798683882,,,,,,,,,,,,,,6466,Moral,2024-07-03_09h26.51.931,MoralCondition_v2,2022.2.5,30.0036034217876,
0,0,0,0,6,0,6,0,,,,,,,,,,,,,,,,,,,,,,,,,,,,,,,,,,,,,,,,,,,,,,,,,,,,,,102.97152609936893,102.97152609936893,0.009853299707174301,0.11459719948470592,2.0,3.8057774007320404,,,,,,,,,,,,,,6466,Moral,2024-07-03_09h26.51.931,MoralCondition_v2,2022.2.5,30.0036034217876,
0,0,0,0,,,,,,,,,,,,,,,,,,,,,,,,,,,,,,,,,,,,,,,,,,,,,,,,,,,,,,,,,,,,,,,,106.80488289892673,106.80488289892673,0.0011954009532928467,0.09790549986064434,3.0,13.698010200634599,,,,,,,,6466,Moral,2024-07-03_09h26.51.931,MoralCondition_v2,2022.2.5,30.0036034217876,
1,0,1,0,0,0,0,0,,,,,,,,,,,,,,,,,,,,,,,120.53853330016136,0.0001558009535074234,0.09880640171468258,126.53835649974644,6.032184401527047,126.7715245001018,126.7715245001018,0.12885120138525963,0.23232930153608322,6.0322549007833,132.8381410986185,132.8381410986185,132.8381410986185,0.09359780140221119,0.19889170117676258,138.53819029964507,138.73822509869933,6.0320467017591,6.132071200758219,144.73845879919827,12.03229890204966,144.87159360013902,144.87159360013902,0.032185301184654236,0.13199500180780888,down,1.7550194021314383,146.68839239887893,3.1599774956703186e-05,0.09845679998397827,,152.72187579981983,152.72187579981983,0.02639859914779663,0.13187209889292717,6.0,4.573255300521851,,,,,,,144.83820149861276,144.83820149861276,,,,,,6466,Moral,2024-07-03_09h26.51.931,MoralCondition_v2,2022.2.5,30.0036034217876,
1,0,1,0,1,0,1,0,,,,,,,,,,,,,,,,,,,,,,,,,,,,,,,,,,,,,,,,,,,,,,,,,,,,,,157.3216204997152,157.3216204997152,0.0074080005288124084,0.09745660051703453,3.0,4.925223499536514,,,,,,,,,,,,,,6466,Moral,2024-07-03_09h26.51.931,MoralCondition_v2,2022.2.5,30.0036034217876,
1,0,1,0,2,0,2,0,,,,,,,,,,,,,,,,,,,,,,,,,,,,,,,,,,,,,,,,,,,,,,,,,,,,,,162.28814609907568,162.28814609907568,0.0074052996933460236,0.09778619930148125,5.0,2.7915634997189045,,,,,,,,,,,,,,6466,Moral,2024-07-03_09h26.51.931,MoralCondition_v2,2022.2.5,30.0036034217876,
1,0,1,0,3,0,3,0,,,,,,,,,,,,,,,,,,,,,,,,,,,,,,,,,,,,,,,,,,,,,,,,,,,,,,165.12159349955618,165.12159349955618,0.007678700610995293,0.09768840111792088,2.0,2.891204100102186,,,,,,,,,,,,,,6466,Moral,2024-07-03_09h26.51.931,MoralCondition_v2,2022.2.5,30.0036034217876,
1,0,1,0,4,0,4,0,,,,,,,,,,,,,,,,,,,,,,,,,,,,,,,,,,,,,,,,,,,,,,,,,,,,,,168.05487059988081,168.05487059988081,0.006737999618053436,0.09913370013237,5.0,2.6770264990627766,,,,,,,,,,,,,,6466,Moral,2024-07-03_09h26.51.931,MoralCondition_v2,2022.2.5,30.0036034217876,
1,0,1,0,5,0,5,0,,,,,,,,,,,,,,,,,,,,,,,,,,,,,,,,,,,,,,,,,,,,,,,,,,,,,,170.77166489884257,170.77166489884257,0.006713900715112686,0.0990557000041008,5.0,3.426759699359536,,,,,,,,,,,,,,6466,Moral,2024-07-03_09h26.51.931,MoralCondition_v2,2022.2.5,30.0036034217876,
1,0,1,0,6,0,6,0,,,,,,,,,,,,,,,,,,,,,,,,,,,,,,,,,,,,,,,,,,,,,,,,,,,,,,174.25485019944608,174.25485019944608,0.010738801211118698,0.11559309996664524,5.0,1.5725562013685703,,,,,,,,,,,,,,6466,Moral,2024-07-03_09h26.51.931,MoralCondition_v2,2022.2.5,30.0036034217876,
1,0,1,0,,,,,,,,,,,,,,,,,,,,,,,,,,,,,,,,,,,,,,,,,,,,,,,,,,,,,,,,,,,,,,,,175.85497509874403,175.85497509874403,0.0015584994107484818,0.09730399958789349,2.0,6.146673198789358,,,,,,,,6466,Moral,2024-07-03_09h26.51.931,MoralCondition_v2,2022.2.5,30.0036034217876,
2,0,2,0,0,0,0,0,,,,,,,,,,,,,,,,,,,,,,,182.0381026994437,0.00015350058674812317,0.11565859988331795,188.05488769896328,6.015818299725652,188.23809949867427,188.23809949867427,0.09115340001881123,0.199371000751853,5.999152399599552,194.3047957997769,194.3047957997769,194.3047957997769,0.05219230055809021,0.16602140106260777,200.00491070002317,200.20499059930444,5.999365800991654,6.099121600389481,206.20487659983337,11.9991763997823,206.3382345996797,206.3382345996797,6.400048732757568e-05,0.09910690039396286,down,4.208360601216555,210.5882403999567,4.860013723373413e-05,0.09788009896874428,,216.62179229967296,216.62179229967296,0.026357600465416908,0.13129309937357903,6.0,4.872639300301671,,,,,,,206.30486919917166,206.30486919917166,194.3047957997769,194.3047957997769,6.099133500829339,12.099253300577402,,6466,Moral,2024-07-03_09h26.51.931,MoralCondition_v2,2022.2.5,30.0036034217876,
2,0,2,0,1,0,1,0,,,,,,,,,,,,,,,,,,,,,,,,,,,,,,,,,,,,,,,,,,,,,,,,,,,,,,221.5216841995716,221.5216841995716,0.007651099935173988,0.0978494007140398,5.0,2.724447399377823,,,,,,,,,,,,,,6466,Moral,2024-07-03_09h26.51.931,MoralCondition_v2,2022.2.5,30.0036034217876,
2,0,2,0,2,0,2,0,,,,,,,,,,,,,,,,,,,,,,,,,,,,,,,,,,,,,,,,,,,,,,,,,,,,,,224.30502169951797,224.30502169951797,0.008380500599741936,0.1148132998496294,5.0,1.7072788011282682,,,,,,,,,,,,,,6466,Moral,2024-07-03_09h26.51.931,MoralCondition_v2,2022.2.5,30.0036034217876,
2,0,2,0,3,0,3,0,,,,,,,,,,,,,,,,,,,,,,,,,,,,,,,,,,,,,,,,,,,,,,,,,,,,,,226.03824159875512,226.03824159875512,0.00731240026652813,0.09796190075576305,2.0,2.892010299488902,,,,,,,,,,,,,,6466,Moral,2024-07-03_09h26.51.931,MoralCondition_v2,2022.2.5,30.0036034217876,
2,0,2,0,4,0,4,0,,,,,,,,,,,,,,,,,,,,,,,,,,,,,,,,,,,,,,,,,,,,,,,,,,,,,,228.97153189964592,228.97153189964592,0.007419299334287643,0.09787460044026375,5.0,3.9250066988170147,,,,,,,,,,,,,,6466,Moral,2024-07-03_09h26.51.931,MoralCondition_v2,2022.2.5,30.0036034217876,
2,0,2,0,5,0,5,0,,,,,,,,,,,,,,,,,,,,,,,,,,,,,,,,,,,,,,,,,,,,,,,,,,,,,,232.93825200013816,232.93825200013816,0.006759399548172951,0.09899660013616085,5.0,2.660073898732662,,,,,,,,,,,,,,6466,Moral,2024-07-03_09h26.51.931,MoralCondition_v2,2022.2.5,30.0036034217876,
2,0,2,0,6,0,6,0,,,,,,,,,,,,,,,,,,,,,,,,,,,,,,,,,,,,,,,,,,,,,,,,,,,,,,235.63835329934955,235.63835329934955,0.008821800351142883,0.09750849939882755,4.0,4.723162600770593,,,,,,,,,,,,,,6466,Moral,2024-07-03_09h26.51.931,MoralCondition_v2,2022.2.5,30.0036034217876,
2,0,2,0,,,,,,,,,,,,,,,,,,,,,,,,,,,,,,,,,,,,,,,,,,,,,,,,,,,,,,,,,,,,,,,,240.4050331991166,240.4050331991166,0.0007236991077661514,0.09913199953734875,2.0,6.799544598907232,,,,,,,,6466,Moral,2024-07-03_09h26.51.931,MoralCondition_v2,2022.2.5,30.0036034217876,
3,0,3,0,0,0,0,0,,,,,,,,,,,,,,,,,,,,,,,247.23853779956698,0.00024399906396865845,0.09821509942412376,253.23823279887438,6.031417598947883,253.42136759869754,253.42136759869754,0.07299979962408543,0.1815063003450632,6.014715500175953,259.5215843990445,259.5215843990445,259.5215843990445,0.07465000078082085,0.1813783012330532,265.22151709906757,265.42166509851813,6.014880200847983,6.1146943010389805,271.42155109904706,12.0147486012429,271.5548915993422,271.5548915993422,0.0150075014680624,0.11466610059142113,up,1.5522859003394842,273.17153059877455,4.909932613372803e-05,0.09796989895403385,,279.1880828998983,279.1880828998983,0.024728799238801003,0.1144580990076065,2.0,4.057692101225257,,,,,,,271.52162049897015,271.52162049897015,259.4215436987579,259.4215436987579,,,,6466,Moral,2024-07-03_09h26.51.931,MoralCondition_v2,2022.2.5,30.0036034217876,
3,0,3,0,1,0,1,0,,,,,,,,,,,,,,,,,,,,,,,,,,,,,,,,,,,,,,,,,,,,,,,,,,,,,,283.2883358001709,283.2883358001709,0.007309200242161751,0.09777520038187504,2.0,1.924685999751091,,,,,,,,,,,,,,6466,Moral,2024-07-03_09h26.51.931,MoralCondition_v2,2022.2.5,30.0036034217876,
3,0,3,0,2,0,2,0,,,,,,,,,,,,,,,,,,,,,,,,,,,,,,,,,,,,,,,,,,,,,,,,,,,,,,285.254850698635,285.254850698635,0.006840400397777557,0.09912220016121864,5.0,3.859943300485611,,,,,,,,,,,,,,6466,Moral,2024-07-03_09h26.51.931,MoralCondition_v2,2022.2.5,30.0036034217876,
3,0,3,0,3,0,3,0,,,,,,,,,,,,,,,,,,,,,,,,,,,,,,,,,,,,,,,,,,,,,,,,,,,,,,289.1551839001477,289.1551839001477,0.00703280046582222,0.09869029931724072,2.0,3.09286480024457,,,,,,,,,,,,,,6466,Moral,2024-07-03_09h26.51.931,MoralCondition_v2,2022.2.5,30.0036034217876,
3,0,3,0,4,0,4,0,,,,,,,,,,,,,,,,,,,,,,,,,,,,,,,,,,,,,,,,,,,,,,,,,,,,,,292.3050180990249,292.3050180990249,0.011275500059127808,0.11486909911036491,5.0,4.60451359860599,,,,,,,,,,,,,,6466,Moral,2024-07-03_09h26.51.931,MoralCondition_v2,2022.2.5,30.0036034217876,
3,0,3,0,5,0,5,0,,,,,,,,,,,,,,,,,,,,,,,,,,,,,,,,,,,,,,,,,,,,,,,,,,,,,,296.95503029972315,296.95503029972315,0.008014300838112831,0.11426660045981407,2.0,3.4755288008600473,,,,,,,,,,,,,,6466,Moral,2024-07-03_09h26.51.931,MoralCondition_v2,2022.2.5,30.0036034217876,
3,0,3,0,6,0,6,0,,,,,,,,,,,,,,,,,,,,,,,,,,,,,,,,,,,,,,,,,,,,,,,,,,,,,,300.47176989912987,300.47176989912987,0.010579898953437805,0.11410969868302345,2.0,2.8710914999246597,,,,,,,,,,,,,,6466,Moral,2024-07-03_09h26.51.931,MoralCondition_v2,2022.2.5,30.0036034217876,
3,0,3,0,,,,,,,,,,,,,,,,,,,,,,,,,,,,,,,,,,,,,,,,,,,,,,,,,,,,,,,,,,,,,,,,303.3714113999158,303.3714113999158,0.0015149004757404327,0.09751800075173378,4.0,6.0977274011820555,,,,,,,,6466,Moral,2024-07-03_09h26.51.931,MoralCondition_v2,2022.2.5,30.0036034217876,
4,0,4,0,0,0,0,0,,,,,,,,,,,,,,,,,,,,,,,309.5049555990845,0.000408099964261055,0.11395210027694702,315.50485009886324,6.03068189881742,315.7049986999482,315.7049986999482,0.0835547000169754,0.19720610044896603,6.030460899695754,321.8049582988024,321.8049582988024,321.8049582988024,0.09399810060858727,0.19764629937708378,327.5048497989774,327.70487440004945,6.030707500874996,6.130665000528097,333.7048002984375,12.030645800754428,333.8047313988209,333.8047313988209,0.013966299593448639,0.09729159995913506,up,1.1978518012911081,335.03830449841917,3.7299469113349915e-05,0.09776389971375465,,341.0548597984016,341.0548597984016,0.024323899298906326,0.1145102009177208,6.0,3.2915375996381044,,,,,,,333.78805739991367,333.78805739991367,321.7048671990633,321.7048671990633,,,,6466,Moral,2024-07-03_09h26.51.931,MoralCondition_v2,2022.2.5,30.0036034217876,
4,0,4,0,1,0,1,0,,,,,,,,,,,,,,,,,,,,,,,,,,,,,,,,,,,,,,,,,,,,,,,,,,,,,,344.38818020001054,344.38818020001054,0.006209800019860268,0.09884880110621452,2.0,2.727292399853468,,,,,,,,,,,,,,6466,Moral,2024-07-03_09h26.51.931,MoralCondition_v2,2022.2.5,30.0036034217876,
4,0,4,0,2,0,2,0,,,,,,,,,,,,,,,,,,,,,,,,,,,,,,,,,,,,,,,,,,,,,,,,,,,,,,347.1548097990453,347.1548097990453,0.007148599252104759,0.09941549971699715,2.0,2.0930659007281065,,,,,,,,,,,,,,6466,Moral,2024-07-03_09h26.51.931,MoralCondition_v2,2022.2.5,30.0036034217876,
4,0,4,0,3,0,3,0,,,,,,,,,,,,,,,,,,,,,,,,,,,,,,,,,,,,,,,,,,,,,,,,,,,,,,349.28816219978034,349.28816219978034,0.0073306988924741745,0.09837699867784977,2.0,1.7254817988723516,,,,,,,,,,,,,,6466,Moral,2024-07-03_09h26.51.931,MoralCondition_v2,2022.2.5,30.0036034217876,
4,0,4,0,4,0,4,0,,,,,,,,,,,,,,,,,,,,,,,,,,,,,,,,,,,,,,,,,,,,,,,,,,,,,,351.05482769943774,351.05482769943774,0.006536500528454781,0.09900069981813431,3.0,5.693597199395299,,,,,,,,,,,,,,6466,Moral,2024-07-03_09h26.51.931,MoralCondition_v2,2022.2.5,30.0036034217876,
4,0,4,0,5,0,5,0,,,,,,,,,,,,,,,,,,,,,,,,,,,,,,,,,,,,,,,,,,,,,,,,,,,,,,356.7880856990814,356.7880856990814,0.006858699023723602,0.09906020015478134,2.0,2.3598398994654417,,,,,,,,,,,,,,6466,Moral,2024-07-03_09h26.51.931,MoralCondition_v2,2022.2.5,30.0036034217876,
4,0,4,0,6,0,6,0,,,,,,,,,,,,,,,,,,,,,,,,,,,,,,,,,,,,,,,,,,,,,,,,,,,,,,359.2050824984908,359.2050824984908,0.007732599973678589,0.11430259980261326,2.0,1.9742461014539003,,,,,,,,,,,,,,6466,Moral,2024-07-03_09h26.51.931,MoralCondition_v2,2022.2.5,30.0036034217876,
4,0,4,0,,,,,,,,,,,,,,,,,,,,,,,,,,,,,,,,,,,,,,,,,,,,,,,,,,,,,,,,,,,,,,,,361.2049850989133,361.2049850989133,0.001225098967552185,0.09785260073840618,6.0,11.965132700279355,,,,,,,,6466,Moral,2024-07-03_09h26.51.931,MoralCondition_v2,2022.2.5,30.0036034217876,
5,0,5,0,0,0,0,0,,,,,,,,,,,,,,,,,,,,,,,373.204743899405,0.00024930015206336975,0.09867670014500618,379.20480299927294,6.032055001705885,379.4048763997853,379.4048763997853,0.09524910151958466,0.19883610121905804,6.032047402113676,385.5049058999866,385.5049058999866,385.5049058999866,0.09197690151631832,0.1989505011588335,391.2048182990402,391.37147389911115,6.032071702182293,6.132007300853729,397.3715945985168,12.03213670104742,397.538176799193,397.538176799193,0.032300302758812904,0.1319751013070345,down,2.9048261009156704,400.4883841983974,4.879944026470184e-05,0.09878679923713207,406.5049308985472,406.5049308985472,406.5049308985472,0.009136300534009933,0.11486710049211979,5.0,4.7732801996171474,,,,,,,397.5048952996731,397.5048952996731,385.4048466999084,385.4048466999084,,,,6466,Moral,2024-07-03_09h26.51.931,MoralCondition_v2,2022.2.5,30.0036034217876,
5,0,5,0,1,0,1,0,,,,,,,,,,,,,,,,,,,,,,,,,,,,,,,,,,,,,,,,,,,,,,,,,,,,,,411.3048301991075,411.3048301991075,0.007639700546860695,0.0978998001664877,2.0,2.3912477996200323,,,,,,,,,,,,,,6466,Moral,2024-07-03_09h26.51.931,MoralCondition_v2,2022.2.5,30.0036034217876,
5,0,5,0,2,0,2,0,,,,,,,,,,,,,,,,,,,,,,,,,,,,,,,,,,,,,,,,,,,,,,,,,,,,,,413.7384814992547,413.7384814992547,0.006914198398590088,0.09841709956526756,5.0,4.459139600396156,,,,,,,,,,,,,,6466,Moral,2024-07-03_09h26.51.931,MoralCondition_v2,2022.2.5,30.0036034217876,
5,0,5,0,3,0,3,0,,,,,,,,,,,,,,,,,,,,,,,,,,,,,,,,,,,,,,,,,,,,,,,,,,,,,,418.2379345986992,418.2379345986992,0.00720059871673584,0.09815899841487408,5.0,3.6919614002108574,,,,,,,,,,,,,,6466,Moral,2024-07-03_09h26.51.931,MoralCondition_v2,2022.2.5,30.0036034217876,
5,0,5,0,4,0,4,0,,,,,,,,,,,,,,,,,,,,,,,,,,,,,,,,,,,,,,,,,,,,,,,,,,,,,,421.9714430999011,421.9714430999011,0.0065427012741565704,0.09924090094864368,4.0,3.7603907007724047,,,,,,,,,,,,,,6466,Moral,2024-07-03_09h26.51.931,MoralCondition_v2,2022.2.5,30.0036034217876,
5,0,5,0,5,0,5,0,,,,,,,,,,,,,,,,,,,,,,,,,,,,,,,,,,,,,,,,,,,,,,,,,,,,,,425.77132879942656,425.77132879942656,0.007598999887704849,0.09824950061738491,5.0,6.291428999975324,,,,,,,,,,,,,,6466,Moral,2024-07-03_09h26.51.931,MoralCondition_v2,2022.2.5,30.0036034217876,
5,0,5,0,6,0,6,0,,,,,,,,,,,,,,,,,,,,,,,,,,,,,,,,,,,,,,,,,,,,,,,,,,,,,,432.12167959846556,432.12167959846556,0.00826209969818592,0.11482639983296394,5.0,3.3739742003381252,,,,,,,,,,,,,,6466,Moral,2024-07-03_09h26.51.931,MoralCondition_v2,2022.2.5,30.0036034217876,
5,0,5,0,,,,,,,,,,,,,,,,,,,,,,,,,,,,,,,,,,,,,,,,,,,,,,,,,,,,,,,,,,,,,,,,435.52165469899774,435.52165469899774,0.0017261002212762833,0.0974786002188921,4.0,9.563758300617337,,,,,,,,6466,Moral,2024-07-03_09h26.51.931,MoralCondition_v2,2022.2.5,30.0036034217876,
6,0,6,0,0,0,0,0,,,,,,,,,,,,,,,,,,,,,,,445.12160589918494,0.0001379009336233139,0.09924800135195255,451.1045418996364,6.015588501468301,451.32153719849885,451.32153719849885,0.08804670162498951,0.19909430108964443,5.999088600277901,457.3882369995117,457.3882369995117,457.3882369995117,0.05457230098545551,0.16601570136845112,463.08800449967384,463.2880697995424,5.999187801033258,6.099135400727391,469.28824219852686,11.999359801411629,469.42136889882386,469.42136889882386,0.00014310143887996674,0.09904800169169903,up,1.1569701004773378,470.62144039943814,4.909932613372803e-05,0.09825580008327961,,476.63821749947965,476.63821749947965,0.024940699338912964,0.11439070105552673,2.0,2.59059919975698,,,,,,,469.38813979923725,469.38813979923725,457.3882369995117,457.3882369995117,6.099178800359368,12.099296901375055,6.098959401249886,6466,Moral,2024-07-03_09h26.51.931,MoralCondition_v2,2022.2.5,30.0036034217876,
6,0,6,0,1,0,1,0,,,,,,,,,,,,,,,,,,,,,,,,,,,,,,,,,,,,,,,,,,,,,,,,,,,,,,479.27117409929633,479.27117409929633,0.007128799334168434,0.09919049963355064,2.0,1.7266683001071215,,,,,,,,,,,,,,6466,Moral,2024-07-03_09h26.51.931,MoralCondition_v2,2022.2.5,30.0036034217876,
6,0,6,0,2,0,2,0,,,,,,,,,,,,,,,,,,,,,,,,,,,,,,,,,,,,,,,,,,,,,,,,,,,,,,481.03793579898775,481.03793579898775,0.009108999744057655,0.09751079976558685,2.0,1.2224372997879982,,,,,,,,,,,,,,6466,Moral,2024-07-03_09h26.51.931,MoralCondition_v2,2022.2.5,30.0036034217876,
6,0,6,0,3,0,3,0,,,,,,,,,,,,,,,,,,,,,,,,,,,,,,,,,,,,,,,,,,,,,,,,,,,,,,482.32178539969027,482.32178539969027,0.007652999833226204,0.11389390006661415,4.0,2.807397900149226,,,,,,,,,,,,,,6466,Moral,2024-07-03_09h26.51.931,MoralCondition_v2,2022.2.5,30.0036034217876,
6,0,6,0,4,0,4,0,,,,,,,,,,,,,,,,,,,,,,,,,,,,,,,,,,,,,,,,,,,,,,,,,,,,,,485.15447339974344,485.15447339974344,0.006535399705171585,0.09891629964113235,2.0,2.993419699370861,,,,,,,,,,,,,,6466,Moral,2024-07-03_09h26.51.931,MoralCondition_v2,2022.2.5,30.0036034217876,
6,0,6,0,5,0,5,0,,,,,,,,,,,,,,,,,,,,,,,,,,,,,,,,,,,,,,,,,,,,,,,,,,,,,,488.1882101986557,488.1882101986557,0.007665999233722687,0.09934449940919876,2.0,1.859375299885869,,,,,,,,,,,,,,6466,Moral,2024-07-03_09h26.51.931,MoralCondition_v2,2022.2.5,30.0036034217876,
6,0,6,0,6,0,6,0,,,,,,,,,,,,,,,,,,,,,,,,,,,,,,,,,,,,,,,,,,,,,,,,,,,,,,490.08795090019703,490.08795090019703,0.007451999932527542,0.09815309941768646,6.0,3.091474300250411,,,,,,,,,,,,,,6466,Moral,2024-07-03_09h26.51.931,MoralCondition_v2,2022.2.5,30.0036034217876,
6,0,6,0,,,,,,,,,,,,,,,,,,,,,,,,,,,,,,,,,,,,,,,,,,,,,,,,,,,,,,,,,,,,,,,,493.22133889980614,493.22133889980614,0.0006745010614395142,0.0990947000682354,6.0,4.399529101327062,,,,,,,,6466,Moral,2024-07-03_09h26.51.931,MoralCondition_v2,2022.2.5,30.0036034217876,
7,0,7,0,0,0,0,0,,,,,,,,,,,,,,,,,,,,,,,497.6548229996115,0.00035030022263526917,0.09786510095000267,503.65464829839766,6.031177900731564,503.87150979973376,503.87150979973376,0.10445410199463367,0.21457110159099102,6.014414900913835,509.93779779970646,509.93779779970646,509.93779779970646,0.08159710094332695,0.18132860213518143,515.6379147991538,515.8381284996867,6.0146685019135475,6.114427400752902,521.8378986995667,12.01444660127163,521.9712275993079,521.9712275993079,0.014577900990843773,0.11439950205385685,up,1.8638895023614168,523.8878807984293,4.0899962186813354e-05,0.09764119982719421,529.904617600143,529.904617600143,529.904617600143,0.009838098660111427,0.11437789909541607,6.0,5.272161299362779,,,,,,,521.9378803987056,521.9378803987056,,,,,,6466,Moral,2024-07-03_09h26.51.931,MoralCondition_v2,2022.2.5,30.0036034217876,
7,0,7,0,1,0,1,0,,,,,,,,,,,,,,,,,,,,,,,,,,,,,,,,,,,,,,,,,,,,,,,,,,,,,,535.2215192988515,535.2215192988515,0.008494200184941292,0.11472570151090622,3.0,5.073683699592948,,,,,,,,,,,,,,6466,Moral,2024-07-03_09h26.51.931,MoralCondition_v2,2022.2.5,30.0036034217876,
7,0,7,0,2,0,2,0,,,,,,,,,,,,,,,,,,,,,,,,,,,,,,,,,,,,,,,,,,,,,,,,,,,,,,540.3213649988174,540.3213649988174,0.007575899362564087,0.09756939858198166,5.0,4.224289899691939,,,,,,,,,,,,,,6466,Moral,2024-07-03_09h26.51.931,MoralCondition_v2,2022.2.5,30.0036034217876,
7,0,7,0,3,0,3,0,,,,,,,,,,,,,,,,,,,,,,,,,,,,,,,,,,,,,,,,,,,,,,,,,,,,,,544.6046577990055,544.6046577990055,0.009677501395344734,0.11618160083889961,5.0,1.7407917995005846,,,,,,,,,,,,,,6466,Moral,2024-07-03_09h26.51.931,MoralCondition_v2,2022.2.5,30.0036034217876,
7,0,7,0,4,0,4,0,,,,,,,,,,,,,,,,,,,,,,,,,,,,,,,,,,,,,,,,,,,,,,,,,,,,,,546.3711505997926,546.3711505997926,0.0064811985939741135,0.09911899827420712,5.0,1.59371680021286,,,,,,,,,,,,,,6466,Moral,2024-07-03_09h26.51.931,MoralCondition_v2,2022.2.5,30.0036034217876,
7,0,7,0,5,0,5,0,,,,,,,,,,,,,,,,,,,,,,,,,,,,,,,,,,,,,,,,,,,,,,,,,,,,,,548.004404399544,548.004404399544,0.00656609982252121,0.099226800724864,2.0,4.193647600710392,,,,,,,,,,,,,,6466,Moral,2024-07-03_09h26.51.931,MoralCondition_v2,2022.2.5,30.0036034217876,
7,0,7,0,6,0,6,0,,,,,,,,,,,,,,,,,,,,,,,,,,,,,,,,,,,,,,,,,,,,,,,,,,,,,,552.2546121999621,552.2546121999621,0.00924769975244999,0.1158939991146326,5.0,6.207520799711347,,,,,,,,,,,,,,6466,Moral,2024-07-03_09h26.51.931,MoralCondition_v2,2022.2.5,30.0036034217876,
7,0,7,0,,,,,,,,,,,,,,,,,,,,,,,,,,,,,,,,,,,,,,,,,,,,,,,,,,,,,,,,,,,,,,,,558.4880001991987,558.4880001991987,0.0013468004763126373,0.09751860052347183,2.0,8.34739140048623,,,,,,,,6466,Moral,2024-07-03_09h26.51.931,MoralCondition_v2,2022.2.5,30.0036034217876,
8,0,8,0,0,0,0,0,,,,,,,,,,,,,,,,,,,,,,,566.8712112996727,0.00013760104775428772,0.09937530010938644,572.8710803985596,5.999323399737477,573.0376293994486,573.0376293994486,0.06399339996278286,0.16576440073549747,5.999145500361919,579.137894500047,579.137894500047,579.137894500047,0.06250440143048763,0.16650150157511234,584.8380427993834,585.0712011996657,5.9991368018090725,6.0991376005113125,591.071084799245,11.999107301235199,591.1710684001446,591.1710684001446,-0.00035179778933525085,0.09908390045166016,up,1.0152468010783195,592.2377581000328,3.7999823689460754e-05,0.09781339950859547,598.2382502984256,598.2382502984256,598.2382502984256,0.008755199611186981,0.09765229932963848,2.0,2.89002070017159,,,,,,,591.1376776993275,591.1376776993275,579.0377612002194,579.0377612002194,6.099234100431204,12.099078400060534,6.099175900220871,6466,Moral,2024-07-03_09h26.51.931,MoralCondition_v2,2022.2.5,30.0036034217876,
8,0,8,0,1,0,1,0,,,,,,,,,,,,,,,,,,,,,,,,,,,,,,,,,,,,,,,,,,,,,,,,,,,,,,601.1710057985038,601.1710057985038,0.00680600106716156,0.0980335995554924,6.0,4.225911300629377,,,,,,,,,,,,,,6466,Moral,2024-07-03_09h26.51.931,MoralCondition_v2,2022.2.5,30.0036034217876,
8,0,8,0,2,0,2,0,,,,,,,,,,,,,,,,,,,,,,,,,,,,,,,,,,,,,,,,,,,,,,,,,,,,,,605.4546181000769,605.4546181000769,0.00793600082397461,0.11472970061004162,2.0,6.141037100926042,,,,,,,,,,,,,,6466,Moral,2024-07-03_09h26.51.931,MoralCondition_v2,2022.2.5,30.0036034217876,
8,0,8,0,3,0,3,0,,,,,,,,,,,,,,,,,,,,,,,,,,,,,,,,,,,,,,,,,,,,,,,,,,,,,,611.6211120001972,611.6211120001972,0.007115300744771957,0.0989971999078989,2.0,1.2928320989012718,,,,,,,,,,,,,,6466,Moral,2024-07-03_09h26.51.931,MoralCondition_v2,2022.2.5,30.0036034217876,
8,0,8,0,4,0,4,0,,,,,,,,,,,,,,,,,,,,,,,,,,,,,,,,,,,,,,,,,,,,,,,,,,,,,,612.954429898411,612.954429898411,0.006634300574660301,0.09912160038948059,3.0,3.493367800489068,,,,,,,,,,,,,,6466,Moral,2024-07-03_09h26.51.931,MoralCondition_v2,2022.2.5,30.0036034217876,
8,0,8,0,5,0,5,0,,,,,,,,,,,,,,,,,,,,,,,,,,,,,,,,,,,,,,,,,,,,,,,,,,,,,,616.487555699423,616.487555699423,0.006834600120782852,0.09810630045831203,2.0,2.6592073999345303,,,,,,,,,,,,,,6466,Moral,2024-07-03_09h26.51.931,MoralCondition_v2,2022.2.5,30.0036034217876,
8,0,8,0,6,0,6,0,,,,,,,,,,,,,,,,,,,,,,,,,,,,,,,,,,,,,,,,,,,,,,,,,,,,,,619.1876566987485,619.1876566987485,0.0070084985345602036,0.09826209954917431,2.0,2.2590561993420124,,,,,,,,,,,,,,6466,Moral,2024-07-03_09h26.51.931,MoralCondition_v2,2022.2.5,30.0036034217876,
8,0,8,0,,,,,,,,,,,,,,,,,,,,,,,,,,,,,,,,,,,,,,,,,,,,,,,,,,,,,,,,,,,,,,,,621.4878278989345,621.4878278989345,0.0007940009236335754,0.09904460050165653,7.0,6.299396399408579,,,,,,,,6466,Moral,2024-07-03_09h26.51.931,MoralCondition_v2,2022.2.5,30.0036034217876,
9,0,9,0,0,0,0,0,,,,,,,,,,,,,,,,,,,,,,,627.8212188985199,0.00036250054836273193,0.09747469983994961,633.8041485995054,6.013980399817228,634.0045180991292,634.0045180991292,0.06737760081887245,0.18080470152199268,6.014063900336623,640.104226898402,640.104226898402,640.104226898402,0.077614801004529,0.18101670034229755,645.8042724989355,646.0042648985982,6.014126900583506,6.114281000569463,652.0042118001729,12.014089901000261,652.1375388987362,652.1375388987362,0.0142155010253191,0.11387850157916546,up,1.0656445026397705,653.2374855987728,2.6399269700050354e-05,0.09860350005328655,,659.2541947998106,659.2541947998106,0.025025900453329086,0.11517770029604435,6.0,3.924805099144578,,,,,,,652.104195099324,652.104195099324,640.0042447000742,640.0042447000742,,,6.097314300015569,6466,Moral,2024-07-03_09h26.51.931,MoralCondition_v2,2022.2.5,30.0036034217876,
9,0,9,0,1,0,1,0,,,,,,,,,,,,,,,,,,,,,,,,,,,,,,,,,,,,,,,,,,,,,,,,,,,,,,663.2207931000739,663.2207931000739,0.006410900503396988,0.09903869964182377,5.0,3.9603458996862173,,,,,,,,,,,,,,6466,Moral,2024-07-03_09h26.51.931,MoralCondition_v2,2022.2.5,30.0036034217876,
9,0,9,0,2,0,2,0,,,,,,,,,,,,,,,,,,,,,,,,,,,,,,,,,,,,,,,,,,,,,,,,,,,,,,667.2209903988987,667.2209903988987,0.007342498749494553,0.09789660014212132,3.0,7.524943798780441,,,,,,,,,,,,,,6466,Moral,2024-07-03_09h26.51.931,MoralCondition_v2,2022.2.5,30.0036034217876,
9,0,9,0,3,0,3,0,,,,,,,,,,,,,,,,,,,,,,,,,,,,,,,,,,,,,,,,,,,,,,,,,,,,,,674.7875651996583,674.7875651996583,0.006483200937509537,0.0985966008156538,5.0,4.02653170004487,,,,,,,,,,,,,,6466,Moral,2024-07-03_09h26.51.931,MoralCondition_v2,2022.2.5,30.0036034217876,
9,0,9,0,4,0,4,0,,,,,,,,,,,,,,,,,,,,,,,,,,,,,,,,,,,,,,,,,,,,,,,,,,,,,,678.85409889929,678.85409889929,0.006546100601553917,0.0991309005767107,5.0,1.4939065985381603,,,,,,,,,,,,,,6466,Moral,2024-07-03_09h26.51.931,MoralCondition_v2,2022.2.5,30.0036034217876,
9,0,9,0,5,0,5,0,,,,,,,,,,,,,,,,,,,,,,,,,,,,,,,,,,,,,,,,,,,,,,,,,,,,,,680.3875417988747,680.3875417988747,0.007431700825691223,0.09791720099747181,5.0,1.3913933001458645,,,,,,,,,,,,,,6466,Moral,2024-07-03_09h26.51.931,MoralCondition_v2,2022.2.5,30.0036034217876,
9,0,9,0,6,0,6,0,,,,,,,,,,,,,,,,,,,,,,,,,,,,,,,,,,,,,,,,,,,,,,,,,,,,,,681.8206875994802,681.8206875994802,0.0053161997348070145,0.09914520010352135,3.0,4.194792900234461,,,,,,,,,,,,,,6466,Moral,2024-07-03_09h26.51.931,MoralCondition_v2,2022.2.5,30.0036034217876,
9,0,9,0,,,,,,,,,,,,,,,,,,,,,,,,,,,,,,,,,,,,,,,,,,,,,,,,,,,,,,,,,,,,,,,,686.054231800139,686.054231800139,0.0007266998291015625,0.09914619848132133,2.0,11.866247400641441,,,,,,,,6466,Moral,2024-07-03_09h26.51.931,MoralCondition_v2,2022.2.5,30.0036034217876,
10,0,10,0,0,0,0,0,,,,,,,,,,,,,,,,,,,,,,,697.9543925989419,0.00027330033481121063,0.09776199981570244,703.9708444997668,6.014348799362779,704.1374148000032,704.1374148000032,0.07971940003335476,0.18081999942660332,6.014326499775052,710.2374911997467,710.2374911997467,710.2374911997467,0.07140890136361122,0.1812731008976698,715.9373619984835,716.1374049987644,6.0144318006932735,6.114255299791694,722.1373870987445,12.01433110050857,722.2707180995494,722.2707180995494,0.014566401019692421,0.11414040066301823,up,1.4836644008755684,723.8040244001895,4.580058157444e-05,0.09771610051393509,729.8043253999203,729.8043253999203,729.8043253999203,0.008512301370501518,0.0976634006947279,2.0,5.056895101442933,,,,,,,722.2374189998955,722.2374189998955,710.1374373994768,710.1374373994768,,,,6466,Moral,2024-07-03_09h26.51.931,MoralCondition_v2,2022.2.5,30.0036034217876,
10,0,10,0,1,0,1,0,,,,,,,,,,,,,,,,,,,,,,,,,,,,,,,,,,,,,,,,,,,,,,,,,,,,,,734.9039845988154,734.9039845988154,0.006976598873734474,0.09890959970653057,2.0,1.4263313002884388,,,,,,,,,,,,,,6466,Moral,2024-07-03_09h26.51.931,MoralCondition_v2,2022.2.5,30.0036034217876,
10,0,10,0,2,0,2,0,,,,,,,,,,,,,,,,,,,,,,,,,,,,,,,,,,,,,,,,,,,,,,,,,,,,,,736.3707074988633,736.3707074988633,0.00660800002515316,0.0992834996432066,2.0,1.3607002012431622,,,,,,,,,,,,,,6466,Moral,2024-07-03_09h26.51.931,MoralCondition_v2,2022.2.5,30.0036034217876,
10,0,10,0,3,0,3,0,,,,,,,,,,,,,,,,,,,,,,,,,,,,,,,,,,,,,,,,,,,,,,,,,,,,,,737.7706803996116,737.7706803996116,0.006559498608112335,0.09911989979445934,2.0,1.226877000182867,,,,,,,,,,,,,,6466,Moral,2024-07-03_09h26.51.931,MoralCondition_v2,2022.2.5,30.0036034217876,
10,0,10,0,4,0,4,0,,,,,,,,,,,,,,,,,,,,,,,,,,,,,,,,,,,,,,,,,,,,,,,,,,,,,,739.0373697988689,739.0373697988689,0.006793200969696045,0.09913870133459568,2.0,1.4935702998191118,,,,,,,,,,,,,,6466,Moral,2024-07-03_09h26.51.931,MoralCondition_v2,2022.2.5,30.0036034217876,
10,0,10,0,5,0,5,0,,,,,,,,,,,,,,,,,,,,,,,,,,,,,,,,,,,,,,,,,,,,,,,,,,,,,,740.5705626998097,740.5705626998097,0.006407199427485466,0.09910609945654869,5.0,4.327122500166297,,,,,,,,,,,,,,6466,Moral,2024-07-03_09h26.51.931,MoralCondition_v2,2022.2.5,30.0036034217876,
10,0,10,0,6,0,6,0,,,,,,,,,,,,,,,,,,,,,,,,,,,,,,,,,,,,,,,,,,,,,,,,,,,,,,744.9543173983693,744.9543173983693,0.007713600993156433,0.11407729983329773,5.0,1.940990099683404,,,,,,,,,,,,,,6466,Moral,2024-07-03_09h26.51.931,MoralCondition_v2,2022.2.5,30.0036034217876,
10,0,10,0,,,,,,,,,,,,,,,,,,,,,,,,,,,,,,,,,,,,,,,,,,,,,,,,,,,,,,,,,,,,,,,,746.9207814000547,746.9207814000547,0.0007020998746156693,0.09934310056269169,6.0,3.733108300715685,,,,,,,,6466,Moral,2024-07-03_09h26.51.931,MoralCondition_v2,2022.2.5,30.0036034217876,
11,0,11,0,0,0,0,0,,,,,,,,,,,,,,,,,,,,,,,750.6874075997621,0.00013490021228790283,0.09920509904623032,756.6705093998462,6.015668200328946,756.8541119992733,756.8541119992733,0.06437980011105537,0.16582709923386574,5.9992650002241135,762.9539636000991,762.9539636000991,762.9539636000991,0.05515439994633198,0.1657245997339487,768.6539014987648,768.8538974989206,5.999083099886775,6.099042801186442,774.8538983985782,11.999103801324964,774.9870916996151,774.9870916996151,3.1400471925735474e-05,0.09904090128839016,up,1.0472367014735937,776.0873489994556,5.0300732254981995e-05,0.09751790016889572,,782.1037150993943,782.1037150993943,0.02332320064306259,0.114699000492692,2.0,5.35886599868536,,,,,,,774.9539538994431,774.9539538994431,762.8539456985891,762.8539456985891,6.099144600331783,12.099162200465798,6.099024700000882,6466,Moral,2024-07-03_09h26.51.931,MoralCondition_v2,2022.2.5,30.0036034217876,
11,0,11,0,1,0,1,0,,,,,,,,,,,,,,,,,,,,,,,,,,,,,,,,,,,,,,,,,,,,,,,,,,,,,,787.5039047989994,787.5039047989994,0.006578000262379646,0.09885970130562782,2.0,0.9599927011877298,,,,,,,,,,,,,,6466,Moral,2024-07-03_09h26.51.931,MoralCondition_v2,2022.2.5,30.0036034217876,
11,0,11,0,2,0,2,0,,,,,,,,,,,,,,,,,,,,,,,,,,,,,,,,,,,,,,,,,,,,,,,,,,,,,,788.5037560984492,788.5037560984492,0.006757000461220741,0.09842750057578087,3.0,3.459467900916934,,,,,,,,,,,,,,6466,Moral,2024-07-03_09h26.51.931,MoralCondition_v2,2022.2.5,30.0036034217876,
11,0,11,0,3,0,3,0,,,,,,,,,,,,,,,,,,,,,,,,,,,,,,,,,,,,,,,,,,,,,,,,,,,,,,792.0039316993207,792.0039316993207,0.007468800991773605,0.09780289977788925,2.0,2.858023300766945,,,,,,,,,,,,,,6466,Moral,2024-07-03_09h26.51.931,MoralCondition_v2,2022.2.5,30.0036034217876,
11,0,11,0,4,0,4,0,,,,,,,,,,,,,,,,,,,,,,,,,,,,,,,,,,,,,,,,,,,,,,,,,,,,,,794.9037844985723,794.9037844985723,0.0071428995579481125,0.09804120101034641,5.0,1.8251483999192715,,,,,,,,,,,,,,6466,Moral,2024-07-03_09h26.51.931,MoralCondition_v2,2022.2.5,30.0036034217876,
11,0,11,0,5,0,5,0,,,,,,,,,,,,,,,,,,,,,,,,,,,,,,,,,,,,,,,,,,,,,,,,,,,,,,796.7704297993332,796.7704297993332,0.007519900798797607,0.09808629937469959,2.0,1.9914097990840673,,,,,,,,,,,,,,6466,Moral,2024-07-03_09h26.51.931,MoralCondition_v2,2022.2.5,30.0036034217876,
11,0,11,0,6,0,6,0,,,,,,,,,,,,,,,,,,,,,,,,,,,,,,,,,,,,,,,,,,,,,,,,,,,,,,798.8041094988585,798.8041094988585,0.006703600287437439,0.09919900074601173,2.0,1.1933625992387533,,,,,,,,,,,,,,6466,Moral,2024-07-03_09h26.51.931,MoralCondition_v2,2022.2.5,30.0036034217876,
11,0,11,0,,,,,,,,,,,,,,,,,,,,,,,,,,,,,,,,,,,,,,,,,,,,,,,,,,,,,,,,,,,,,,,,800.0370992999524,800.0370992999524,0.0004993006587028503,0.09942670166492462,6.0,3.2003595009446144,,,,,,,,6466,Moral,2024-07-03_09h26.51.931,MoralCondition_v2,2022.2.5,30.0036034217876,
12,0,12,0,0,0,0,0,,,,,,,,,,,,,,,,,,,,,,,803.2707922998816,0.0001348014920949936,0.09922750107944012,809.2536577992141,5.99904110096395,809.4373614992946,809.4373614992946,0.056993501260876656,0.1659370008856058,5.999137200415134,815.5371690001339,815.5371690001339,815.5371690001339,0.05420520156621933,0.16603870131075382,821.2371391002089,821.4704546984285,5.999107301235199,6.099008901044726,827.4704438000917,11.999158902093768,827.5535642001778,827.5535642001778,-0.0005920976400375366,0.08239490166306496,up,2.0575543008744717,829.6537840999663,3.9599835872650146e-05,0.0980433002114296,835.6536989994347,835.6536989994347,835.6536989994347,0.010117899626493454,0.0980674996972084,6.0,3.1554824002087116,,,,,,,827.537041099742,827.537041099742,815.4371520001441,815.4371520001441,6.099193600937724,12.099021101370454,6.082413600757718,6466,Moral,2024-07-03_09h26.51.931,MoralCondition_v2,2022.2.5,30.0036034217876,
12,0,12,0,1,0,1,0,,,,,,,,,,,,,,,,,,,,,,,,,,,,,,,,,,,,,,,,,,,,,,,,,,,,,,838.8535593990237,838.8535593990237,0.006841400638222694,0.09964860044419765,2.0,2.3600343987345695,,,,,,,,,,,,,,6466,Moral,2024-07-03_09h26.51.931,MoralCondition_v2,2022.2.5,30.0036034217876,
12,0,12,0,2,0,2,0,,,,,,,,,,,,,,,,,,,,,,,,,,,,,,,,,,,,,,,,,,,,,,,,,,,,,,841.2537587992847,841.2537587992847,0.006748201325535774,0.0991430003196001,2.0,1.2602187991142273,,,,,,,,,,,,,,6466,Moral,2024-07-03_09h26.51.931,MoralCondition_v2,2022.2.5,30.0036034217876,
12,0,12,0,3,0,3,0,,,,,,,,,,,,,,,,,,,,,,,,,,,,,,,,,,,,,,,,,,,,,,,,,,,,,,842.570440299809,842.570440299809,0.00901469960808754,0.11461949907243252,2.0,1.039936998859048,,,,,,,,,,,,,,6466,Moral,2024-07-03_09h26.51.931,MoralCondition_v2,2022.2.5,30.0036034217876,
12,0,12,0,4,0,4,0,,,,,,,,,,,,,,,,,,,,,,,,,,,,,,,,,,,,,,,,,,,,,,,,,,,,,,843.6371161993593,843.6371161993593,0.0072715990245342255,0.09785809926688671,2.0,0.7586214002221823,,,,,,,,,,,,,,6466,Moral,2024-07-03_09h26.51.931,MoralCondition_v2,2022.2.5,30.0036034217876,
12,0,12,0,5,0,5,0,,,,,,,,,,,,,,,,,,,,,,,,,,,,,,,,,,,,,,,,,,,,,,,,,,,,,,844.4369780998677,844.4369780998677,0.008084099739789963,0.0992502998560667,3.0,3.1253624986857176,,,,,,,,,,,,,,6466,Moral,2024-07-03_09h26.51.931,MoralCondition_v2,2022.2.5,30.0036034217876,
12,0,12,0,6,0,6,0,,,,,,,,,,,,,,,,,,,,,,,,,,,,,,,,,,,,,,,,,,,,,,,,,,,,,,847.6036996990442,847.6036996990442,0.006649099290370941,0.09909669868648052,2.0,2.6271547004580498,,,,,,,,,,,,,,6466,Moral,2024-07-03_09h26.51.931,MoralCondition_v2,2022.2.5,30.0036034217876,
12,0,12,0,,,,,,,,,,,,,,,,,,,,,,,,,,,,,,,,,,,,,,,,,,,,,,,,,,,,,,,,,,,,,,,,850.2703098990023,850.2703098990023,0.00112919881939888,0.09818459860980511,6.0,2.398514900356531,,,,,,,,6466,Moral,2024-07-03_09h26.51.931,MoralCondition_v2,2022.2.5,30.0036034217876,
13,0,13,0,0,0,0,0,,,,,,,,,,,,,,,,,,,,,,,852.7039757985622,0.00013639964163303375,0.09930630028247833,858.7203617990017,6.015830598771572,858.8869448993355,858.8869448993355,0.083619000390172,0.18271729908883572,6.015738299116492,864.9872551001608,864.9872551001608,864.9872551001608,0.073649100959301,0.18269409984350204,870.6870466992259,870.8869853001088,6.0157903004437685,6.1157823000103235,876.8869353998452,12.015737300738692,877.0205498989671,877.0205498989671,0.015891600400209427,0.11569550074636936,up,0.534764101728797,877.603860899806,1.3699755072593689e-05,0.099150400608778,883.6201154999435,883.6201154999435,883.6201154999435,0.0106160007417202,0.1157367005944252,2.0,2.8061696998775005,,,,,,,876.9869504999369,876.9869504999369,864.886979399249,864.886979399249,,,,6466,Moral,2024-07-03_09h26.51.931,MoralCondition_v2,2022.2.5,30.0036034217876,
13,0,13,0,1,0,1,0,,,,,,,,,,,,,,,,,,,,,,,,,,,,,,,,,,,,,,,,,,,,,,,,,,,,,,886.4536435995251,886.4536435995251,0.006544198840856552,0.09899069927632809,2.0,1.760266900062561,,,,,,,,,,,,,,6466,Moral,2024-07-03_09h26.51.931,MoralCondition_v2,2022.2.5,30.0036034217876,
13,0,13,0,2,0,2,0,,,,,,,,,,,,,,,,,,,,,,,,,,,,,,,,,,,,,,,,,,,,,,,,,,,,,,888.253742299974,888.253742299974,0.007277699187397957,0.09778040088713169,2.0,1.3583455998450518,,,,,,,,,,,,,,6466,Moral,2024-07-03_09h26.51.931,MoralCondition_v2,2022.2.5,30.0036034217876,
13,0,13,0,3,0,3,0,,,,,,,,,,,,,,,,,,,,,,,,,,,,,,,,,,,,,,,,,,,,,,,,,,,,,,889.670337298885,889.670337298885,0.00982539914548397,0.11408999934792519,5.0,3.2051229998469353,,,,,,,,,,,,,,6466,Moral,2024-07-03_09h26.51.931,MoralCondition_v2,2022.2.5,30.0036034217876,
13,0,13,0,4,0,4,0,,,,,,,,,,,,,,,,,,,,,,,,,,,,,,,,,,,,,,,,,,,,,,,,,,,,,,892.9204171001911,892.9204171001911,0.007988300174474716,0.11444539949297905,2.0,2.940456299111247,,,,,,,,,,,,,,6466,Moral,2024-07-03_09h26.51.931,MoralCondition_v2,2022.2.5,30.0036034217876,
13,0,13,0,5,0,5,0,,,,,,,,,,,,,,,,,,,,,,,,,,,,,,,,,,,,,,,,,,,,,,,,,,,,,,895.8868635986,895.8868635986,0.007233200594782829,0.09927299991250038,5.0,3.626357700675726,,,,,,,,,,,,,,6466,Moral,2024-07-03_09h26.51.931,MoralCondition_v2,2022.2.5,30.0036034217876,
13,0,13,0,6,0,6,0,,,,,,,,,,,,,,,,,,,,,,,,,,,,,,,,,,,,,,,,,,,,,,,,,,,,,,899.5535282995552,899.5535282995552,0.00652180053293705,0.09863240085542202,2.0,2.9267047997564077,,,,,,,,,,,,,,6466,Moral,2024-07-03_09h26.51.931,MoralCondition_v2,2022.2.5,30.0036034217876,
13,0,13,0,,,,,,,,,,,,,,,,,,,,,,,,,,,,,,,,,,,,,,,,,,,,,,,,,,,,,,,,,,,,,,,,902.5202518999577,902.5202518999577,0.0010155998170375824,0.09864719957113266,6.0,2.031905200332403,,,,,,,,6466,Moral,2024-07-03_09h26.51.931,MoralCondition_v2,2022.2.5,30.0036034217876,
14,0,14,0,0,0,0,0,,,,,,,,,,,,,,,,,,,,,,,904.5872536990792,0.00013929978013038635,0.09919239953160286,910.5868881996721,5.999168999493122,910.7701399996877,910.7701399996877,0.06786989979445934,0.18280440010130405,6.015769399702549,916.8700757995248,916.8700757995248,916.8700757995248,0.07954630069434643,0.18262760154902935,922.5701563991606,922.7704413998872,6.0161128006875515,6.115801200270653,928.7704918999225,12.016169400885701,928.9034662991762,928.9034662991762,0.015990000218153,0.11571180075407028,down,1.2753240000456572,930.2369327992201,4.3900683522224426e-05,0.09760970063507557,,936.2535553984344,936.2535553984344,0.024863500148057938,0.11432250030338764,6.0,4.92380060069263,,,,,,,928.8701076991856,928.8701076991856,916.7701538987458,916.7701538987458,,,6.099107699468732,6466,Moral,2024-07-03_09h26.51.931,MoralCondition_v2,2022.2.5,30.0036034217876,
14,0,14,0,1,0,1,0,,,,,,,,,,,,,,,,,,,,,,,,,,,,,,,,,,,,,,,,,,,,,,,,,,,,,,941.2201854996383,941.2201854996383,0.00726890005171299,0.09727709926664829,2.0,2.72448300011456,,,,,,,,,,,,,,6466,Moral,2024-07-03_09h26.51.931,MoralCondition_v2,2022.2.5,30.0036034217876,
14,0,14,0,2,0,2,0,,,,,,,,,,,,,,,,,,,,,,,,,,,,,,,,,,,,,,,,,,,,,,,,,,,,,,944.0036928988993,944.0036928988993,0.008456600829958916,0.11443449929356575,6.0,3.6737323999404907,,,,,,,,,,,,,,6466,Moral,2024-07-03_09h26.51.931,MoralCondition_v2,2022.2.5,30.0036034217876,
14,0,14,0,3,0,3,0,,,,,,,,,,,,,,,,,,,,,,,,,,,,,,,,,,,,,,,,,,,,,,,,,,,,,,947.7033415995538,947.7033415995538,0.006856599822640419,0.09833870083093643,5.0,2.892529299482703,,,,,,,,,,,,,,6466,Moral,2024-07-03_09h26.51.931,MoralCondition_v2,2022.2.5,30.0036034217876,
14,0,14,0,4,0,4,0,,,,,,,,,,,,,,,,,,,,,,,,,,,,,,,,,,,,,,,,,,,,,,,,,,,,,,950.6366731990129,950.6366731990129,0.00726650096476078,0.09914020076394081,6.0,2.6927198991179466,,,,,,,,,,,,,,6466,Moral,2024-07-03_09h26.51.931,MoralCondition_v2,2022.2.5,30.0036034217876,
14,0,14,0,5,0,5,0,,,,,,,,,,,,,,,,,,,,,,,,,,,,,,,,,,,,,,,,,,,,,,,,,,,,,,953.3699855990708,953.3699855990708,0.008247500285506248,0.09776020050048828,3.0,3.0903312992304564,,,,,,,,,,,,,,6466,Moral,2024-07-03_09h26.51.931,MoralCondition_v2,2022.2.5,30.0036034217876,
14,0,14,0,6,0,6,0,,,,,,,,,,,,,,,,,,,,,,,,,,,,,,,,,,,,,,,,,,,,,,,,,,,,,,956.5202915985137,956.5202915985137,0.007939599454402924,0.11426759883761406,5.0,2.840770099312067,,,,,,,,,,,,,,6466,Moral,2024-07-03_09h26.51.931,MoralCondition_v2,2022.2.5,30.0036034217876,
14,0,14,0,,,,,,,,,,,,,,,,,,,,,,,,,,,,,,,,,,,,,,,,,,,,,,,,,,,,,,,,,,,,,,,,959.3866719994694,959.3866719994694,0.0006706994026899338,0.09924669936299324,2.0,3.266204299405217,,,,,,,,6466,Moral,2024-07-03_09h26.51.931,MoralCondition_v2,2022.2.5,30.0036034217876,
15,0,15,0,0,0,0,0,,,,,,,,,,,,,,,,,,,,,,,962.6871074996889,0.0002931002527475357,0.0978603009134531,968.7033436987549,6.0145593006163836,968.8699629995972,968.8699629995972,0.07482590153813362,0.18121700175106525,6.014729600399733,974.9531651996076,974.9531651996076,974.9531651996076,0.06385980173945427,0.16446770168840885,980.6532972995192,980.8866873998195,6.031205302104354,6.131290800869465,986.8867013994604,12.031301701441407,987.0034427996725,987.0034427996725,0.014570601284503937,0.11446540243923664,up,0.7517037019133568,987.8032529000193,6.079860031604767e-05,0.09782589972019196,,993.8200016990304,993.8200016990304,0.02631259895861149,0.11462399922311306,2.0,2.2889456003904343,,,,,,,986.9364390987903,986.9364390987903,974.8531761988997,974.8531761988997,,,,6466,Moral,2024-07-03_09h26.51.931,MoralCondition_v2,2022.2.5,30.0036034217876,
15,0,15,0,1,0,1,0,,,,,,,,,,,,,,,,,,,,,,,,,,,,,,,,,,,,,,,,,,,,,,,,,,,,,,996.153287999332,996.153287999332,0.007077999413013458,0.09808919951319695,2.0,2.0921246986836195,,,,,,,,,,,,,,6466,Moral,2024-07-03_09h26.51.931,MoralCondition_v2,2022.2.5,30.0036034217876,
15,0,15,0,2,0,2,0,,,,,,,,,,,,,,,,,,,,,,,,,,,,,,,,,,,,,,,,,,,,,,,,,,,,,,998.2867802996188,998.2867802996188,0.00744829885661602,0.09768869914114475,6.0,2.624704100191593,,,,,,,,,,,,,,6466,Moral,2024-07-03_09h26.51.931,MoralCondition_v2,2022.2.5,30.0036034217876,
15,0,15,0,3,0,3,0,,,,,,,,,,,,,,,,,,,,,,,,,,,,,,,,,,,,,,,,,,,,,,,,,,,,,,1000.9533165991306,1000.9533165991306,0.006375100463628769,0.09868250042200089,2.0,2.693335799500346,,,,,,,,,,,,,,6466,Moral,2024-07-03_09h26.51.931,MoralCondition_v2,2022.2.5,30.0036034217876,
15,0,15,0,4,0,4,0,,,,,,,,,,,,,,,,,,,,,,,,,,,,,,,,,,,,,,,,,,,,,,,,,,,,,,1003.686832299456,1003.686832299456,0.00739390030503273,0.09797590039670467,2.0,1.624983999878168,,,,,,,,,,,,,,6466,Moral,2024-07-03_09h26.51.931,MoralCondition_v2,2022.2.5,30.0036034217876,
15,0,15,0,5,0,5,0,,,,,,,,,,,,,,,,,,,,,,,,,,,,,,,,,,,,,,,,,,,,,,,,,,,,,,1005.3531825002283,1005.3531825002283,0.006561599671840668,0.0993970986455679,5.0,2.4937640000134706,,,,,,,,,,,,,,6466,Moral,2024-07-03_09h26.51.931,MoralCondition_v2,2022.2.5,30.0036034217876,
15,0,15,0,6,0,6,0,,,,,,,,,,,,,,,,,,,,,,,,,,,,,,,,,,,,,,,,,,,,,,,,,,,,,,1007.8866989985108,1007.8866989985108,0.007192900404334068,0.09817999973893166,2.0,2.825263701379299,,,,,,,,,,,,,,6466,Moral,2024-07-03_09h26.51.931,MoralCondition_v2,2022.2.5,30.0036034217876,
15,0,15,0,,,,,,,,,,,,,,,,,,,,,,,,,,,,,,,,,,,,,,,,,,,,,,,,,,,,,,,,,,,,,,,,1010.7531060986221,1010.7531060986221,0.0006645005196332932,0.09912390075623989,6.0,2.8332433998584747,,,,,,,,6466,Moral,2024-07-03_09h26.51.931,MoralCondition_v2,2022.2.5,30.0036034217876,
16,0,16,0,0,0,0,0,,,,,,,,,,,,,,,,,,,,,,,1013.6200587991625,0.00016120076179504395,0.09918010048568249,1019.6364760994911,6.015743000432849,1019.8031244985759,1019.8031244985759,0.07694450207054615,0.18239890038967133,6.015758400782943,1025.903067899868,1025.903067899868,1025.903067899868,0.06913230195641518,0.1826598010957241,1031.6031153984368,1031.8031471986324,6.015748901292682,6.115768302232027,1037.8031829986721,12.01577790081501,1037.9363172985613,1037.9363172985613,0.015821002423763275,0.11568150110542774,up,1.706368900835514,1039.7030966989696,5.1099807024002075e-05,0.09769649989902973,,1045.7196173984557,1045.7196173984557,0.02453869953751564,0.11419449932873249,2.0,3.0242208000272512,,,,,,,1037.9030785989016,1037.9030785989016,1025.8030955996364,1025.8030955996364,,,,6466,Moral,2024-07-03_09h26.51.931,MoralCondition_v2,2022.2.5,30.0036034217876,
16,0,16,0,1,0,1,0,,,,,,,,,,,,,,,,,,,,,,,,,,,,,,,,,,,,,,,,,,,,,,,,,,,,,,1048.786373399198,1048.786373399198,0.007936500012874603,0.09755129925906658,2.0,2.1241558995097876,,,,,,,,,,,,,,6466,Moral,2024-07-03_09h26.51.931,MoralCondition_v2,2022.2.5,30.0036034217876,
16,0,16,0,2,0,2,0,,,,,,,,,,,,,,,,,,,,,,,,,,,,,,,,,,,,,,,,,,,,,,,,,,,,,,1050.9529888983816,1050.9529888983816,0.006608201190829277,0.09933659993112087,2.0,1.127013299614191,,,,,,,,,,,,,,6466,Moral,2024-07-03_09h26.51.931,MoralCondition_v2,2022.2.5,30.0036034217876,
16,0,16,0,3,0,3,0,,,,,,,,,,,,,,,,,,,,,,,,,,,,,,,,,,,,,,,,,,,,,,,,,,,,,,1052.1195652000606,1052.1195652000606,0.007812298834323883,0.097418999299407,2.0,0.8905228991061449,,,,,,,,,,,,,,6466,Moral,2024-07-03_09h26.51.931,MoralCondition_v2,2022.2.5,30.0036034217876,
16,0,16,0,4,0,4,0,,,,,,,,,,,,,,,,,,,,,,,,,,,,,,,,,,,,,,,,,,,,,,,,,,,,,,1053.0530425999314,1053.0530425999314,0.006646500900387764,0.09926879964768887,5.0,2.6268911994993687,,,,,,,,,,,,,,6466,Moral,2024-07-03_09h26.51.931,MoralCondition_v2,2022.2.5,30.0036034217876,
16,0,16,0,5,0,5,0,,,,,,,,,,,,,,,,,,,,,,,,,,,,,,,,,,,,,,,,,,,,,,,,,,,,,,1055.7195503991097,1055.7195503991097,0.0064713004976511,0.09900070168077946,6.0,1.8603457994759083,,,,,,,,,,,,,,6466,Moral,2024-07-03_09h26.51.931,MoralCondition_v2,2022.2.5,30.0036034217876,
16,0,16,0,6,0,6,0,,,,,,,,,,,,,,,,,,,,,,,,,,,,,,,,,,,,,,,,,,,,,,,,,,,,,,1057.6366069987416,1057.6366069987416,0.007808299735188484,0.11422610096633434,2.0,3.373830199241638,,,,,,,,,,,,,,6466,Moral,2024-07-03_09h26.51.931,MoralCondition_v2,2022.2.5,30.0036034217876,
16,0,16,0,,,,,,,,,,,,,,,,,,,,,,,,,,,,,,,,,,,,,,,,,,,,,,,,,,,,,,,,,,,,,,,,1061.0365070998669,1061.0365070998669,0.0013028010725975037,0.09799620136618614,6.0,2.6313712000846863,,,,,,,,6466,Moral,2024-07-03_09h26.51.931,MoralCondition_v2,2022.2.5,30.0036034217876,
17,0,17,0,0,0,0,0,,,,,,,,,,,,,,,,,,,,,,,1063.7032875996083,0.00013369880616664886,0.09946109913289547,1069.7197847999632,6.015749400481582,1069.8861667998135,1069.8861667998135,0.07936069928109646,0.1826985999941826,6.015781300142407,1075.986244900152,1075.986244900152,1075.986244900152,0.07570539973676205,0.18253410048782825,1081.6860574986786,1081.886191399768,6.015718899667263,6.115446301177144,1087.8862275984138,12.015719000250101,1088.0196096990258,1088.0196096990258,0.015965601429343224,0.1156747005879879,down,0.879610002040863,1088.9530537985265,3.970041871070862e-05,0.09792689979076385,1094.9526591990143,1094.9526591990143,1094.9526591990143,0.0086435005068779,0.09770370088517666,2.0,3.7567631006240845,,,,,,,1087.9863746985793,1087.9863746985793,1075.8862777985632,1075.8862777985632,,,,6466,Moral,2024-07-03_09h26.51.931,MoralCondition_v2,2022.2.5,30.0036034217876,
17,0,17,0,1,0,1,0,,,,,,,,,,,,,,,,,,,,,,,,,,,,,,,,,,,,,,,,,,,,,,,,,,,,,,1098.7527462989092,1098.7527462989092,0.007539799436926842,0.09735170006752014,5.0,2.6573644001036882,,,,,,,,,,,,,,6466,Moral,2024-07-03_09h26.51.931,MoralCondition_v2,2022.2.5,30.0036034217876,
17,0,17,0,2,0,2,0,,,,,,,,,,,,,,,,,,,,,,,,,,,,,,,,,,,,,,,,,,,,,,,,,,,,,,1101.4526983983815,1101.4526983983815,0.007487200200557709,0.09804279915988445,6.0,3.4579437002539635,,,,,,,,,,,,,,6466,Moral,2024-07-03_09h26.51.931,MoralCondition_v2,2022.2.5,30.0036034217876,
17,0,17,0,3,0,3,0,,,,,,,,,,,,,,,,,,,,,,,,,,,,,,,,,,,,,,,,,,,,,,,,,,,,,,1104.9528516996652,1104.9528516996652,0.0069864001125097275,0.0980428010225296,5.0,2.4587744995951653,,,,,,,,,,,,,,6466,Moral,2024-07-03_09h26.51.931,MoralCondition_v2,2022.2.5,30.0036034217876,
17,0,17,0,4,0,4,0,,,,,,,,,,,,,,,,,,,,,,,,,,,,,,,,,,,,,,,,,,,,,,,,,,,,,,1107.4528883993626,1107.4528883993626,0.008273899555206299,0.0976295992732048,5.0,2.1570271998643875,,,,,,,,,,,,,,6466,Moral,2024-07-03_09h26.51.931,MoralCondition_v2,2022.2.5,30.0036034217876,
17,0,17,0,5,0,5,0,,,,,,,,,,,,,,,,,,,,,,,,,,,,,,,,,,,,,,,,,,,,,,,,,,,,,,1109.6527974996716,1109.6527974996716,0.007184000685811043,0.09924419969320297,4.0,3.293113499879837,,,,,,,,,,,,,,6466,Moral,2024-07-03_09h26.51.931,MoralCondition_v2,2022.2.5,30.0036034217876,
17,0,17,0,6,0,6,0,,,,,,,,,,,,,,,,,,,,,,,,,,,,,,,,,,,,,,,,,,,,,,,,,,,,,,1112.9862030986696,1112.9862030986696,0.007336799055337906,0.09927709959447384,2.0,2.0930082984268665,,,,,,,,,,,,,,6466,Moral,2024-07-03_09h26.51.931,MoralCondition_v2,2022.2.5,30.0036034217876,
17,0,17,0,,,,,,,,,,,,,,,,,,,,,,,,,,,,,,,,,,,,,,,,,,,,,,,,,,,,,,,,,,,,,,,,1115.1197151001543,1115.1197151001543,0.00048450008034706116,0.09945820085704327,2.0,3.7336141001433134,,,,,,,,6466,Moral,2024-07-03_09h26.51.931,MoralCondition_v2,2022.2.5,30.0036034217876,
18,0,18,0,0,0,0,0,,,,,,,,,,,,,,,,,,,,,,,1118.8865898996592,0.00024949945509433746,0.09799630008637905,1124.9028425998986,6.014529298990965,1125.086053898558,1125.086053898558,0.08291099965572357,0.19812799990177155,6.031242899596691,1131.1860702000558,1131.1860702000558,1131.1860702000558,0.09141420014202595,0.1978278011083603,1136.8860864993185,1137.086041599512,6.031102500855923,6.131436599418521,1143.0859797988087,12.031019400805235,1143.2194229997694,1143.2194229997694,0.03132440149784088,0.13109390065073967,up,0.4393861014395952,1143.7195350993425,3.970041871070862e-05,0.09810930117964745,1149.7364520989358,1149.7364520989358,1149.7364520989358,0.009456200525164604,0.11474950052797794,2.0,4.973043700680137,,,,,,,1143.1860581990331,1143.1860581990331,1131.0862408988178,1131.0862408988178,,,,6466,Moral,2024-07-03_09h26.51.931,MoralCondition_v2,2022.2.5,30.0036034217876,
18,0,18,0,1,0,1,0,,,,,,,,,,,,,,,,,,,,,,,,,,,,,,,,,,,,,,,,,,,,,,,,,,,,,,1154.7359213996679,1154.7359213996679,0.007534300908446312,0.09749880060553551,6.0,2.7916062008589506,,,,,,,,,,,,,,6466,Moral,2024-07-03_09h26.51.931,MoralCondition_v2,2022.2.5,30.0036034217876,
18,0,18,0,2,0,2,0,,,,,,,,,,,,,,,,,,,,,,,,,,,,,,,,,,,,,,,,,,,,,,,,,,,,,,1157.5693120993674,1157.5693120993674,0.005583900958299637,0.09942450001835823,2.0,2.4947475995868444,,,,,,,,,,,,,,6466,Moral,2024-07-03_09h26.51.931,MoralCondition_v2,2022.2.5,30.0036034217876,
18,0,18,0,3,0,3,0,,,,,,,,,,,,,,,,,,,,,,,,,,,,,,,,,,,,,,,,,,,,,,,,,,,,,,1160.1027274988592,1160.1027274988592,0.0069135986268520355,0.09851150028407574,5.0,2.7263556998223066,,,,,,,,,,,,,,6466,Moral,2024-07-03_09h26.51.931,MoralCondition_v2,2022.2.5,30.0036034217876,
18,0,18,0,4,0,4,0,,,,,,,,,,,,,,,,,,,,,,,,,,,,,,,,,,,,,,,,,,,,,,,,,,,,,,1162.8693512994796,1162.8693512994796,0.007403099909424782,0.09783470071852207,2.0,2.9580716993659735,,,,,,,,,,,,,,6466,Moral,2024-07-03_09h26.51.931,MoralCondition_v2,2022.2.5,30.0036034217876,
18,0,18,0,5,0,5,0,,,,,,,,,,,,,,,,,,,,,,,,,,,,,,,,,,,,,,,,,,,,,,,,,,,,,,1165.8694885987788,1165.8694885987788,0.007366400212049484,0.09781389869749546,2.0,1.824626099318266,,,,,,,,,,,,,,6466,Moral,2024-07-03_09h26.51.931,MoralCondition_v2,2022.2.5,30.0036034217876,
18,0,18,0,6,0,6,0,,,,,,,,,,,,,,,,,,,,,,,,,,,,,,,,,,,,,,,,,,,,,,,,,,,,,,1167.7530221994966,1167.7530221994966,0.007499799132347107,0.11415600031614304,2.0,1.9076724015176296,,,,,,,,,,,,,,6466,Moral,2024-07-03_09h26.51.931,MoralCondition_v2,2022.2.5,30.0036034217876,
18,0,18,0,,,,,,,,,,,,,,,,,,,,,,,,,,,,,,,,,,,,,,,,,,,,,,,,,,,,,,,,,,,,,,,,1169.6860716994852,1169.6860716994852,0.0007020998746156693,0.09924690052866936,6.0,4.599617298692465,,,,,,,,6466,Moral,2024-07-03_09h26.51.931,MoralCondition_v2,2022.2.5,30.0036034217876,
19,0,19,0,0,0,0,0,,,,,,,,,,,,,,,,,,,,,,,1174.3195153996348,0.00020249933004379272,0.0985947996377945,1180.3024255987257,6.014795700088143,1180.4858979992568,1180.4858979992568,0.06026989966630936,0.16509199887514114,6.031630700454116,1186.6193150989711,1186.6193150989711,1186.6193150989711,0.08883370086550713,0.19832370057702065,1192.3192290998995,1192.5194182991982,6.031842900440097,6.1316021997481585,1198.5192481987178,12.031680999323726,1198.6525627989322,1198.6525627989322,0.03185250051319599,0.13156550005078316,down,1.8941356018185616,1200.5857192985713,5.199946463108063e-05,0.09789379872381687,,1206.6024014987051,1206.6024014987051,0.025277798995375633,0.11457189917564392,6.0,2.856939500197768,,,,,,,1198.6191907990724,1198.6191907990724,1186.485897898674,1186.485897898674,,,6.0984078999608755,6466,Moral,2024-07-03_09h26.51.931,MoralCondition_v2,2022.2.5,30.0036034217876,
19,0,19,0,1,0,1,0,,,,,,,,,,,,,,,,,,,,,,,,,,,,,,,,,,,,,,,,,,,,,,,,,,,,,,1209.502502599731,1209.502502599731,0.006721599027514458,0.09904859960079193,6.0,2.2598626986145973,,,,,,,,,,,,,,6466,Moral,2024-07-03_09h26.51.931,MoralCondition_v2,2022.2.5,30.0036034217876,
19,0,19,0,2,0,2,0,,,,,,,,,,,,,,,,,,,,,,,,,,,,,,,,,,,,,,,,,,,,,,,,,,,,,,1211.8024491984397,1211.8024491984397,0.007253199815750122,0.09835050068795681,2.0,2.9917321000248194,,,,,,,,,,,,,,6466,Moral,2024-07-03_09h26.51.931,MoralCondition_v2,2022.2.5,30.0036034217876,
19,0,19,0,3,0,3,0,,,,,,,,,,,,,,,,,,,,,,,,,,,,,,,,,,,,,,,,,,,,,,,,,,,,,,1214.8358444999903,1214.8358444999903,0.006962200626730919,0.09784500114619732,5.0,2.1254869997501373,,,,,,,,,,,,,,6466,Moral,2024-07-03_09h26.51.931,MoralCondition_v2,2022.2.5,30.0036034217876,
19,0,19,0,4,0,4,0,,,,,,,,,,,,,,,,,,,,,,,,,,,,,,,,,,,,,,,,,,,,,,,,,,,,,,1217.0194308999926,1217.0194308999926,0.00936719961464405,0.11427129991352558,3.0,4.505702400580049,,,,,,,,,,,,,,6466,Moral,2024-07-03_09h26.51.931,MoralCondition_v2,2022.2.5,30.0036034217876,
19,0,19,0,5,0,5,0,,,,,,,,,,,,,,,,,,,,,,,,,,,,,,,,,,,,,,,,,,,,,,,,,,,,,,1221.552542699501,1221.552542699501,0.007375599816441536,0.09776460006833076,6.0,2.658075200393796,,,,,,,,,,,,,,6466,Moral,2024-07-03_09h26.51.931,MoralCondition_v2,2022.2.5,30.0036034217876,
19,0,19,0,6,0,6,0,,,,,,,,,,,,,,,,,,,,,,,,,,,,,,,,,,,,,,,,,,,,,,,,,,,,,,1224.252567799762,1224.252567799762,0.007427399978041649,0.09789140149950981,5.0,3.591475000604987,,,,,,,,,,,,,,6466,Moral,2024-07-03_09h26.51.931,MoralCondition_v2,2022.2.5,30.0036034217876,
19,0,19,0,,,,,,,,,,,,,,,,,,,,,,,,,,,,,,,,,,,,,,,,,,,,,,,,,,,,,,,,,,,,,,,,1227.88591449894,1227.88591449894,0.001253100112080574,0.09775920026004314,3.0,6.5312200002372265,,,,,,,,6466,Moral,2024-07-03_09h26.51.931,MoralCondition_v2,2022.2.5,30.0036034217876,
