loop.thisRepN,loop.thisTrialN,loop.thisN,loop.thisIndex,evaluate_all_emotions.thisRepN,evaluate_all_emotions.thisTrialN,evaluate_all_emotions.thisN,evaluate_all_emotions.thisIndex,sync_beep_1.started,p_port.started,p_port.stopped,sync_beep_1.stopped,sync_beep_2.started,sync_beep_2.stopped,sync_beep_3.started,sync_beep_3.stopped,sync_beep_4.started,sync_beep_4.stopped,baseline.started,p_port_2.started,p_port_2.stopped,baseline.stopped,p_port_3.started,Game_Start_Text.started,p_port_4.started,p_port_4.stopped,key_resp.started,key_resp.keys,key_resp.rt,fixation_cross.started,p_port_5.started,p_port_5.stopped,fixation_cross.stopped,p_port_6.started,player_image_intro.started,player_name_intro.started,p_port_7.started,p_port_7.stopped,p_port_8.started,player_image_offer.started,player_name_offer.started,proposed_split.started,p_port_9.started,p_port_9.stopped,proposed_split.stopped,accept_reject.started,p_port_15.started,p_port_15.stopped,accept_reject.stopped,p_port_10.started,player_image_offer.stopped,player_name_offer.stopped,arrow_instructions.started,offer_choice.started,p_port_11.started,p_port_11.stopped,offer_choice.keys,offer_choice.rt,Instructions_Affinity_Score.started,p_port_12.started,p_port_12.stopped,Instructions_Affinity_Score.stopped,Emotion_Image.started,AffinityScore.started,p_port_13.started,p_port_13.stopped,AffinityScore.response,AffinityScore.rt,Instruction.started,Moral_Disgust_Score.started,p_port_14.started,p_port_14.stopped,Moral_Disgust_Score.response,Moral_Disgust_Score.rt,p_port_6.stopped,p_port_8.stopped,p_port_10.stopped,player_image_intro.stopped,player_name_intro.stopped,participant,session,date,expName,psychopyVersion,frameRate,
,,,,,,,,19.904859999427572,0.0008294000290334225,0.1113884998485446,20.20453119999729,20.504571599978952,20.804552299901843,21.104635999863966,21.404541899915785,21.70454449984245,22.0211294000037,22.0211294000037,0.028001499827951193,0.12829749984666705,37.02125909994356,15.028153599938378,37.137948599876836,0.011654899688437581,0.11147109977900982,37.60463069984689,space,1.0256134001538157,,,,,,,,,,,,,,,,,,,,,,,,,,,,,,,,,,,,,,,,,,,,,,,,,,,6569,Moral,2024-08-10_10h06.00.863,MoralCondition_v2,2022.2.5,30.018527443419686,
0,0,0,0,0,0,0,0,,,,,,,,,,,,,,,,,,,,,,38.671434599906206,0.001205099979415536,0.09853039984591305,44.67137989983894,6.032055899966508,44.954575799871236,44.954575799871236,0.14183559990487993,0.28179329982958734,6.015138499904424,50.9713012999855,50.9713012999855,50.9713012999855,0.07430909969843924,0.19866669969633222,56.67127769999206,56.87110419990495,6.031731499591842,6.1318646997679025,62.871229300042614,12.031907899770886,62.971216100035235,62.971216100035235,63.00441599986516,63.00441599986516,0.032115499721840024,0.13188599958084524,down,0.8340754001401365,63.887861399911344,4.429998807609081e-05,0.09766710014082491,69.92130499985069,69.92130499985069,69.92130499985069,0.01918089995160699,0.13115070015192032,5.0,7.579618299845606,,,,,,,,,,,,6569,Moral,2024-08-10_10h06.00.863,MoralCondition_v2,2022.2.5,30.018527443419686,
0,0,0,0,1,0,1,0,,,,,,,,,,,,,,,,,,,,,,,,,,,,,,,,,,,,,,,,,,,,,,,,,,,,,,,77.53802209999412,77.53802209999412,0.009084800025448203,0.1150766999926418,2.0,11.906756600132212,,,,,,,,,,,,6569,Moral,2024-08-10_10h06.00.863,MoralCondition_v2,2022.2.5,30.018527443419686,
0,0,0,0,2,0,2,0,,,,,,,,,,,,,,,,,,,,,,,,,,,,,,,,,,,,,,,,,,,,,,,,,,,,,,,89.48805789998733,89.48805789998733,0.009437700035050511,0.11463379999622703,5.0,2.1393875000067055,,,,,,,,,,,,6569,Moral,2024-08-10_10h06.00.863,MoralCondition_v2,2022.2.5,30.018527443419686,
0,0,0,0,3,0,3,0,,,,,,,,,,,,,,,,,,,,,,,,,,,,,,,,,,,,,,,,,,,,,,,,,,,,,,,91.67134419991635,91.67134419991635,0.011963099939748645,0.1140696001239121,2.0,3.6700297999195755,,,,,,,,,,,,6569,Moral,2024-08-10_10h06.00.863,MoralCondition_v2,2022.2.5,30.018527443419686,
0,0,0,0,4,0,4,0,,,,,,,,,,,,,,,,,,,,,,,,,,,,,,,,,,,,,,,,,,,,,,,,,,,,,,,95.38800260005519,95.38800260005519,0.011062700068578124,0.11385009996592999,6.0,2.6040366000961512,,,,,,,,,,,,6569,Moral,2024-08-10_10h06.00.863,MoralCondition_v2,2022.2.5,30.018527443419686,
0,0,0,0,5,0,5,0,,,,,,,,,,,,,,,,,,,,,,,,,,,,,,,,,,,,,,,,,,,,,,,,,,,,,,,98.02108079986647,98.02108079986647,0.00769580015912652,0.09879470011219382,2.0,3.1587162998039275,,,,,,,,,,,,6569,Moral,2024-08-10_10h06.00.863,MoralCondition_v2,2022.2.5,30.018527443419686,
0,0,0,0,6,0,6,0,,,,,,,,,,,,,,,,,,,,,,,,,,,,,,,,,,,,,,,,,,,,,,,,,,,,,,,101.22107680002227,101.22107680002227,0.009374500019475818,0.09785369993187487,3.0,4.322784899966791,,,,,,,,,,,,6569,Moral,2024-08-10_10h06.00.863,MoralCondition_v2,2022.2.5,30.018527443419686,
0,0,0,0,,,,,,,,,,,,,,,,,,,,,,,,,,,,,,,,,,,,,,,,,,,,,,,,,,,,,,,,,,,,,,,,,105.58792579988949,105.58792579988949,0.002091499976813793,0.09717369987629354,3.0,8.129744899924845,,,,,,6569,Moral,2024-08-10_10h06.00.863,MoralCondition_v2,2022.2.5,30.018527443419686,
1,0,1,0,0,0,0,0,,,,,,,,,,,,,,,,,,,,,,113.75468389992602,0.0001556000206619501,0.09907860006205738,119.75445079989731,5.999023000011221,120.0212951998692,120.0212951998692,0.14728299994021654,0.265975299756974,5.999070799909532,126.05428329994902,126.05428329994902,126.05428329994902,0.09203029982745647,0.19924339978024364,131.75443729991093,131.92133259982802,5.99931009975262,6.098847999703139,137.92110079992563,11.999065299751237,138.05425619985908,138.05425619985908,138.05425619985908,138.05425619985908,0.00011569960042834282,0.09889919962733984,up,0.7519849000964314,138.8712102000136,4.349998198449612e-05,0.09795189998112619,,144.88732219999656,144.88732219999656,0.025644700042903423,0.11425400013104081,2.0,2.3900486000347883,,,,,,,6.098990299971774,6.099027799908072,12.099139899713919,,,6569,Moral,2024-08-10_10h06.00.863,MoralCondition_v2,2022.2.5,30.018527443419686,
1,0,1,0,1,0,1,0,,,,,,,,,,,,,,,,,,,,,,,,,,,,,,,,,,,,,,,,,,,,,,,,,,,,,,,147.3376658000052,147.3376658000052,0.009002899983897805,0.11421789997257292,5.0,3.272800700040534,,,,,,,,,,,,6569,Moral,2024-08-10_10h06.00.863,MoralCondition_v2,2022.2.5,30.018527443419686,
1,0,1,0,2,0,2,0,,,,,,,,,,,,,,,,,,,,,,,,,,,,,,,,,,,,,,,,,,,,,,,,,,,,,,,150.63770870002918,150.63770870002918,0.007343599805608392,0.098035299917683,2.0,1.8585437999572605,,,,,,,,,,,,6569,Moral,2024-08-10_10h06.00.863,MoralCondition_v2,2022.2.5,30.018527443419686,
1,0,1,0,3,0,3,0,,,,,,,,,,,,,,,,,,,,,,,,,,,,,,,,,,,,,,,,,,,,,,,,,,,,,,,152.5377493998967,152.5377493998967,0.006643099943175912,0.09920339984819293,2.0,1.0604203001130372,,,,,,,,,,,,6569,Moral,2024-08-10_10h06.00.863,MoralCondition_v2,2022.2.5,30.018527443419686,
1,0,1,0,4,0,4,0,,,,,,,,,,,,,,,,,,,,,,,,,,,,,,,,,,,,,,,,,,,,,,,,,,,,,,,153.65475620003417,153.65475620003417,0.008279900066554546,0.11439920007251203,2.0,0.940647599985823,,,,,,,,,,,,6569,Moral,2024-08-10_10h06.00.863,MoralCondition_v2,2022.2.5,30.018527443419686,
1,0,1,0,5,0,5,0,,,,,,,,,,,,,,,,,,,,,,,,,,,,,,,,,,,,,,,,,,,,,,,,,,,,,,,154.62090929993428,154.62090929993428,0.008013100130483508,0.09804429998621345,6.0,2.2908652001060545,,,,,,,,,,,,6569,Moral,2024-08-10_10h06.00.863,MoralCondition_v2,2022.2.5,30.018527443419686,
1,0,1,0,6,0,6,0,,,,,,,,,,,,,,,,,,,,,,,,,,,,,,,,,,,,,,,,,,,,,,,,,,,,,,,156.95423029991798,156.95423029991798,0.00753689999692142,0.09806820005178452,2.0,3.9247119000647217,,,,,,,,,,,,6569,Moral,2024-08-10_10h06.00.863,MoralCondition_v2,2022.2.5,30.018527443419686,
1,0,1,0,,,,,,,,,,,,,,,,,,,,,,,,,,,,,,,,,,,,,,,,,,,,,,,,,,,,,,,,,,,,,,,,,160.92091259988956,160.92091259988956,0.0015342999249696732,0.09748920006677508,6.0,3.064089700113982,,,,,,6569,Moral,2024-08-10_10h06.00.863,MoralCondition_v2,2022.2.5,30.018527443419686,
2,0,2,0,0,0,0,0,,,,,,,,,,,,,,,,,,,,,,164.0213973999489,0.0001426998060196638,0.09928079997189343,170.03770280000754,6.015772899845615,170.2543593000155,170.2543593000155,0.1147703998722136,0.23246889980509877,5.9991592997685075,176.32097060000524,176.32097060000524,176.32097060000524,0.09457829967141151,0.1993329997640103,182.0209867998492,182.18783519999124,5.999340399634093,6.098914299625903,188.18793549994007,11.999431099742651,188.3209993999917,188.3209993999917,188.3209993999917,188.3209993999917,7.629953324794769e-05,0.09907929971814156,down,0.8610203000716865,189.2006381000392,2.0300038158893585e-05,0.10120690008625388,195.20416239998303,195.20416239998303,195.20416239998303,0.017691100016236305,0.11791939986869693,4.0,2.1227031000889838,,,,,,,,6.099179099779576,12.099144499748945,,,6569,Moral,2024-08-10_10h06.00.863,MoralCondition_v2,2022.2.5,30.018527443419686,
2,0,2,0,1,0,1,0,,,,,,,,,,,,,,,,,,,,,,,,,,,,,,,,,,,,,,,,,,,,,,,,,,,,,,,197.38780190004036,197.38780190004036,0.00872349995188415,0.11442869994789362,2.0,2.506705400068313,,,,,,,,,,,,6569,Moral,2024-08-10_10h06.00.863,MoralCondition_v2,2022.2.5,30.018527443419686,
2,0,2,0,2,0,2,0,,,,,,,,,,,,,,,,,,,,,,,,,,,,,,,,,,,,,,,,,,,,,,,,,,,,,,,199.93787699984387,199.93787699984387,0.00858439994044602,0.11404730007052422,2.0,1.406523099867627,,,,,,,,,,,,6569,Moral,2024-08-10_10h06.00.863,MoralCondition_v2,2022.2.5,30.018527443419686,
2,0,2,0,3,0,3,0,,,,,,,,,,,,,,,,,,,,,,,,,,,,,,,,,,,,,,,,,,,,,,,,,,,,,,,201.37097459984943,201.37097459984943,0.006889899959787726,0.09917549998499453,3.0,2.359905500197783,,,,,,,,,,,,6569,Moral,2024-08-10_10h06.00.863,MoralCondition_v2,2022.2.5,30.018527443419686,
2,0,2,0,4,0,4,0,,,,,,,,,,,,,,,,,,,,,,,,,,,,,,,,,,,,,,,,,,,,,,,,,,,,,,,203.7877568998374,203.7877568998374,0.00810580002143979,0.11429860000498593,5.0,2.4739659999031574,,,,,,,,,,,,6569,Moral,2024-08-10_10h06.00.863,MoralCondition_v2,2022.2.5,30.018527443419686,
2,0,2,0,5,0,5,0,,,,,,,,,,,,,,,,,,,,,,,,,,,,,,,,,,,,,,,,,,,,,,,,,,,,,,,206.30447370000184,206.30447370000184,0.008526699850335717,0.1146469998639077,5.0,1.0068848000373691,,,,,,,,,,,,6569,Moral,2024-08-10_10h06.00.863,MoralCondition_v2,2022.2.5,30.018527443419686,
2,0,2,0,6,0,6,0,,,,,,,,,,,,,,,,,,,,,,,,,,,,,,,,,,,,,,,,,,,,,,,,,,,,,,,207.33745029987767,207.33745029987767,0.006841599941253662,0.09918450005352497,4.0,3.859942200127989,,,,,,,,,,,,6569,Moral,2024-08-10_10h06.00.863,MoralCondition_v2,2022.2.5,30.018527443419686,
2,0,2,0,,,,,,,,,,,,,,,,,,,,,,,,,,,,,,,,,,,,,,,,,,,,,,,,,,,,,,,,,,,,,,,,,211.23784489999525,211.23784489999525,0.0014275000430643559,0.0972579000517726,3.0,2.19723580009304,,,,,,6569,Moral,2024-08-10_10h06.00.863,MoralCondition_v2,2022.2.5,30.018527443419686,
3,0,3,0,0,0,0,0,,,,,,,,,,,,,,,,,,,,,,213.47096039983444,0.00045849988237023354,0.09722770005464554,219.47092140000314,6.030437999870628,219.67084489995614,219.67084489995614,0.09627350000664592,0.19731269986368716,6.0304150998126715,225.754109099973,225.754109099973,225.754109099973,0.08166829985566437,0.1804575996939093,231.45422479999252,231.6542261999566,6.013748799683526,6.113792599877343,237.65421649999917,12.013753899838775,237.75421090004966,237.75421090004966,237.78755969996564,237.78755969996564,0.013929099775850773,0.11383819975890219,down,0.3315258000511676,238.15436419984326,3.400002606213093e-05,0.11480709980241954,244.15396609995514,244.15396609995514,244.15396609995514,0.00812199991196394,0.0980354999192059,5.0,1.490981100127101,,,,,,,,,,225.67095089983195,225.67095089983195,6569,Moral,2024-08-10_10h06.00.863,MoralCondition_v2,2022.2.5,30.018527443419686,
3,0,3,0,1,0,1,0,,,,,,,,,,,,,,,,,,,,,,,,,,,,,,,,,,,,,,,,,,,,,,,,,,,,,,,245.70434729987755,245.70434729987755,0.007714400067925453,0.11468320013955235,5.0,0.8076899000443518,,,,,,,,,,,,6569,Moral,2024-08-10_10h06.00.863,MoralCondition_v2,2022.2.5,30.018527443419686,
3,0,3,0,2,0,2,0,,,,,,,,,,,,,,,,,,,,,,,,,,,,,,,,,,,,,,,,,,,,,,,,,,,,,,,246.5375294999685,246.5375294999685,0.0068657000083476305,0.09936400013975799,2.0,1.993771699955687,,,,,,,,,,,,6569,Moral,2024-08-10_10h06.00.863,MoralCondition_v2,2022.2.5,30.018527443419686,
3,0,3,0,3,0,3,0,,,,,,,,,,,,,,,,,,,,,,,,,,,,,,,,,,,,,,,,,,,,,,,,,,,,,,,248.57079539983533,248.57079539983533,0.006381199928000569,0.09929109993390739,2.0,0.9938753000460565,,,,,,,,,,,,6569,Moral,2024-08-10_10h06.00.863,MoralCondition_v2,2022.2.5,30.018527443419686,
3,0,3,0,4,0,4,0,,,,,,,,,,,,,,,,,,,,,,,,,,,,,,,,,,,,,,,,,,,,,,,,,,,,,,,249.60426269983873,249.60426269983873,0.007340400014072657,0.09791170014068484,2.0,0.9249612998683006,,,,,,,,,,,,6569,Moral,2024-08-10_10h06.00.863,MoralCondition_v2,2022.2.5,30.018527443419686,
3,0,3,0,5,0,5,0,,,,,,,,,,,,,,,,,,,,,,,,,,,,,,,,,,,,,,,,,,,,,,,,,,,,,,,250.58787699998356,250.58787699998356,0.008574399864301085,0.11481739999726415,2.0,0.707258699927479,,,,,,,,,,,,6569,Moral,2024-08-10_10h06.00.863,MoralCondition_v2,2022.2.5,30.018527443419686,
3,0,3,0,6,0,6,0,,,,,,,,,,,,,,,,,,,,,,,,,,,,,,,,,,,,,,,,,,,,,,,,,,,,,,,251.3209030998405,251.3209030998405,0.006632599979639053,0.0992266999091953,2.0,1.793626599945128,,,,,,,,,,,,6569,Moral,2024-08-10_10h06.00.863,MoralCondition_v2,2022.2.5,30.018527443419686,
3,0,3,0,,,,,,,,,,,,,,,,,,,,,,,,,,,,,,,,,,,,,,,,,,,,,,,,,,,,,,,,,,,,,,,,,253.15438489988446,253.15438489988446,0.0007217000238597393,0.09909459995105863,3.0,2.4661004000809044,,,,,,6569,Moral,2024-08-10_10h06.00.863,MoralCondition_v2,2022.2.5,30.018527443419686,
4,0,4,0,0,0,0,0,,,,,,,,,,,,,,,,,,,,,,255.65438219998032,0.00023829983547329903,0.09873780002817512,261.6542028998956,6.031856299843639,261.85430929996073,261.85430929996073,0.08810479985550046,0.19854089990258217,6.0316394998226315,267.95406070002355,267.95406070002355,267.95406070002355,0.08713059965521097,0.1983330997172743,273.65411819983274,273.85420129983686,6.031761599704623,6.13171359966509,279.85415739985183,12.031649199780077,279.9373526999261,279.9373526999261,279.97082019993104,279.97082019993104,0.015110399574041367,0.11498349974863231,up,0.7160094000864774,280.720832800027,4.659988917410374e-05,0.0977870998904109,286.73782569984905,286.73782569984905,286.73782569984905,0.010522600030526519,0.11442620004527271,5.0,1.571504699997604,,,,,,,,,,267.85417769989,267.85417769989,6569,Moral,2024-08-10_10h06.00.863,MoralCondition_v2,2022.2.5,30.018527443419686,
4,0,4,0,1,0,1,0,,,,,,,,,,,,,,,,,,,,,,,,,,,,,,,,,,,,,,,,,,,,,,,,,,,,,,,288.3543179000262,288.3543179000262,0.00799610000103712,0.11427409993484616,2.0,1.7740937999915332,,,,,,,,,,,,6569,Moral,2024-08-10_10h06.00.863,MoralCondition_v2,2022.2.5,30.018527443419686,
4,0,4,0,2,0,2,0,,,,,,,,,,,,,,,,,,,,,,,,,,,,,,,,,,,,,,,,,,,,,,,,,,,,,,,290.15424469998106,290.15424469998106,0.006587200099602342,0.099214400164783,2.0,0.8604063000530005,,,,,,,,,,,,6569,Moral,2024-08-10_10h06.00.863,MoralCondition_v2,2022.2.5,30.018527443419686,
4,0,4,0,3,0,3,0,,,,,,,,,,,,,,,,,,,,,,,,,,,,,,,,,,,,,,,,,,,,,,,,,,,,,,,291.0541584000457,291.0541584000457,0.006673899944871664,0.09912319993600249,2.0,1.2935528000816703,,,,,,,,,,,,6569,Moral,2024-08-10_10h06.00.863,MoralCondition_v2,2022.2.5,30.018527443419686,
4,0,4,0,4,0,4,0,,,,,,,,,,,,,,,,,,,,,,,,,,,,,,,,,,,,,,,,,,,,,,,,,,,,,,,292.3876028000377,292.3876028000377,0.007660700008273125,0.09742109989747405,2.0,2.9574657999910414,,,,,,,,,,,,6569,Moral,2024-08-10_10h06.00.863,MoralCondition_v2,2022.2.5,30.018527443419686,
4,0,4,0,5,0,5,0,,,,,,,,,,,,,,,,,,,,,,,,,,,,,,,,,,,,,,,,,,,,,,,,,,,,,,,295.3872868998442,295.3872868998442,0.00793659989722073,0.09765559993684292,6.0,1.691288699861616,,,,,,,,,,,,6569,Moral,2024-08-10_10h06.00.863,MoralCondition_v2,2022.2.5,30.018527443419686,
4,0,4,0,6,0,6,0,,,,,,,,,,,,,,,,,,,,,,,,,,,,,,,,,,,,,,,,,,,,,,,,,,,,,,,297.1207653998863,297.1207653998863,0.007369200000539422,0.09797700005583465,2.0,1.9581710998900235,,,,,,,,,,,,6569,Moral,2024-08-10_10h06.00.863,MoralCondition_v2,2022.2.5,30.018527443419686,
4,0,4,0,,,,,,,,,,,,,,,,,,,,,,,,,,,,,,,,,,,,,,,,,,,,,,,,,,,,,,,,,,,,,,,,,299.1208589999005,299.1208589999005,0.0006889000069350004,0.0994764999486506,6.0,1.9996876998338848,,,,,,6569,Moral,2024-08-10_10h06.00.863,MoralCondition_v2,2022.2.5,30.018527443419686,
5,0,5,0,0,0,0,0,,,,,,,,,,,,,,,,,,,,,,301.15433549997397,0.0002478999085724354,0.09792719990946352,307.1540659000166,6.03122999984771,307.40403209999204,307.40403209999204,0.1335715998429805,0.24786899983882904,6.014469899935648,313.42066399985924,313.42066399985924,313.42066399985924,0.0629716997500509,0.164592299843207,319.1207850999199,319.354045700049,6.031212199712172,6.131380099803209,325.35402279999107,12.031181899830699,325.42069739988074,325.42069739988074,325.48737740004435,325.48737740004435,0.031172599643468857,0.13112189969979227,down,0.7030396000482142,326.237333699828,4.2899977415800095e-05,0.0979317999444902,,332.25018869992346,332.25018869992346,0.016708699986338615,0.14765429985709488,4.0,2.0654751998372376,,,,,,,,,,,,6569,Moral,2024-08-10_10h06.00.863,MoralCondition_v2,2022.2.5,30.018527443419686,
5,0,5,0,1,0,1,0,,,,,,,,,,,,,,,,,,,,,,,,,,,,,,,,,,,,,,,,,,,,,,,,,,,,,,,334.3540006999392,334.3540006999392,0.006488699931651354,0.09824860002845526,2.0,1.5929662000853568,,,,,,,,,,,,6569,Moral,2024-08-10_10h06.00.863,MoralCondition_v2,2022.2.5,30.018527443419686,
5,0,5,0,2,0,2,0,,,,,,,,,,,,,,,,,,,,,,,,,,,,,,,,,,,,,,,,,,,,,,,,,,,,,,,335.98749720002525,335.98749720002525,0.006502500036731362,0.09908810001797974,2.0,2.2271491999272257,,,,,,,,,,,,6569,Moral,2024-08-10_10h06.00.863,MoralCondition_v2,2022.2.5,30.018527443419686,
5,0,5,0,3,0,3,0,,,,,,,,,,,,,,,,,,,,,,,,,,,,,,,,,,,,,,,,,,,,,,,,,,,,,,,338.25383890001103,338.25383890001103,0.007671700092032552,0.09803650015965104,2.0,0.7914515999145806,,,,,,,,,,,,6569,Moral,2024-08-10_10h06.00.863,MoralCondition_v2,2022.2.5,30.018527443419686,
5,0,5,0,4,0,4,0,,,,,,,,,,,,,,,,,,,,,,,,,,,,,,,,,,,,,,,,,,,,,,,,,,,,,,,339.087196999928,339.087196999928,0.006919999839738011,0.09907449991442263,5.0,3.0598983999807388,,,,,,,,,,,,6569,Moral,2024-08-10_10h06.00.863,MoralCondition_v2,2022.2.5,30.018527443419686,
5,0,5,0,5,0,5,0,,,,,,,,,,,,,,,,,,,,,,,,,,,,,,,,,,,,,,,,,,,,,,,,,,,,,,,342.187326699961,342.187326699961,0.00783449993468821,0.09781889989972115,3.0,1.6244457999709994,,,,,,,,,,,,6569,Moral,2024-08-10_10h06.00.863,MoralCondition_v2,2022.2.5,30.018527443419686,
5,0,5,0,6,0,6,0,,,,,,,,,,,,,,,,,,,,,,,,,,,,,,,,,,,,,,,,,,,,,,,,,,,,,,,343.85416490002535,343.85416490002535,0.007213100092485547,0.09773409995250404,2.0,1.6580999998841435,,,,,,,,,,,,6569,Moral,2024-08-10_10h06.00.863,MoralCondition_v2,2022.2.5,30.018527443419686,
5,0,5,0,,,,,,,,,,,,,,,,,,,,,,,,,,,,,,,,,,,,,,,,,,,,,,,,,,,,,,,,,,,,,,,,,345.5539859000128,345.5539859000128,0.002582699991762638,0.09732870012521744,3.0,1.7296126999426633,,,,,,6569,Moral,2024-08-10_10h06.00.863,MoralCondition_v2,2022.2.5,30.018527443419686,
6,0,6,0,0,0,0,0,,,,,,,,,,,,,,,,,,,,,,347.32102150004357,0.0002529001794755459,0.09797680005431175,353.33730060001835,6.014572900021449,353.5037811000366,353.5037811000366,0.06974270008504391,0.18133580009453,6.014381600078195,359.6206525999587,359.6206525999587,359.6206525999587,0.08816999988630414,0.19788769981823862,365.32063920004293,365.5206330998335,6.031303499825299,6.131208899896592,371.52062159986235,12.031302399933338,371.62056449986994,371.62056449986994,371.65409209998325,371.65409209998325,0.03141149994917214,0.13122419989667833,down,0.5125781001988798,372.22058660001494,3.8899946957826614e-05,0.09801520011387765,378.2210617000237,378.2210617000237,378.2210617000237,0.00915960012935102,0.09802310005761683,3.0,3.69020720012486,,,,,,,,,,359.4872041998897,359.4872041998897,6569,Moral,2024-08-10_10h06.00.863,MoralCondition_v2,2022.2.5,30.018527443419686,
6,0,6,0,1,0,1,0,,,,,,,,,,,,,,,,,,,,,,,,,,,,,,,,,,,,,,,,,,,,,,,,,,,,,,,381.95384979993105,381.95384979993105,0.0065836000721901655,0.0993047000374645,3.0,2.126890900079161,,,,,,,,,,,,6569,Moral,2024-08-10_10h06.00.863,MoralCondition_v2,2022.2.5,30.018527443419686,
6,0,6,0,2,0,2,0,,,,,,,,,,,,,,,,,,,,,,,,,,,,,,,,,,,,,,,,,,,,,,,,,,,,,,,384.13727379986085,384.13727379986085,0.008604499977082014,0.11442160001024604,4.0,1.7734272999223322,,,,,,,,,,,,6569,Moral,2024-08-10_10h06.00.863,MoralCondition_v2,2022.2.5,30.018527443419686,
6,0,6,0,3,0,3,0,,,,,,,,,,,,,,,,,,,,,,,,,,,,,,,,,,,,,,,,,,,,,,,,,,,,,,,385.9372222998645,385.9372222998645,0.006045799935236573,0.09913829993456602,5.0,2.160886200144887,,,,,,,,,,,,6569,Moral,2024-08-10_10h06.00.863,MoralCondition_v2,2022.2.5,30.018527443419686,
6,0,6,0,4,0,4,0,,,,,,,,,,,,,,,,,,,,,,,,,,,,,,,,,,,,,,,,,,,,,,,,,,,,,,,388.13707849988714,388.13707849988714,0.0071429000236094,0.09937389986589551,5.0,1.1265497000422329,,,,,,,,,,,,6569,Moral,2024-08-10_10h06.00.863,MoralCondition_v2,2022.2.5,30.018527443419686,
6,0,6,0,5,0,5,0,,,,,,,,,,,,,,,,,,,,,,,,,,,,,,,,,,,,,,,,,,,,,,,,,,,,,,,389.3037034999579,389.3037034999579,0.008027800126001239,0.0981958000920713,2.0,2.0577490001451224,,,,,,,,,,,,6569,Moral,2024-08-10_10h06.00.863,MoralCondition_v2,2022.2.5,30.018527443419686,
6,0,6,0,6,0,6,0,,,,,,,,,,,,,,,,,,,,,,,,,,,,,,,,,,,,,,,,,,,,,,,,,,,,,,,391.4038370999042,391.4038370999042,0.006612800061702728,0.09898440004326403,2.0,1.5605355000589043,,,,,,,,,,,,6569,Moral,2024-08-10_10h06.00.863,MoralCondition_v2,2022.2.5,30.018527443419686,
6,0,6,0,,,,,,,,,,,,,,,,,,,,,,,,,,,,,,,,,,,,,,,,,,,,,,,,,,,,,,,,,,,,,,,,,393.0037817999255,393.0037817999255,0.0020638001151382923,0.09738330007530749,2.0,3.0631419999990612,,,,,,6569,Moral,2024-08-10_10h06.00.863,MoralCondition_v2,2022.2.5,30.018527443419686,
7,0,7,0,0,0,0,0,,,,,,,,,,,,,,,,,,,,,,396.1040300000459,0.0001368001103401184,0.09986890014261007,402.10385229997337,5.999151600059122,402.27059970004484,402.27059970004484,0.06267190002836287,0.16599959996528924,5.999109799973667,408.3705875999294,408.3705875999294,408.3705875999294,0.06503599998541176,0.1660556998103857,414.0704870999325,414.27047959994525,5.999150399817154,6.0991309999953955,420.2703829999082,12.032458300003782,420.3704740998801,420.3704740998801,420.43713299999945,420.43713299999945,0.03298079990781844,0.13238909980282187,down,0.7210731999948621,421.20381750003435,4.0999846532940865e-05,0.09794009989127517,427.2208918000106,427.2208918000106,427.2208918000106,0.009358099894598126,0.11471359990537167,4.0,2.1062545001041144,,,,,,,6.099129400216043,6.0991734999697655,,408.2704624000471,408.2704624000471,6569,Moral,2024-08-10_10h06.00.863,MoralCondition_v2,2022.2.5,30.018527443419686,
7,0,7,0,1,0,1,0,,,,,,,,,,,,,,,,,,,,,,,,,,,,,,,,,,,,,,,,,,,,,,,,,,,,,,,429.3537363000214,429.3537363000214,0.006385300075635314,0.09923480008728802,2.0,1.4270542000886053,,,,,,,,,,,,6569,Moral,2024-08-10_10h06.00.863,MoralCondition_v2,2022.2.5,30.018527443419686,
7,0,7,0,2,0,2,0,,,,,,,,,,,,,,,,,,,,,,,,,,,,,,,,,,,,,,,,,,,,,,,,,,,,,,,430.8207743000239,430.8207743000239,0.006455600028857589,0.09913489990867674,2.0,1.3602299999911338,,,,,,,,,,,,6569,Moral,2024-08-10_10h06.00.863,MoralCondition_v2,2022.2.5,30.018527443419686,
7,0,7,0,3,0,3,0,,,,,,,,,,,,,,,,,,,,,,,,,,,,,,,,,,,,,,,,,,,,,,,,,,,,,,,432.23726069997065,432.23726069997065,0.008683300111442804,0.11483260011300445,3.0,1.8405249998904765,,,,,,,,,,,,6569,Moral,2024-08-10_10h06.00.863,MoralCondition_v2,2022.2.5,30.018527443419686,
7,0,7,0,4,0,4,0,,,,,,,,,,,,,,,,,,,,,,,,,,,,,,,,,,,,,,,,,,,,,,,,,,,,,,,434.1037628999911,434.1037628999911,0.008046999806538224,0.0980942000169307,3.0,1.5242562999483198,,,,,,,,,,,,6569,Moral,2024-08-10_10h06.00.863,MoralCondition_v2,2022.2.5,30.018527443419686,
7,0,7,0,5,0,5,0,,,,,,,,,,,,,,,,,,,,,,,,,,,,,,,,,,,,,,,,,,,,,,,,,,,,,,,435.68737099994905,435.68737099994905,0.007815600140020251,0.11448440002277493,4.0,1.7412050999701023,,,,,,,,,,,,6569,Moral,2024-08-10_10h06.00.863,MoralCondition_v2,2022.2.5,30.018527443419686,
7,0,7,0,6,0,6,0,,,,,,,,,,,,,,,,,,,,,,,,,,,,,,,,,,,,,,,,,,,,,,,,,,,,,,,437.4706880999729,437.4706880999729,0.008273500017821789,0.11489430000074208,5.0,2.6407750002108514,,,,,,,,,,,,6569,Moral,2024-08-10_10h06.00.863,MoralCondition_v2,2022.2.5,30.018527443419686,
7,0,7,0,,,,,,,,,,,,,,,,,,,,,,,,,,,,,,,,,,,,,,,,,,,,,,,,,,,,,,,,,,,,,,,,,440.1371251998935,440.1371251998935,0.001491399947553873,0.09771819994784892,3.0,1.9307173998095095,,,,,,6569,Moral,2024-08-10_10h06.00.863,MoralCondition_v2,2022.2.5,30.018527443419686,
8,0,8,0,0,0,0,0,,,,,,,,,,,,,,,,,,,,,,442.10371960001066,0.0003402000293135643,0.09711869992315769,448.10363759985194,6.013706299941987,448.2705006999895,448.2705006999895,0.05256989994086325,0.163878999883309,6.030460499925539,454.40381519985385,454.40381519985385,454.40381519985385,0.08578459965065122,0.1973760996479541,460.1036850998644,460.3038126998581,6.030608299653977,6.130367499776185,466.3038701999467,12.030642199795693,466.403685499914,466.403685499914,466.4370160000399,466.4370160000399,0.03061369969509542,0.13043519970960915,up,10.7290603001602,477.2036286999937,3.520003519952297e-05,0.09773690020665526,,483.2202158998698,483.2202158998698,0.02398300007916987,0.11445980006828904,2.0,1.6248451999854296,,,,,,,6.097154199844226,,,454.2703634998761,454.2703634998761,6569,Moral,2024-08-10_10h06.00.863,MoralCondition_v2,2022.2.5,30.018527443419686,
8,0,8,0,1,0,1,0,,,,,,,,,,,,,,,,,,,,,,,,,,,,,,,,,,,,,,,,,,,,,,,,,,,,,,,484.88710980000906,484.88710980000906,0.007525600027292967,0.09797969995997846,2.0,0.691368900006637,,,,,,,,,,,,6569,Moral,2024-08-10_10h06.00.863,MoralCondition_v2,2022.2.5,30.018527443419686,
8,0,8,0,2,0,2,0,,,,,,,,,,,,,,,,,,,,,,,,,,,,,,,,,,,,,,,,,,,,,,,,,,,,,,,485.6203047998715,485.6203047998715,0.0075026999693363905,0.09790379996411502,5.0,1.991316600004211,,,,,,,,,,,,6569,Moral,2024-08-10_10h06.00.863,MoralCondition_v2,2022.2.5,30.018527443419686,
8,0,8,0,3,0,3,0,,,,,,,,,,,,,,,,,,,,,,,,,,,,,,,,,,,,,,,,,,,,,,,,,,,,,,,487.6534128000494,487.6534128000494,0.007353699998930097,0.09741190006025136,2.0,1.3916112000588328,,,,,,,,,,,,6569,Moral,2024-08-10_10h06.00.863,MoralCondition_v2,2022.2.5,30.018527443419686,
8,0,8,0,4,0,4,0,,,,,,,,,,,,,,,,,,,,,,,,,,,,,,,,,,,,,,,,,,,,,,,,,,,,,,,489.10363519983366,489.10363519983366,0.009884600061923265,0.1156275998800993,4.0,1.540296500083059,,,,,,,,,,,,6569,Moral,2024-08-10_10h06.00.863,MoralCondition_v2,2022.2.5,30.018527443419686,
8,0,8,0,5,0,5,0,,,,,,,,,,,,,,,,,,,,,,,,,,,,,,,,,,,,,,,,,,,,,,,,,,,,,,,490.6702011998277,490.6702011998277,0.006769000086933374,0.099252600222826,2.0,1.4600009000860155,,,,,,,,,,,,6569,Moral,2024-08-10_10h06.00.863,MoralCondition_v2,2022.2.5,30.018527443419686,
8,0,8,0,6,0,6,0,,,,,,,,,,,,,,,,,,,,,,,,,,,,,,,,,,,,,,,,,,,,,,,,,,,,,,,492.1701582998503,492.1701582998503,0.006717200158163905,0.09931459999643266,2.0,0.7268823001068085,,,,,,,,,,,,6569,Moral,2024-08-10_10h06.00.863,MoralCondition_v2,2022.2.5,30.018527443419686,
8,0,8,0,,,,,,,,,,,,,,,,,,,,,,,,,,,,,,,,,,,,,,,,,,,,,,,,,,,,,,,,,,,,,,,,,492.9369012999814,492.9369012999814,0.0012825001031160355,0.09768000012263656,6.0,3.430974700022489,,,,,,6569,Moral,2024-08-10_10h06.00.863,MoralCondition_v2,2022.2.5,30.018527443419686,
9,0,9,0,0,0,0,0,,,,,,,,,,,,,,,,,,,,,,496.40396200004034,0.00016649998724460602,0.099386400077492,502.4035433998797,5.999352100072429,502.57006499986164,502.57006499986164,0.05402499996125698,0.16587599995546043,5.999321999959648,508.67017709999345,508.67017709999345,508.67017709999345,0.05146669992245734,0.1661633998155594,514.3701787998434,514.5702176999766,5.999364499934018,6.099246199941263,520.5703616000246,11.999507199972868,520.6533412998542,520.6533412998542,520.703503599856,520.703503599856,-0.00022240029647946358,0.09924739971756935,up,0.43048670003190637,521.1701690000482,3.609992563724518e-05,0.09841530001722276,,527.2034831000492,527.2034831000492,0.02683909982442856,0.13166139996610582,2.0,1.8724632000084966,,,,,,,6.099330299999565,6.099362199893221,12.09913989994675,508.5702104999218,508.5702104999218,6569,Moral,2024-08-10_10h06.00.863,MoralCondition_v2,2022.2.5,30.018527443419686,
9,0,9,0,1,0,1,0,,,,,,,,,,,,,,,,,,,,,,,,,,,,,,,,,,,,,,,,,,,,,,,,,,,,,,,529.1036582998931,529.1036582998931,0.00664189993403852,0.09927109978161752,2.0,0.6270912999752909,,,,,,,,,,,,6569,Moral,2024-08-10_10h06.00.863,MoralCondition_v2,2022.2.5,30.018527443419686,
9,0,9,0,2,0,2,0,,,,,,,,,,,,,,,,,,,,,,,,,,,,,,,,,,,,,,,,,,,,,,,,,,,,,,,529.7702623000368,529.7702623000368,0.009261899860575795,0.09737199987284839,5.0,1.455490600084886,,,,,,,,,,,,6569,Moral,2024-08-10_10h06.00.863,MoralCondition_v2,2022.2.5,30.018527443419686,
9,0,9,0,3,0,3,0,,,,,,,,,,,,,,,,,,,,,,,,,,,,,,,,,,,,,,,,,,,,,,,,,,,,,,,531.2870576998685,531.2870576998685,0.0078083002008497715,0.11449300008825958,5.0,0.940888199955225,,,,,,,,,,,,6569,Moral,2024-08-10_10h06.00.863,MoralCondition_v2,2022.2.5,30.018527443419686,
9,0,9,0,4,0,4,0,,,,,,,,,,,,,,,,,,,,,,,,,,,,,,,,,,,,,,,,,,,,,,,,,,,,,,,532.2535234999377,532.2535234999377,0.0065996001940220594,0.09906859998591244,2.0,1.226938100066036,,,,,,,,,,,,6569,Moral,2024-08-10_10h06.00.863,MoralCondition_v2,2022.2.5,30.018527443419686,
9,0,9,0,5,0,5,0,,,,,,,,,,,,,,,,,,,,,,,,,,,,,,,,,,,,,,,,,,,,,,,,,,,,,,,533.5199889000505,533.5199889000505,0.007926299935206771,0.09739440004341304,2.0,0.6241955000441521,,,,,,,,,,,,6569,Moral,2024-08-10_10h06.00.863,MoralCondition_v2,2022.2.5,30.018527443419686,
9,0,9,0,6,0,6,0,,,,,,,,,,,,,,,,,,,,,,,,,,,,,,,,,,,,,,,,,,,,,,,,,,,,,,,534.1869441999588,534.1869441999588,0.0067276000045239925,0.09911979991011322,2.0,0.7267863000743091,,,,,,,,,,,,6569,Moral,2024-08-10_10h06.00.863,MoralCondition_v2,2022.2.5,30.018527443419686,
9,0,9,0,,,,,,,,,,,,,,,,,,,,,,,,,,,,,,,,,,,,,,,,,,,,,,,,,,,,,,,,,,,,,,,,,534.9537927999627,534.9537927999627,0.0006911999080330133,0.0990178999491036,6.0,2.166854599956423,,,,,,6569,Moral,2024-08-10_10h06.00.863,MoralCondition_v2,2022.2.5,30.018527443419686,
10,0,10,0,0,0,0,0,,,,,,,,,,,,,,,,,,,,,,537.1536526998971,0.00032059988006949425,0.09756070002913475,543.1533888999838,6.0308596000541,543.3536804998294,543.3536804998294,0.08892949996516109,0.19756089989095926,6.030863199848682,549.4533714000136,549.4533714000136,549.4533714000136,0.08735909988172352,0.19747739983722568,555.153505000053,555.3536618000362,6.031073199817911,6.13105189986527,561.3533617998473,12.030840899795294,561.4533490999602,561.4533490999602,561.4866913999431,561.4866913999431,0.031023099785670638,0.13080819975584745,up,1.1279264001641423,562.6701976999175,4.429998807609081e-05,0.09785569994710386,568.6699270999525,568.6699270999525,568.6699270999525,0.008833699859678745,0.09766789991408587,6.0,1.690005699871108,,,,,,,,,,549.3534349000547,549.3534349000547,6569,Moral,2024-08-10_10h06.00.863,MoralCondition_v2,2022.2.5,30.018527443419686,
10,0,10,0,1,0,1,0,,,,,,,,,,,,,,,,,,,,,,,,,,,,,,,,,,,,,,,,,,,,,,,,,,,,,,,570.4035137000028,570.4035137000028,0.008111499948427081,0.09705820004455745,2.0,1.3900703999679536,,,,,,,,,,,,6569,Moral,2024-08-10_10h06.00.863,MoralCondition_v2,2022.2.5,30.018527443419686,
10,0,10,0,2,0,2,0,,,,,,,,,,,,,,,,,,,,,,,,,,,,,,,,,,,,,,,,,,,,,,,,,,,,,,,571.8364790999331,571.8364790999331,0.006842199945822358,0.09789890004321933,2.0,0.6588256000541151,,,,,,,,,,,,6569,Moral,2024-08-10_10h06.00.863,MoralCondition_v2,2022.2.5,30.018527443419686,
10,0,10,0,3,0,3,0,,,,,,,,,,,,,,,,,,,,,,,,,,,,,,,,,,,,,,,,,,,,,,,,,,,,,,,572.5367385998834,572.5367385998834,0.008814699947834015,0.09779469994828105,2.0,0.7904670999851078,,,,,,,,,,,,6569,Moral,2024-08-10_10h06.00.863,MoralCondition_v2,2022.2.5,30.018527443419686,
10,0,10,0,4,0,4,0,,,,,,,,,,,,,,,,,,,,,,,,,,,,,,,,,,,,,,,,,,,,,,,,,,,,,,,573.370102699846,573.370102699846,0.006352399941533804,0.09905459987930954,2.0,0.6270562999416143,,,,,,,,,,,,6569,Moral,2024-08-10_10h06.00.863,MoralCondition_v2,2022.2.5,30.018527443419686,
10,0,10,0,5,0,5,0,,,,,,,,,,,,,,,,,,,,,,,,,,,,,,,,,,,,,,,,,,,,,,,,,,,,,,,574.0367644999642,574.0367644999642,0.006653200136497617,0.09881910006515682,2.0,0.8931781998835504,,,,,,,,,,,,6569,Moral,2024-08-10_10h06.00.863,MoralCondition_v2,2022.2.5,30.018527443419686,
10,0,10,0,6,0,6,0,,,,,,,,,,,,,,,,,,,,,,,,,,,,,,,,,,,,,,,,,,,,,,,,,,,,,,,574.9698709000368,574.9698709000368,0.0063801000360399485,0.09952709986828268,5.0,1.8605907999444753,,,,,,,,,,,,6569,Moral,2024-08-10_10h06.00.863,MoralCondition_v2,2022.2.5,30.018527443419686,
10,0,10,0,,,,,,,,,,,,,,,,,,,,,,,,,,,,,,,,,,,,,,,,,,,,,,,,,,,,,,,,,,,,,,,,,576.8699230998755,576.8699230998755,0.0012079998850822449,0.09847859991714358,6.0,1.8002617000602186,,,,,,6569,Moral,2024-08-10_10h06.00.863,MoralCondition_v2,2022.2.5,30.018527443419686,
11,0,11,0,0,0,0,0,,,,,,,,,,,,,,,,,,,,,,578.7033309999388,0.00029790005646646023,0.0975951999425888,584.7199444000144,6.0143450000323355,584.886515500024,584.886515500024,0.07501769997179508,0.1809173000510782,6.0143130999058485,590.9866187998559,590.9866187998559,590.9866187998559,0.07248709979467094,0.18112779990769923,596.6868296000175,596.8865809999406,6.014253699919209,6.114229399943724,602.886525799986,12.014188599772751,602.986549400026,602.986549400026,603.0198707999662,603.0198707999662,0.014435999793931842,0.11418519983999431,down,0.9300846001133323,604.0032412998844,5.450006574392319e-05,0.09783479990437627,,610.0365625000559,610.0365625000559,0.02662170003168285,0.13105589989572763,5.0,1.3723318001721054,,,,,,,,,,590.8865900998935,590.8865900998935,6569,Moral,2024-08-10_10h06.00.863,MoralCondition_v2,2022.2.5,30.018527443419686,
11,0,11,0,1,0,1,0,,,,,,,,,,,,,,,,,,,,,,,,,,,,,,,,,,,,,,,,,,,,,,,,,,,,,,,611.436527099926,611.436527099926,0.007562199840322137,0.09787929989397526,5.0,1.4245968000032008,,,,,,,,,,,,6569,Moral,2024-08-10_10h06.00.863,MoralCondition_v2,2022.2.5,30.018527443419686,
11,0,11,0,2,0,2,0,,,,,,,,,,,,,,,,,,,,,,,,,,,,,,,,,,,,,,,,,,,,,,,,,,,,,,,612.9031096999533,612.9031096999533,0.007420499809086323,0.09777939994819462,2.0,2.558033499866724,,,,,,,,,,,,6569,Moral,2024-08-10_10h06.00.863,MoralCondition_v2,2022.2.5,30.018527443419686,
11,0,11,0,3,0,3,0,,,,,,,,,,,,,,,,,,,,,,,,,,,,,,,,,,,,,,,,,,,,,,,,,,,,,,,615.5197661998682,615.5197661998682,0.007999700028449297,0.11411460000090301,4.0,2.340457099955529,,,,,,,,,,,,6569,Moral,2024-08-10_10h06.00.863,MoralCondition_v2,2022.2.5,30.018527443419686,
11,0,11,0,4,0,4,0,,,,,,,,,,,,,,,,,,,,,,,,,,,,,,,,,,,,,,,,,,,,,,,,,,,,,,,617.9035368999466,617.9035368999466,0.010459999786689878,0.11406959989108145,3.0,1.7711516998242587,,,,,,,,,,,,6569,Moral,2024-08-10_10h06.00.863,MoralCondition_v2,2022.2.5,30.018527443419686,
11,0,11,0,5,0,5,0,,,,,,,,,,,,,,,,,,,,,,,,,,,,,,,,,,,,,,,,,,,,,,,,,,,,,,,619.7031447999179,619.7031447999179,0.0071696999948471785,0.09862300008535385,2.0,1.5925366999581456,,,,,,,,,,,,6569,Moral,2024-08-10_10h06.00.863,MoralCondition_v2,2022.2.5,30.018527443419686,
11,0,11,0,6,0,6,0,,,,,,,,,,,,,,,,,,,,,,,,,,,,,,,,,,,,,,,,,,,,,,,,,,,,,,,621.3365482999943,621.3365482999943,0.008065700065344572,0.09757820004597306,5.0,2.0571266000624746,,,,,,,,,,,,6569,Moral,2024-08-10_10h06.00.863,MoralCondition_v2,2022.2.5,30.018527443419686,
11,0,11,0,,,,,,,,,,,,,,,,,,,,,,,,,,,,,,,,,,,,,,,,,,,,,,,,,,,,,,,,,,,,,,,,,623.4366996998433,623.4366996998433,0.001604099990800023,0.09734800015576184,2.0,2.6323980998713523,,,,,,6569,Moral,2024-08-10_10h06.00.863,MoralCondition_v2,2022.2.5,30.018527443419686,
12,0,12,0,0,0,0,0,,,,,,,,,,,,,,,,,,,,,,626.1036050999537,0.00027139997109770775,0.09776090015657246,632.1197917000391,6.0144078999292105,632.2862598998472,632.2862598998472,0.07686659996397793,0.18108999985270202,6.014399999985471,638.3863973000553,638.3863973000553,638.3863973000553,0.07682339986786246,0.18131119990721345,644.086425999878,644.2863983998541,6.014394799945876,6.114405199885368,650.28641099995,12.014419799903408,650.38638299983,650.38638299983,650.4197221000213,650.4197221000213,0.014543099794536829,0.11446529976092279,down,1.074839800130576,651.5530109000392,4.67000063508749e-05,0.09781990014016628,,657.569589599967,657.569589599967,0.024481399916112423,0.11444470006972551,5.0,1.5909766999538988,,,,,,,,,,638.2863888000138,638.2863888000138,6569,Moral,2024-08-10_10h06.00.863,MoralCondition_v2,2022.2.5,30.018527443419686,
12,0,12,0,1,0,1,0,,,,,,,,,,,,,,,,,,,,,,,,,,,,,,,,,,,,,,,,,,,,,,,,,,,,,,,659.2030020998791,659.2030020998791,0.0072373999282717705,0.09748469991609454,2.0,1.4246048999484628,,,,,,,,,,,,6569,Moral,2024-08-10_10h06.00.863,MoralCondition_v2,2022.2.5,30.018527443419686,
12,0,12,0,2,0,2,0,,,,,,,,,,,,,,,,,,,,,,,,,,,,,,,,,,,,,,,,,,,,,,,,,,,,,,,660.686716399854,660.686716399854,0.008020900189876556,0.11413870006799698,2.0,0.6741410000249743,,,,,,,,,,,,6569,Moral,2024-08-10_10h06.00.863,MoralCondition_v2,2022.2.5,30.018527443419686,
12,0,12,0,3,0,3,0,,,,,,,,,,,,,,,,,,,,,,,,,,,,,,,,,,,,,,,,,,,,,,,,,,,,,,,661.386728100013,661.386728100013,0.006462600082159042,0.0988455000333488,4.0,1.660062899813056,,,,,,,,,,,,6569,Moral,2024-08-10_10h06.00.863,MoralCondition_v2,2022.2.5,30.018527443419686,
12,0,12,0,4,0,4,0,,,,,,,,,,,,,,,,,,,,,,,,,,,,,,,,,,,,,,,,,,,,,,,,,,,,,,,663.0861285999417,663.0861285999417,0.008256300119683146,0.09933990007266402,3.0,1.525462199933827,,,,,,,,,,,,6569,Moral,2024-08-10_10h06.00.863,MoralCondition_v2,2022.2.5,30.018527443419686,
12,0,12,0,5,0,5,0,,,,,,,,,,,,,,,,,,,,,,,,,,,,,,,,,,,,,,,,,,,,,,,,,,,,,,,664.653086300008,664.653086300008,0.007939000148326159,0.09788929997012019,2.0,1.2578394000884145,,,,,,,,,,,,6569,Moral,2024-08-10_10h06.00.863,MoralCondition_v2,2022.2.5,30.018527443419686,
12,0,12,0,6,0,6,0,,,,,,,,,,,,,,,,,,,,,,,,,,,,,,,,,,,,,,,,,,,,,,,,,,,,,,,665.9530191000085,665.9530191000085,0.006384300068020821,0.09901580004952848,4.0,2.0607636999338865,,,,,,,,,,,,6569,Moral,2024-08-10_10h06.00.863,MoralCondition_v2,2022.2.5,30.018527443419686,
12,0,12,0,,,,,,,,,,,,,,,,,,,,,,,,,,,,,,,,,,,,,,,,,,,,,,,,,,,,,,,,,,,,,,,,,668.0529793999158,668.0529793999158,0.0011787000112235546,0.09804710000753403,3.0,3.965095299994573,,,,,,6569,Moral,2024-08-10_10h06.00.863,MoralCondition_v2,2022.2.5,30.018527443419686,
13,0,13,0,0,0,0,0,,,,,,,,,,,,,,,,,,,,,,672.0529573999811,0.0002656998112797737,0.09766079997643828,678.0697119999677,6.014390699798241,678.236363499891,678.236363499891,0.07266259985044599,0.18123809969983995,6.014356699772179,684.3363752998412,684.3363752998412,684.3363752998412,0.07365799974650145,0.18126879958435893,690.0362104000524,690.2363745998591,6.014519499614835,6.114319899585098,696.2364201999735,12.014543499797583,696.3361519998871,696.3361519998871,696.3695540998597,696.3695540998597,0.01443609967827797,0.11430659960024059,down,1.5808508002664894,698.0028764000162,4.4899992644786835e-05,0.09803570015355945,704.0194736998528,704.0194736998528,704.0194736998528,0.00812400016002357,0.11472870013676584,3.0,2.274223200045526,,,,,,,,,,684.2362277000211,684.2362277000211,6569,Moral,2024-08-10_10h06.00.863,MoralCondition_v2,2022.2.5,30.018527443419686,
13,0,13,0,1,0,1,0,,,,,,,,,,,,,,,,,,,,,,,,,,,,,,,,,,,,,,,,,,,,,,,,,,,,,,,706.319624299882,706.319624299882,0.007315800059586763,0.09814180014654994,5.0,1.5585769000463188,,,,,,,,,,,,6569,Moral,2024-08-10_10h06.00.863,MoralCondition_v2,2022.2.5,30.018527443419686,
13,0,13,0,2,0,2,0,,,,,,,,,,,,,,,,,,,,,,,,,,,,,,,,,,,,,,,,,,,,,,,,,,,,,,,707.9195302999578,707.9195302999578,0.007312600035220385,0.09780450002290308,5.0,1.05827120016329,,,,,,,,,,,,6569,Moral,2024-08-10_10h06.00.863,MoralCondition_v2,2022.2.5,30.018527443419686,
13,0,13,0,3,0,3,0,,,,,,,,,,,,,,,,,,,,,,,,,,,,,,,,,,,,,,,,,,,,,,,,,,,,,,,709.0193745000288,709.0193745000288,0.007581699872389436,0.0980545999482274,5.0,0.9914228999987245,,,,,,,,,,,,6569,Moral,2024-08-10_10h06.00.863,MoralCondition_v2,2022.2.5,30.018527443419686,
13,0,13,0,4,0,4,0,,,,,,,,,,,,,,,,,,,,,,,,,,,,,,,,,,,,,,,,,,,,,,,,,,,,,,,710.0527945999056,710.0527945999056,0.007086799945682287,0.09797120001167059,3.0,1.5586680001579225,,,,,,,,,,,,6569,Moral,2024-08-10_10h06.00.863,MoralCondition_v2,2022.2.5,30.018527443419686,
13,0,13,0,5,0,5,0,,,,,,,,,,,,,,,,,,,,,,,,,,,,,,,,,,,,,,,,,,,,,,,,,,,,,,,711.6528497999534,711.6528497999534,0.006460099946707487,0.09924419992603362,2.0,1.6602839000988752,,,,,,,,,,,,6569,Moral,2024-08-10_10h06.00.863,MoralCondition_v2,2022.2.5,30.018527443419686,
13,0,13,0,6,0,6,0,,,,,,,,,,,,,,,,,,,,,,,,,,,,,,,,,,,,,,,,,,,,,,,,,,,,,,,713.3529650999699,713.3529650999699,0.007363099837675691,0.09765699994750321,4.0,2.4911817999091,,,,,,,,,,,,6569,Moral,2024-08-10_10h06.00.863,MoralCondition_v2,2022.2.5,30.018527443419686,
13,0,13,0,,,,,,,,,,,,,,,,,,,,,,,,,,,,,,,,,,,,,,,,,,,,,,,,,,,,,,,,,,,,,,,,,715.8862381000072,715.8862381000072,0.000682000070810318,0.0992608000524342,2.0,2.19959930004552,,,,,,6569,Moral,2024-08-10_10h06.00.863,MoralCondition_v2,2022.2.5,30.018527443419686,
14,0,14,0,0,0,0,0,,,,,,,,,,,,,,,,,,,,,,718.1197087999899,0.00030589988455176353,0.09772759978659451,724.1363021999132,6.014445799868554,724.3025845999364,724.3025845999364,0.07628509984351695,0.1810791997704655,6.014415599871427,730.4027501000091,730.4027501000091,730.4027501000091,0.07529279962182045,0.1813774995971471,736.1028213999234,736.3027311998885,6.014411199605092,6.114412999711931,742.3026898000389,12.01438789977692,742.3858779999427,742.3858779999427,742.419123099884,742.419123099884,0.014194599585607648,0.09755789954215288,down,0.41918840003199875,742.9030573999044,6.160000339150429e-05,0.09772600000724196,,748.9192702998407,748.9192702998407,0.02329830010421574,0.11396789993159473,3.0,1.39180519990623,,,,,,,,,,730.3027460998856,730.3027460998856,6569,Moral,2024-08-10_10h06.00.863,MoralCondition_v2,2022.2.5,30.018527443419686,
14,0,14,0,1,0,1,0,,,,,,,,,,,,,,,,,,,,,,,,,,,,,,,,,,,,,,,,,,,,,,,,,,,,,,,750.3526308999863,750.3526308999863,0.006709299981594086,0.09913169988431036,5.0,1.2271860998589545,,,,,,,,,,,,6569,Moral,2024-08-10_10h06.00.863,MoralCondition_v2,2022.2.5,30.018527443419686,
14,0,14,0,2,0,2,0,,,,,,,,,,,,,,,,,,,,,,,,,,,,,,,,,,,,,,,,,,,,,,,,,,,,,,,751.6364211000036,751.6364211000036,0.007982400013133883,0.11471270001493394,5.0,1.174171500140801,,,,,,,,,,,,6569,Moral,2024-08-10_10h06.00.863,MoralCondition_v2,2022.2.5,30.018527443419686,
14,0,14,0,3,0,3,0,,,,,,,,,,,,,,,,,,,,,,,,,,,,,,,,,,,,,,,,,,,,,,,,,,,,,,,752.8358829000499,752.8358829000499,0.006598500069230795,0.09900559997186065,5.0,0.9267278001643717,,,,,,,,,,,,6569,Moral,2024-08-10_10h06.00.863,MoralCondition_v2,2022.2.5,30.018527443419686,
14,0,14,0,4,0,4,0,,,,,,,,,,,,,,,,,,,,,,,,,,,,,,,,,,,,,,,,,,,,,,,,,,,,,,,753.8027059999295,753.8027059999295,0.006577300140634179,0.09910370013676584,3.0,1.2934693999122828,,,,,,,,,,,,6569,Moral,2024-08-10_10h06.00.863,MoralCondition_v2,2022.2.5,30.018527443419686,
14,0,14,0,5,0,5,0,,,,,,,,,,,,,,,,,,,,,,,,,,,,,,,,,,,,,,,,,,,,,,,,,,,,,,,755.1359965999145,755.1359965999145,0.0069009000435471535,0.09758669999428093,2.0,0.7918233000673354,,,,,,,,,,,,6569,Moral,2024-08-10_10h06.00.863,MoralCondition_v2,2022.2.5,30.018527443419686,
14,0,14,0,6,0,6,0,,,,,,,,,,,,,,,,,,,,,,,,,,,,,,,,,,,,,,,,,,,,,,,,,,,,,,,755.9861697000451,755.9861697000451,0.008376300102099776,0.11461729998700321,2.0,0.5069347999524325,,,,,,,,,,,,6569,Moral,2024-08-10_10h06.00.863,MoralCondition_v2,2022.2.5,30.018527443419686,
14,0,14,0,,,,,,,,,,,,,,,,,,,,,,,,,,,,,,,,,,,,,,,,,,,,,,,,,,,,,,,,,,,,,,,,,756.5192022998817,756.5192022998817,0.0011996000539511442,0.09776469995267689,2.0,4.664424199843779,,,,,,6569,Moral,2024-08-10_10h06.00.863,MoralCondition_v2,2022.2.5,30.018527443419686,
15,0,15,0,0,0,0,0,,,,,,,,,,,,,,,,,,,,,,761.2195307000075,0.00015600002370774746,0.09914380009286106,767.2359137998428,6.015788500197232,767.4027183998842,767.4027183998842,0.07147770002484322,0.18255929998122156,6.015835199970752,773.5027101000305,773.5027101000305,773.5027101000305,0.07269759988412261,0.18271239986643195,779.20255359984,779.4025735999458,6.015857499791309,6.115872499998659,785.402517199982,12.015766599914059,785.5025265999138,785.5025265999138,785.5358275000472,785.5358275000472,0.015993999782949686,0.1157316998578608,up,0.48697270010598004,786.0691924998537,4.789978265762329e-05,0.09805809985846281,,792.0859723999165,792.0859723999165,0.02466879994608462,0.11470119981095195,2.0,1.757848200155422,,,,,,,,,,773.4025504998863,773.4025504998863,6569,Moral,2024-08-10_10h06.00.863,MoralCondition_v2,2022.2.5,30.018527443419686,
15,0,15,0,1,0,1,0,,,,,,,,,,,,,,,,,,,,,,,,,,,,,,,,,,,,,,,,,,,,,,,,,,,,,,,793.8856860999949,793.8856860999949,0.006487600039690733,0.09898010012693703,2.0,0.593576000072062,,,,,,,,,,,,6569,Moral,2024-08-10_10h06.00.863,MoralCondition_v2,2022.2.5,30.018527443419686,
15,0,15,0,2,0,2,0,,,,,,,,,,,,,,,,,,,,,,,,,,,,,,,,,,,,,,,,,,,,,,,,,,,,,,,794.5192427998409,794.5192427998409,0.007162699941545725,0.09940209984779358,2.0,0.7929926998913288,,,,,,,,,,,,6569,Moral,2024-08-10_10h06.00.863,MoralCondition_v2,2022.2.5,30.018527443419686,
15,0,15,0,3,0,3,0,,,,,,,,,,,,,,,,,,,,,,,,,,,,,,,,,,,,,,,,,,,,,,,,,,,,,,,795.3692632999737,795.3692632999737,0.008440400008112192,0.11416639992967248,5.0,1.7072587998118252,,,,,,,,,,,,6569,Moral,2024-08-10_10h06.00.863,MoralCondition_v2,2022.2.5,30.018527443419686,
15,0,15,0,4,0,4,0,,,,,,,,,,,,,,,,,,,,,,,,,,,,,,,,,,,,,,,,,,,,,,,,,,,,,,,797.1025427998975,797.1025427998975,0.007286699954420328,0.0981330000795424,2.0,1.1917389000300318,,,,,,,,,,,,6569,Moral,2024-08-10_10h06.00.863,MoralCondition_v2,2022.2.5,30.018527443419686,
15,0,15,0,5,0,5,0,,,,,,,,,,,,,,,,,,,,,,,,,,,,,,,,,,,,,,,,,,,,,,,,,,,,,,,798.3359162998386,798.3359162998386,0.006813900079578161,0.09890920016914606,2.0,0.8923979999963194,,,,,,,,,,,,6569,Moral,2024-08-10_10h06.00.863,MoralCondition_v2,2022.2.5,30.018527443419686,
15,0,15,0,6,0,6,0,,,,,,,,,,,,,,,,,,,,,,,,,,,,,,,,,,,,,,,,,,,,,,,,,,,,,,,799.2691724000033,799.2691724000033,0.007332999957725406,0.0977356000803411,6.0,1.5582942999899387,,,,,,,,,,,,6569,Moral,2024-08-10_10h06.00.863,MoralCondition_v2,2022.2.5,30.018527443419686,
15,0,15,0,,,,,,,,,,,,,,,,,,,,,,,,,,,,,,,,,,,,,,,,,,,,,,,,,,,,,,,,,,,,,,,,,800.8690486999694,800.8690486999694,0.0012646999675780535,0.09800610016100109,6.0,1.9646302999462932,,,,,,6569,Moral,2024-08-10_10h06.00.863,MoralCondition_v2,2022.2.5,30.018527443419686,
16,0,16,0,0,0,0,0,,,,,,,,,,,,,,,,,,,,,,802.8694225999061,0.0002889998722821474,0.09783959994092584,808.8689971999265,6.030856099911034,809.0522559999954,809.0522559999954,0.06912979972548783,0.18106419988907874,6.014217699877918,815.1524541999679,815.1524541999679,815.1524541999679,0.0681909997947514,0.18119829962961376,820.8523607000243,821.0523632999975,6.0142754996195436,6.114284799667075,827.0526884999126,12.014606099808589,827.152310000034,827.152310000034,827.1856610998511,827.1856610998511,0.014378699706867337,0.11420869966968894,down,0.5492418000940233,827.7858092999086,4.109996370971203e-05,0.09800069988705218,833.802302399883,833.802302399883,833.802302399883,0.011956400005146861,0.1145835998468101,5.0,1.9034140000585467,,,,,,,,,,815.0524124000221,815.0524124000221,6569,Moral,2024-08-10_10h06.00.863,MoralCondition_v2,2022.2.5,30.018527443419686,
16,0,16,0,1,0,1,0,,,,,,,,,,,,,,,,,,,,,,,,,,,,,,,,,,,,,,,,,,,,,,,,,,,,,,,835.752557599917,835.752557599917,0.008537400048226118,0.1140924000646919,3.0,1.9398311998229474,,,,,,,,,,,,6569,Moral,2024-08-10_10h06.00.863,MoralCondition_v2,2022.2.5,30.018527443419686,
16,0,16,0,2,0,2,0,,,,,,,,,,,,,,,,,,,,,,,,,,,,,,,,,,,,,,,,,,,,,,,,,,,,,,,837.7189670999069,837.7189670999069,0.007615499896928668,0.09928359999321401,4.0,1.8593268000986427,,,,,,,,,,,,6569,Moral,2024-08-10_10h06.00.863,MoralCondition_v2,2022.2.5,30.018527443419686,
16,0,16,0,3,0,3,0,,,,,,,,,,,,,,,,,,,,,,,,,,,,,,,,,,,,,,,,,,,,,,,,,,,,,,,839.6189975999296,839.6189975999296,0.008000100031495094,0.09824050008319318,3.0,1.524043699959293,,,,,,,,,,,,6569,Moral,2024-08-10_10h06.00.863,MoralCondition_v2,2022.2.5,30.018527443419686,
16,0,16,0,4,0,4,0,,,,,,,,,,,,,,,,,,,,,,,,,,,,,,,,,,,,,,,,,,,,,,,,,,,,,,,841.202422299888,841.202422299888,0.007841299986466765,0.11429270007647574,6.0,1.57394630019553,,,,,,,,,,,,6569,Moral,2024-08-10_10h06.00.863,MoralCondition_v2,2022.2.5,30.018527443419686,
16,0,16,0,5,0,5,0,,,,,,,,,,,,,,,,,,,,,,,,,,,,,,,,,,,,,,,,,,,,,,,,,,,,,,,842.8022849999834,842.8022849999834,0.007561499951407313,0.09770059981383383,2.0,1.7908625998534262,,,,,,,,,,,,6569,Moral,2024-08-10_10h06.00.863,MoralCondition_v2,2022.2.5,30.018527443419686,
16,0,16,0,6,0,6,0,,,,,,,,,,,,,,,,,,,,,,,,,,,,,,,,,,,,,,,,,,,,,,,,,,,,,,,844.6357376000378,844.6357376000378,0.0068510000128299,0.09925230010412633,2.0,0.6266733999364078,,,,,,,,,,,,6569,Moral,2024-08-10_10h06.00.863,MoralCondition_v2,2022.2.5,30.018527443419686,
16,0,16,0,,,,,,,,,,,,,,,,,,,,,,,,,,,,,,,,,,,,,,,,,,,,,,,,,,,,,,,,,,,,,,,,,845.3023957000114,845.3023957000114,0.0007122999522835016,0.09918370004743338,3.0,2.199608900118619,,,,,,6569,Moral,2024-08-10_10h06.00.863,MoralCondition_v2,2022.2.5,30.018527443419686,
17,0,17,0,0,0,0,0,,,,,,,,,,,,,,,,,,,,,,847.5358994000126,0.0003385001327842474,0.09769379999488592,853.5522606999148,6.014348100172356,853.7187544000335,853.7187544000335,0.07044290006160736,0.18099589995108545,6.014334100065753,859.8192208998371,859.8192208998371,859.8192208998371,0.07159710000269115,0.18119209981523454,865.5191389999818,865.7190002000425,6.014461799990386,6.114275899948552,871.7188416998833,12.014366499846801,871.8188411998563,871.8188411998563,871.8521594000049,871.8521594000049,0.014461899874731898,0.1142717998009175,up,0.5786829001735896,872.4855205998756,4.569999873638153e-05,0.0980114999692887,878.4852509999182,878.4852509999182,878.4852509999182,0.008762900019064546,0.09796379995532334,2.0,2.056952000129968,,,,,,,,,,859.7188577998895,859.7188577998895,6569,Moral,2024-08-10_10h06.00.863,MoralCondition_v2,2022.2.5,30.018527443419686,
17,0,17,0,1,0,1,0,,,,,,,,,,,,,,,,,,,,,,,,,,,,,,,,,,,,,,,,,,,,,,,,,,,,,,,880.5855035998393,880.5855035998393,0.006661599967628717,0.0989067000336945,2.0,0.6599723000545055,,,,,,,,,,,,6569,Moral,2024-08-10_10h06.00.863,MoralCondition_v2,2022.2.5,30.018527443419686,
17,0,17,0,2,0,2,0,,,,,,,,,,,,,,,,,,,,,,,,,,,,,,,,,,,,,,,,,,,,,,,,,,,,,,,881.3023104998283,881.3023104998283,0.008896899875253439,0.11446459987200797,5.0,1.4064535999204963,,,,,,,,,,,,6569,Moral,2024-08-10_10h06.00.863,MoralCondition_v2,2022.2.5,30.018527443419686,
17,0,17,0,3,0,3,0,,,,,,,,,,,,,,,,,,,,,,,,,,,,,,,,,,,,,,,,,,,,,,,,,,,,,,,882.7355501998682,882.7355501998682,0.0074616000056266785,0.09768330003134906,2.0,1.657882999861613,,,,,,,,,,,,6569,Moral,2024-08-10_10h06.00.863,MoralCondition_v2,2022.2.5,30.018527443419686,
17,0,17,0,4,0,4,0,,,,,,,,,,,,,,,,,,,,,,,,,,,,,,,,,,,,,,,,,,,,,,,,,,,,,,,884.4522927999496,884.4522927999496,0.007876500021666288,0.11427729995921254,2.0,0.6405368000268936,,,,,,,,,,,,6569,Moral,2024-08-10_10h06.00.863,MoralCondition_v2,2022.2.5,30.018527443419686,
17,0,17,0,5,0,5,0,,,,,,,,,,,,,,,,,,,,,,,,,,,,,,,,,,,,,,,,,,,,,,,,,,,,,,,885.1188219999894,885.1188219999894,0.0077535000164061785,0.09942089999094605,6.0,1.2928259000182152,,,,,,,,,,,,6569,Moral,2024-08-10_10h06.00.863,MoralCondition_v2,2022.2.5,30.018527443419686,
17,0,17,0,6,0,6,0,,,,,,,,,,,,,,,,,,,,,,,,,,,,,,,,,,,,,,,,,,,,,,,,,,,,,,,886.4519956998993,886.4519956998993,0.008951100055128336,0.09870530012995005,2.0,2.1910159001126885,,,,,,,,,,,,6569,Moral,2024-08-10_10h06.00.863,MoralCondition_v2,2022.2.5,30.018527443419686,
17,0,17,0,,,,,,,,,,,,,,,,,,,,,,,,,,,,,,,,,,,,,,,,,,,,,,,,,,,,,,,,,,,,,,,,,888.6855631000362,888.6855631000362,0.0006610001437366009,0.09924060013145208,6.0,2.2330585999879986,,,,,,6569,Moral,2024-08-10_10h06.00.863,MoralCondition_v2,2022.2.5,30.018527443419686,
18,0,18,0,0,0,0,0,,,,,,,,,,,,,,,,,,,,,,890.9523479999043,0.0003597000613808632,0.09778270008973777,896.9687552000396,6.014321300201118,897.1355141999666,897.1355141999666,0.06917420006357133,0.18118750001303852,6.014397900085896,903.2354637999088,903.2354637999088,903.2354637999088,0.06857579993084073,0.1809431998990476,908.9353350000456,909.1353482999839,6.014299399917945,6.114242099924013,915.1353410999291,12.014322299975902,915.2353117000312,915.2353117000312,915.2686421000399,915.2686421000399,0.014485999708995223,0.11422879970632493,up,0.4493442000821233,915.7520921998657,5.110003985464573e-05,0.09792990004643798,921.7517574999947,921.7517574999947,921.7517574999947,0.004818599903956056,0.09757869993336499,2.0,1.760570599930361,,,,,,,,,,903.1353653999977,903.1353653999977,6569,Moral,2024-08-10_10h06.00.863,MoralCondition_v2,2022.2.5,30.018527443419686,
18,0,18,0,1,0,1,0,,,,,,,,,,,,,,,,,,,,,,,,,,,,,,,,,,,,,,,,,,,,,,,,,,,,,,,923.5685562998988,923.5685562998988,0.01003329991362989,0.11386730009689927,5.0,1.3382730998564512,,,,,,,,,,,,6569,Moral,2024-08-10_10h06.00.863,MoralCondition_v2,2022.2.5,30.018527443419686,
18,0,18,0,2,0,2,0,,,,,,,,,,,,,,,,,,,,,,,,,,,,,,,,,,,,,,,,,,,,,,,,,,,,,,,924.935214899946,924.935214899946,0.007681999821215868,0.09766119997948408,2.0,0.9908946000505239,,,,,,,,,,,,6569,Moral,2024-08-10_10h06.00.863,MoralCondition_v2,2022.2.5,30.018527443419686,
18,0,18,0,3,0,3,0,,,,,,,,,,,,,,,,,,,,,,,,,,,,,,,,,,,,,,,,,,,,,,,,,,,,,,,925.9854476000182,925.9854476000182,0.008505000034347177,0.114373599877581,6.0,1.4736369999591261,,,,,,,,,,,,6569,Moral,2024-08-10_10h06.00.863,MoralCondition_v2,2022.2.5,30.018527443419686,
18,0,18,0,4,0,4,0,,,,,,,,,,,,,,,,,,,,,,,,,,,,,,,,,,,,,,,,,,,,,,,,,,,,,,,927.4854106998537,927.4854106998537,0.007266699802130461,0.09776969999074936,2.0,0.9583024999592453,,,,,,,,,,,,6569,Moral,2024-08-10_10h06.00.863,MoralCondition_v2,2022.2.5,30.018527443419686,
18,0,18,0,5,0,5,0,,,,,,,,,,,,,,,,,,,,,,,,,,,,,,,,,,,,,,,,,,,,,,,,,,,,,,,928.4853188998532,928.4853188998532,0.006799499969929457,0.0993673000484705,2.0,0.8601309000514448,,,,,,,,,,,,6569,Moral,2024-08-10_10h06.00.863,MoralCondition_v2,2022.2.5,30.018527443419686,
18,0,18,0,6,0,6,0,,,,,,,,,,,,,,,,,,,,,,,,,,,,,,,,,,,,,,,,,,,,,,,,,,,,,,,929.4020926998928,929.4020926998928,0.007741300156340003,0.11450150003656745,2.0,0.8077251999638975,,,,,,,,,,,,6569,Moral,2024-08-10_10h06.00.863,MoralCondition_v2,2022.2.5,30.018527443419686,
18,0,18,0,,,,,,,,,,,,,,,,,,,,,,,,,,,,,,,,,,,,,,,,,,,,,,,,,,,,,,,,,,,,,,,,,930.2352902998682,930.2352902998682,0.0007096000481396914,0.09928930015303195,6.0,1.8995368999894708,,,,,,6569,Moral,2024-08-10_10h06.00.863,MoralCondition_v2,2022.2.5,30.018527443419686,
19,0,19,0,0,0,0,0,,,,,,,,,,,,,,,,,,,,,,932.1689138000365,0.0002812999300658703,0.09776609996333718,938.1685716998763,6.0310448000673205,938.3522260000464,938.3522260000464,0.0766028999350965,0.18116909987293184,6.014469699934125,944.4520004999358,944.4520004999358,944.4520004999358,0.07530129980295897,0.18100069975480437,950.1518872999586,950.3518307998311,6.014296099776402,6.114377799909562,956.3518429000396,12.014324399875477,956.4518472000491,956.4518472000491,956.4853409000207,956.4853409000207,0.014503199839964509,0.11409679963253438,up,0.43259140010923147,956.9518485998269,5.579995922744274e-05,0.09768379991874099,,962.9853650999721,962.9853650999721,0.025361400097608566,0.1310318000614643,6.0,1.3065303000621498,,,,,,,,,,944.351875500055,944.351875500055,6569,Moral,2024-08-10_10h06.00.863,MoralCondition_v2,2022.2.5,30.018527443419686,
19,0,19,0,1,0,1,0,,,,,,,,,,,,,,,,,,,,,,,,,,,,,,,,,,,,,,,,,,,,,,,,,,,,,,,964.3352083999198,964.3352083999198,0.008612199919298291,0.11475369986146688,6.0,0.7405469000805169,,,,,,,,,,,,6569,Moral,2024-08-10_10h06.00.863,MoralCondition_v2,2022.2.5,30.018527443419686,
19,0,19,0,2,0,2,0,,,,,,,,,,,,,,,,,,,,,,,,,,,,,,,,,,,,,,,,,,,,,,,,,,,,,,,965.1018578000367,965.1018578000367,0.0072287998627871275,0.09785369993187487,2.0,1.2918401998467743,,,,,,,,,,,,6569,Moral,2024-08-10_10h06.00.863,MoralCondition_v2,2022.2.5,30.018527443419686,
19,0,19,0,3,0,3,0,,,,,,,,,,,,,,,,,,,,,,,,,,,,,,,,,,,,,,,,,,,,,,,,,,,,,,,966.4350268000271,966.4350268000271,0.006795200053602457,0.09918130002915859,2.0,0.39366609998978674,,,,,,,,,,,,6569,Moral,2024-08-10_10h06.00.863,MoralCondition_v2,2022.2.5,30.018527443419686,
19,0,19,0,4,0,4,0,,,,,,,,,,,,,,,,,,,,,,,,,,,,,,,,,,,,,,,,,,,,,,,,,,,,,,,966.8684716999996,966.8684716999996,0.009188700001686811,0.09929569996893406,2.0,0.49102730001322925,,,,,,,,,,,,6569,Moral,2024-08-10_10h06.00.863,MoralCondition_v2,2022.2.5,30.018527443419686,
19,0,19,0,5,0,5,0,,,,,,,,,,,,,,,,,,,,,,,,,,,,,,,,,,,,,,,,,,,,,,,,,,,,,,,967.418502900051,967.418502900051,0.009537899866700172,0.11423909990116954,2.0,0.4388566999696195,,,,,,,,,,,,6569,Moral,2024-08-10_10h06.00.863,MoralCondition_v2,2022.2.5,30.018527443419686,
19,0,19,0,6,0,6,0,,,,,,,,,,,,,,,,,,,,,,,,,,,,,,,,,,,,,,,,,,,,,,,,,,,,,,,967.885249099927,967.885249099927,0.006769699975848198,0.09912010002881289,2.0,0.5600787999574095,,,,,,,,,,,,6569,Moral,2024-08-10_10h06.00.863,MoralCondition_v2,2022.2.5,30.018527443419686,
19,0,19,0,,,,,,,,,,,,,,,,,,,,,,,,,,,,,,,,,,,,,,,,,,,,,,,,,,,,,,,,,,,,,,,,,968.4853445000481,968.4853445000481,0.0007217000238597393,0.09940720000304282,6.0,1.4993813999462873,,,,,,6569,Moral,2024-08-10_10h06.00.863,MoralCondition_v2,2022.2.5,30.018527443419686,
