loop.thisRepN,loop.thisTrialN,loop.thisN,loop.thisIndex,evaluate_all_emotions.thisRepN,evaluate_all_emotions.thisTrialN,evaluate_all_emotions.thisN,evaluate_all_emotions.thisIndex,sync_beep_1.started,p_port.started,p_port.stopped,sync_beep_1.stopped,sync_beep_2.started,sync_beep_2.stopped,sync_beep_3.started,sync_beep_4.started,sync_beep_4.stopped,baseline.started,p_port_2.started,p_port_2.stopped,baseline.stopped,p_port_3.started,p_port_3.stopped,Game_Start_Text.started,p_port_4.started,p_port_4.stopped,key_resp.started,key_resp.keys,key_resp.rt,fixation_cross.started,p_port_5.started,p_port_5.stopped,fixation_cross.stopped,p_port_6.started,player_image_intro.started,player_name_intro.started,p_port_7.started,p_port_7.stopped,p_port_8.started,player_image_offer.started,player_name_offer.started,proposed_split.started,p_port_9.started,p_port_9.stopped,proposed_split.stopped,accept_reject.started,p_port_15.started,p_port_15.stopped,accept_reject.stopped,p_port_10.started,arrow_instructions.started,offer_choice.started,p_port_11.started,p_port_11.stopped,offer_choice.keys,offer_choice.rt,Instructions_Affinity_Score.started,p_port_12.started,p_port_12.stopped,Instructions_Affinity_Score.stopped,Emotion_Image.started,AffinityScore.started,p_port_13.started,p_port_13.stopped,AffinityScore.response,AffinityScore.rt,Instruction.started,Moral_Disgust_Score.started,p_port_14.started,p_port_14.stopped,Moral_Disgust_Score.response,Moral_Disgust_Score.rt,player_image_intro.stopped,player_name_intro.stopped,player_image_offer.stopped,player_name_offer.stopped,p_port_6.stopped,p_port_8.stopped,p_port_10.stopped,participant,session,date,expName,psychopyVersion,frameRate,
,,,,,,,,28.323106195777655,0.0008533000946044922,0.10083690099418163,28.640222100540996,28.906603019498288,29.20661609992385,29.50654092039913,30.10661651920527,30.42330309934914,30.42330309934914,0.017646601423621178,0.11772840097546577,45.40656000003219,15.00095490179956,15.084297500550747,45.52358849905431,0.017994200810790062,0.11766610108315945,46.02338100038469,space,2.2698905020952225,,,,,,,,,,,,,,,,,,,,,,,,,,,,,,,,,,,,,,,,,,,,,,,,,,,6664,Moral,2024-07-08_10h56.39.255,MoralCondition_v2,2022.2.5,30.037886658803874,
0,0,0,0,0,0,0,0,,,,,,,,,,,,,,,,,,,,,,48.34013669937849,0.0018013007938861847,0.09841769933700562,54.34003029949963,6.03169790096581,54.590187799185514,54.590187799185514,0.11693990044295788,0.24820800125598907,6.0149071011692286,60.6567297000438,60.6567297000438,60.6567297000438,0.08055710047483444,0.21508620120584965,66.35665619932115,66.52330769971013,6.014951700344682,6.11492140032351,72.52342510037124,12.01511250063777,72.65679690055549,72.65679690055549,0.01516670174896717,0.11486220173537731,up,3.172997899353504,75.89004809968174,5.6298449635505676e-05,0.09754589945077896,81.90659379959106,81.90659379959106,81.90659379959106,0.0078113991767168045,0.11435939930379391,2.0,9.424438199028373,,,,,,,,,,,,,,6664,Moral,2024-07-08_10h56.39.255,MoralCondition_v2,2022.2.5,30.037886658803874,
0,0,0,0,1,0,1,0,,,,,,,,,,,,,,,,,,,,,,,,,,,,,,,,,,,,,,,,,,,,,,,,,,,,,91.35659969970584,91.35659969970584,0.009133901447057724,0.09892320074141026,3.0,17.690975800156593,,,,,,,,,,,,,,6664,Moral,2024-07-08_10h56.39.255,MoralCondition_v2,2022.2.5,30.037886658803874,
0,0,0,0,2,0,2,0,,,,,,,,,,,,,,,,,,,,,,,,,,,,,,,,,,,,,,,,,,,,,,,,,,,,,109.08982400037348,109.08982400037348,0.008917100727558136,0.09807679988443851,1.0,5.623682800680399,,,,,,,,,,,,,,6664,Moral,2024-07-08_10h56.39.255,MoralCondition_v2,2022.2.5,30.037886658803874,
0,0,0,0,3,0,3,0,,,,,,,,,,,,,,,,,,,,,,,,,,,,,,,,,,,,,,,,,,,,,,,,,,,,,114.77338179945946,114.77338179945946,0.01739249937236309,0.115642499178648,1.0,3.0327655002474785,,,,,,,,,,,,,,6664,Moral,2024-07-08_10h56.39.255,MoralCondition_v2,2022.2.5,30.037886658803874,
0,0,0,0,4,0,4,0,,,,,,,,,,,,,,,,,,,,,,,,,,,,,,,,,,,,,,,,,,,,,,,,,,,,,117.83985519967973,117.83985519967973,0.008966399356722832,0.0992760993540287,5.0,4.5583017989993095,,,,,,,,,,,,,,6664,Moral,2024-07-08_10h56.39.255,MoralCondition_v2,2022.2.5,30.037886658803874,
0,0,0,0,5,0,5,0,,,,,,,,,,,,,,,,,,,,,,,,,,,,,,,,,,,,,,,,,,,,,,,,,,,,,122.45660310052335,122.45660310052335,0.012509200721979141,0.11455820128321648,1.0,3.4034098014235497,,,,,,,,,,,,,,6664,Moral,2024-07-08_10h56.39.255,MoralCondition_v2,2022.2.5,30.037886658803874,
0,0,0,0,6,0,6,0,,,,,,,,,,,,,,,,,,,,,,,,,,,,,,,,,,,,,,,,,,,,,,,,,,,,,125.90687029995024,125.90687029995024,0.011316001415252686,0.11416260153055191,1.0,1.7036889996379614,,,,,,,,,,,,,,6664,Moral,2024-07-08_10h56.39.255,MoralCondition_v2,2022.2.5,30.037886658803874,
0,0,0,0,,,,,,,,,,,,,,,,,,,,,,,,,,,,,,,,,,,,,,,,,,,,,,,,,,,,,,,,,,,,,,,127.63988620042801,127.63988620042801,0.001529701054096222,0.0976864006370306,6.0,12.197320699691772,,,,,,,,6664,Moral,2024-07-08_10h56.39.255,MoralCondition_v2,2022.2.5,30.037886658803874,
1,0,1,0,0,0,0,0,,,,,,,,,,,,,,,,,,,,,,139.8734137993306,0.0002579987049102783,0.09783229976892471,145.8898159004748,6.014612698927522,146.07304090075195,146.07304090075195,0.08668649941682816,0.19773569889366627,6.031099699437618,152.15652479976416,152.15652479976416,152.15652479976416,0.08384530059993267,0.18108429946005344,157.85649389959872,158.05658149905503,6.014528900384903,6.114452600479126,164.05645629949868,12.014487499371171,164.18979850038886,164.18979850038886,0.014626400545239449,0.11434669978916645,down,0.7670721001923084,165.00648009963334,4.5301392674446106e-05,0.09795220009982586,,171.023060599342,171.023060599342,0.023842500522732735,0.11457480117678642,2.0,4.791976001113653,,,,,,,152.0733110997826,152.0733110997826,164.15648720040917,164.15648720040917,,,,6664,Moral,2024-07-08_10h56.39.255,MoralCondition_v2,2022.2.5,30.037886658803874,
1,0,1,0,1,0,1,0,,,,,,,,,,,,,,,,,,,,,,,,,,,,,,,,,,,,,,,,,,,,,,,,,,,,,175.85647770017385,175.85647770017385,0.006870299577713013,0.09922190010547638,6.0,5.626668898388743,,,,,,,,,,,,,,6664,Moral,2024-07-08_10h56.39.255,MoralCondition_v2,2022.2.5,30.037886658803874,
1,0,1,0,2,0,2,0,,,,,,,,,,,,,,,,,,,,,,,,,,,,,,,,,,,,,,,,,,,,,,,,,,,,,181.54007060080767,181.54007060080767,0.007703401148319244,0.11418789997696877,5.0,9.740980200469494,,,,,,,,,,,,,,6664,Moral,2024-07-08_10h56.39.255,MoralCondition_v2,2022.2.5,30.037886658803874,
1,0,1,0,3,0,3,0,,,,,,,,,,,,,,,,,,,,,,,,,,,,,,,,,,,,,,,,,,,,,,,,,,,,,191.306386500597,191.306386500597,0.007485698908567429,0.09749399870634079,1.0,1.9261004999279976,,,,,,,,,,,,,,6664,Moral,2024-07-08_10h56.39.255,MoralCondition_v2,2022.2.5,30.037886658803874,
1,0,1,0,4,0,4,0,,,,,,,,,,,,,,,,,,,,,,,,,,,,,,,,,,,,,,,,,,,,,,,,,,,,,193.27298050001264,193.27298050001264,0.008274700492620468,0.0982678011059761,4.0,3.7577553000301123,,,,,,,,,,,,,,6664,Moral,2024-07-08_10h56.39.255,MoralCondition_v2,2022.2.5,30.037886658803874,
1,0,1,0,5,0,5,0,,,,,,,,,,,,,,,,,,,,,,,,,,,,,,,,,,,,,,,,,,,,,,,,,,,,,197.0730716995895,197.0730716995895,0.00706540048122406,0.09924869984388351,1.0,1.4931195005774498,,,,,,,,,,,,,,6664,Moral,2024-07-08_10h56.39.255,MoralCondition_v2,2022.2.5,30.037886658803874,
1,0,1,0,6,0,6,0,,,,,,,,,,,,,,,,,,,,,,,,,,,,,,,,,,,,,,,,,,,,,,,,,,,,,198.6063905004412,198.6063905004412,0.00737369991838932,0.09914389997720718,1.0,2.526138899847865,,,,,,,,,,,,,,6664,Moral,2024-07-08_10h56.39.255,MoralCondition_v2,2022.2.5,30.037886658803874,
1,0,1,0,,,,,,,,,,,,,,,,,,,,,,,,,,,,,,,,,,,,,,,,,,,,,,,,,,,,,,,,,,,,,,,201.17300130054355,201.17300130054355,0.0012180991470813751,0.09849659912288189,3.0,11.398054700344801,,,,,,,,6664,Moral,2024-07-08_10h56.39.255,MoralCondition_v2,2022.2.5,30.037886658803874,
2,0,2,0,0,0,0,0,,,,,,,,,,,,,,,,,,,,,,212.60663029924035,0.00031969882547855377,0.09781049937009811,218.60631649941206,6.031180499121547,218.8061998002231,218.8061998002231,0.08497519977390766,0.19789030030369759,6.031204599887133,224.88961360044777,224.88961360044777,224.88961360044777,0.08484720066189766,0.1814299002289772,230.58961739949882,230.78957040049136,6.014363300055265,6.114456498995423,236.78952980041504,12.014320500195026,236.9229447990656,236.9229447990656,0.014657899737358093,0.11460440047085285,down,0.794030200690031,237.7729394994676,4.3701380491256714e-05,0.09789600037038326,,243.78958410024643,243.78958410024643,0.026656901463866234,0.11466880142688751,1.0,3.322460299357772,,,,,,,224.80635000020266,224.80635000020266,236.88963999971747,236.88963999971747,,,,6664,Moral,2024-07-08_10h56.39.255,MoralCondition_v2,2022.2.5,30.037886658803874,
2,0,2,0,1,0,1,0,,,,,,,,,,,,,,,,,,,,,,,,,,,,,,,,,,,,,,,,,,,,,,,,,,,,,247.17307350039482,247.17307350039482,0.008350599557161331,0.11438100039958954,1.0,1.34028510004282,,,,,,,,,,,,,,6664,Moral,2024-07-08_10h56.39.255,MoralCondition_v2,2022.2.5,30.037886658803874,
2,0,2,0,2,0,2,0,,,,,,,,,,,,,,,,,,,,,,,,,,,,,,,,,,,,,,,,,,,,,,,,,,,,,248.53950209915638,248.53950209915638,0.007660800591111183,0.09765890054404736,1.0,1.0912379994988441,,,,,,,,,,,,,,6664,Moral,2024-07-08_10h56.39.255,MoralCondition_v2,2022.2.5,30.037886658803874,
2,0,2,0,3,0,3,0,,,,,,,,,,,,,,,,,,,,,,,,,,,,,,,,,,,,,,,,,,,,,,,,,,,,,249.67291430011392,249.67291430011392,0.005433700978755951,0.09940849989652634,6.0,4.128363998606801,,,,,,,,,,,,,,6664,Moral,2024-07-08_10h56.39.255,MoralCondition_v2,2022.2.5,30.037886658803874,
2,0,2,0,4,0,4,0,,,,,,,,,,,,,,,,,,,,,,,,,,,,,,,,,,,,,,,,,,,,,,,,,,,,,253.839679999277,253.839679999277,0.007476000115275383,0.09799559973180294,1.0,6.158364299684763,,,,,,,,,,,,,,6664,Moral,2024-07-08_10h56.39.255,MoralCondition_v2,2022.2.5,30.037886658803874,
2,0,2,0,5,0,5,0,,,,,,,,,,,,,,,,,,,,,,,,,,,,,,,,,,,,,,,,,,,,,,,,,,,,,260.0398239996284,260.0398239996284,0.006484599784016609,0.09930719994008541,1.0,3.1938362009823322,,,,,,,,,,,,,,6664,Moral,2024-07-08_10h56.39.255,MoralCondition_v2,2022.2.5,30.037886658803874,
2,0,2,0,6,0,6,0,,,,,,,,,,,,,,,,,,,,,,,,,,,,,,,,,,,,,,,,,,,,,,,,,,,,,263.2729330006987,263.2729330006987,0.006599700078368187,0.09906329959630966,1.0,1.4601961988955736,,,,,,,,,,,,,,6664,Moral,2024-07-08_10h56.39.255,MoralCondition_v2,2022.2.5,30.037886658803874,
2,0,2,0,,,,,,,,,,,,,,,,,,,,,,,,,,,,,,,,,,,,,,,,,,,,,,,,,,,,,,,,,,,,,,,264.77309259958565,264.77309259958565,0.0018894001841545105,0.09760640002787113,1.0,4.630398999899626,,,,,,,,6664,Moral,2024-07-08_10h56.39.255,MoralCondition_v2,2022.2.5,30.037886658803874,
3,0,3,0,0,0,0,0,,,,,,,,,,,,,,,,,,,,,,269.4398113004863,0.00025449879467487335,0.09867249988019466,275.4562004990876,6.014966299757361,275.67266290076077,275.67266290076077,0.11897679977118969,0.23163940012454987,6.0146609004586935,281.7226657997817,281.7226657997817,281.7226657997817,0.06840820051729679,0.18167840130627155,287.439370399341,287.6394458003342,6.031627900898457,6.131596399471164,293.6393951997161,12.031577000394464,293.77292829938233,293.77292829938233,0.03195120021700859,0.131597101688385,down,5.568400600925088,299.4063076004386,4.700012505054474e-05,0.09844719991087914,,305.4228796996176,305.4228796996176,0.025468099862337112,0.11467760056257248,1.0,3.990471599623561,,,,,,,,,293.73942149989307,293.73942149989307,,,,6664,Moral,2024-07-08_10h56.39.255,MoralCondition_v2,2022.2.5,30.037886658803874,
3,0,3,0,1,0,1,0,,,,,,,,,,,,,,,,,,,,,,,,,,,,,,,,,,,,,,,,,,,,,,,,,,,,,309.45608700066805,309.45608700066805,0.007140299305319786,0.09795740060508251,1.0,1.3251728005707264,,,,,,,,,,,,,,6664,Moral,2024-07-08_10h56.39.255,MoralCondition_v2,2022.2.5,30.037886658803874,
3,0,3,0,2,0,2,0,,,,,,,,,,,,,,,,,,,,,,,,,,,,,,,,,,,,,,,,,,,,,,,,,,,,,310.8228034004569,310.8228034004569,0.007576100528240204,0.09823690168559551,5.0,4.958000799641013,,,,,,,,,,,,,,6664,Moral,2024-07-08_10h56.39.255,MoralCondition_v2,2022.2.5,30.037886658803874,
3,0,3,0,3,0,3,0,,,,,,,,,,,,,,,,,,,,,,,,,,,,,,,,,,,,,,,,,,,,,,,,,,,,,315.8228339999914,315.8228339999914,0.007408499717712402,0.09803349897265434,2.0,3.158015200868249,,,,,,,,,,,,,,6664,Moral,2024-07-08_10h56.39.255,MoralCondition_v2,2022.2.5,30.037886658803874,
3,0,3,0,4,0,4,0,,,,,,,,,,,,,,,,,,,,,,,,,,,,,,,,,,,,,,,,,,,,,,,,,,,,,319.0226380992681,319.0226380992681,0.009130900725722313,0.09943610057234764,5.0,3.1911377999931574,,,,,,,,,,,,,,6664,Moral,2024-07-08_10h56.39.255,MoralCondition_v2,2022.2.5,30.037886658803874,
3,0,3,0,5,0,5,0,,,,,,,,,,,,,,,,,,,,,,,,,,,,,,,,,,,,,,,,,,,,,,,,,,,,,322.25601469911635,322.25601469911635,0.006901700049638748,0.09937120042741299,1.0,1.8934512007981539,,,,,,,,,,,,,,6664,Moral,2024-07-08_10h56.39.255,MoralCondition_v2,2022.2.5,30.037886658803874,
3,0,3,0,6,0,6,0,,,,,,,,,,,,,,,,,,,,,,,,,,,,,,,,,,,,,,,,,,,,,,,,,,,,,324.189336899668,324.189336899668,0.0075720008462667465,0.09831120073795319,5.0,2.1587354000657797,,,,,,,,,,,,,,6664,Moral,2024-07-08_10h56.39.255,MoralCondition_v2,2022.2.5,30.037886658803874,
3,0,3,0,,,,,,,,,,,,,,,,,,,,,,,,,,,,,,,,,,,,,,,,,,,,,,,,,,,,,,,,,,,,,,,326.3898690007627,326.3898690007627,0.0018950998783111572,0.09756330028176308,1.0,7.529883900657296,,,,,,,,6664,Moral,2024-07-08_10h56.39.255,MoralCondition_v2,2022.2.5,30.037886658803874,
4,0,4,0,0,0,0,0,,,,,,,,,,,,,,,,,,,,,,333.9563510995358,0.00013330020010471344,0.09918750077486038,339.9559687990695,5.999159101396799,340.12279349938035,340.12279349938035,0.061761802062392235,0.16606290079653263,5.999318201094866,346.22247809916735,346.22247809916735,346.22247809916735,0.05834760144352913,0.16582870110869408,351.9224721007049,352.1559746004641,5.999141801148653,6.09912390075624,358.155908100307,11.999089000746608,358.2559353001416,358.2559353001416,4.560127854347229e-05,0.09906030260026455,up,1.8377676010131836,360.1559154000133,6.539933383464813e-05,0.0980122983455658,366.1558488998562,366.1558488998562,366.1558488998562,0.0040092989802360535,0.09816629998385906,6.0,8.995259899646044,,,,,,,346.12273829989135,346.12273829989135,358.2225994002074,358.2225994002074,6.099181501194835,6.09925870038569,12.09916390106082,6664,Moral,2024-07-08_10h56.39.255,MoralCondition_v2,2022.2.5,30.037886658803874,
4,0,4,0,1,0,1,0,,,,,,,,,,,,,,,,,,,,,,,,,,,,,,,,,,,,,,,,,,,,,,,,,,,,,375.2061884999275,375.2061884999275,0.008273700252175331,0.11402199976146221,1.0,2.2399093005806208,,,,,,,,,,,,,,6664,Moral,2024-07-08_10h56.39.255,MoralCondition_v2,2022.2.5,30.037886658803874,
4,0,4,0,2,0,2,0,,,,,,,,,,,,,,,,,,,,,,,,,,,,,,,,,,,,,,,,,,,,,,,,,,,,,377.4726654998958,377.4726654998958,0.007181800901889801,0.09798210114240646,1.0,0.8584160003811121,,,,,,,,,,,,,,6664,Moral,2024-07-08_10h56.39.255,MoralCondition_v2,2022.2.5,30.037886658803874,
4,0,4,0,3,0,3,0,,,,,,,,,,,,,,,,,,,,,,,,,,,,,,,,,,,,,,,,,,,,,,,,,,,,,378.3725528996438,378.3725528996438,0.00794840045273304,0.09780360013246536,6.0,3.7243247013539076,,,,,,,,,,,,,,6664,Moral,2024-07-08_10h56.39.255,MoralCondition_v2,2022.2.5,30.037886658803874,
4,0,4,0,4,0,4,0,,,,,,,,,,,,,,,,,,,,,,,,,,,,,,,,,,,,,,,,,,,,,,,,,,,,,382.13913559913635,382.13913559913635,0.006686300039291382,0.09917370043694973,1.0,1.227344399318099,,,,,,,,,,,,,,6664,Moral,2024-07-08_10h56.39.255,MoralCondition_v2,2022.2.5,30.037886658803874,
4,0,4,0,5,0,5,0,,,,,,,,,,,,,,,,,,,,,,,,,,,,,,,,,,,,,,,,,,,,,,,,,,,,,383.4056084007025,383.4056084007025,0.006666900590062141,0.0994074996560812,1.0,0.8602009993046522,,,,,,,,,,,,,,6664,Moral,2024-07-08_10h56.39.255,MoralCondition_v2,2022.2.5,30.037886658803874,
4,0,4,0,6,0,6,0,,,,,,,,,,,,,,,,,,,,,,,,,,,,,,,,,,,,,,,,,,,,,,,,,,,,,384.3058780003339,384.3058780003339,0.00645819865167141,0.09932509995996952,1.0,1.2604074012488127,,,,,,,,,,,,,,6664,Moral,2024-07-08_10h56.39.255,MoralCondition_v2,2022.2.5,30.037886658803874,
4,0,4,0,,,,,,,,,,,,,,,,,,,,,,,,,,,,,,,,,,,,,,,,,,,,,,,,,,,,,,,,,,,,,,,385.6057884003967,385.6057884003967,0.0017579998821020126,0.09707210026681423,7.0,2.0312639996409416,,,,,,,,6664,Moral,2024-07-08_10h56.39.255,MoralCondition_v2,2022.2.5,30.037886658803874,
5,0,5,0,0,0,0,0,,,,,,,,,,,,,,,,,,,,,,387.6726204007864,0.00041809864342212677,0.097113698720932,393.6892684996128,6.013960998505354,393.88902140036225,393.88902140036225,0.11210479959845543,0.21379940025508404,6.013808699324727,399.9560835007578,399.9560835007578,399.9560835007578,0.07081889919936657,0.18056079931557178,405.65580479986966,405.8558188006282,6.013847399502993,6.113734699785709,411.8559421002865,12.013949800282717,411.98907870054245,411.98907870054245,0.014281900599598885,0.11366339959204197,down,2.4883278012275696,414.53912490047514,4.569999873638153e-05,0.09796490147709846,420.5557576995343,420.5557576995343,420.5557576995343,0.009350400418043137,0.11447560042142868,1.0,2.0730098988860846,,,,,,,,,411.9560902994126,411.9560902994126,,,,6664,Moral,2024-07-08_10h56.39.255,MoralCondition_v2,2022.2.5,30.037886658803874,
5,0,5,0,1,0,1,0,,,,,,,,,,,,,,,,,,,,,,,,,,,,,,,,,,,,,,,,,,,,,,,,,,,,,422.67261189967394,422.67261189967394,0.008364900946617126,0.11401290073990822,6.0,3.8399827983230352,,,,,,,,,,,,,,6664,Moral,2024-07-08_10h56.39.255,MoralCondition_v2,2022.2.5,30.037886658803874,
5,0,5,0,2,0,2,0,,,,,,,,,,,,,,,,,,,,,,,,,,,,,,,,,,,,,,,,,,,,,,,,,,,,,426.53888300061226,426.53888300061226,0.0066386014223098755,0.09947280026972294,1.0,3.860350601375103,,,,,,,,,,,,,,6664,Moral,2024-07-08_10h56.39.255,MoralCondition_v2,2022.2.5,30.037886658803874,
5,0,5,0,3,0,3,0,,,,,,,,,,,,,,,,,,,,,,,,,,,,,,,,,,,,,,,,,,,,,,,,,,,,,430.4558905996382,430.4558905996382,0.00800660066306591,0.11389410123229027,6.0,2.0068727992475033,,,,,,,,,,,,,,6664,Moral,2024-07-08_10h56.39.255,MoralCondition_v2,2022.2.5,30.037886658803874,
5,0,5,0,4,0,4,0,,,,,,,,,,,,,,,,,,,,,,,,,,,,,,,,,,,,,,,,,,,,,,,,,,,,,432.50596030056477,432.50596030056477,0.008812298998236656,0.11442139931023121,1.0,2.306692700833082,,,,,,,,,,,,,,6664,Moral,2024-07-08_10h56.39.255,MoralCondition_v2,2022.2.5,30.037886658803874,
5,0,5,0,5,0,5,0,,,,,,,,,,,,,,,,,,,,,,,,,,,,,,,,,,,,,,,,,,,,,,,,,,,,,434.8560256008059,434.8560256008059,0.008051199838519096,0.11433569900691509,1.0,1.007260100916028,,,,,,,,,,,,,,6664,Moral,2024-07-08_10h56.39.255,MoralCondition_v2,2022.2.5,30.037886658803874,
5,0,5,0,6,0,6,0,,,,,,,,,,,,,,,,,,,,,,,,,,,,,,,,,,,,,,,,,,,,,,,,,,,,,435.8892510998994,435.8892510998994,0.006887299939990044,0.09855750016868114,1.0,2.0592289995402098,,,,,,,,,,,,,,6664,Moral,2024-07-08_10h56.39.255,MoralCondition_v2,2022.2.5,30.037886658803874,
5,0,5,0,,,,,,,,,,,,,,,,,,,,,,,,,,,,,,,,,,,,,,,,,,,,,,,,,,,,,,,,,,,,,,,437.98893870040774,437.98893870040774,0.001232299953699112,0.09751260094344616,1.0,2.7973301000893116,,,,,,,,6664,Moral,2024-07-08_10h56.39.255,MoralCondition_v2,2022.2.5,30.037886658803874,
6,0,6,0,0,0,0,0,,,,,,,,,,,,,,,,,,,,,,440.8225130997598,0.00013449974358081818,0.09922019951045513,446.83894979953766,6.015981800854206,447.0057554002851,447.0057554002851,0.07208940014243126,0.18259629979729652,6.016094701364636,453.08864960074425,453.08864960074425,453.08864960074425,0.06688580103218555,0.16597720049321651,458.78889640048146,459.02225849963725,5.999122701585293,6.099158300086856,465.02223639935255,11.999098401516676,465.1222077999264,465.1222077999264,-0.0003306977450847626,0.09911350160837173,down,1.6272260006517172,466.80590320006013,5.000084638595581e-05,0.09780650027096272,472.82263189926744,472.82263189926744,472.82263189926744,0.008748400956392288,0.1145543996244669,5.0,11.773382000625134,,,,,,,453.00585990026593,453.00585990026593,465.0888835005462,465.0888835005462,,,12.099103201180696,6664,Moral,2024-07-08_10h56.39.255,MoralCondition_v2,2022.2.5,30.037886658803874,
6,0,6,0,1,0,1,0,,,,,,,,,,,,,,,,,,,,,,,,,,,,,,,,,,,,,,,,,,,,,,,,,,,,,484.62218889966607,484.62218889966607,0.007259199395775795,0.0976537000387907,1.0,1.2591602988541126,,,,,,,,,,,,,,6664,Moral,2024-07-08_10h56.39.255,MoralCondition_v2,2022.2.5,30.037886658803874,
6,0,6,0,2,0,2,0,,,,,,,,,,,,,,,,,,,,,,,,,,,,,,,,,,,,,,,,,,,,,,,,,,,,,485.9220943003893,485.9220943003893,0.0073451995849609375,0.09750089980661869,5.0,1.6242849994450808,,,,,,,,,,,,,,6664,Moral,2024-07-08_10h56.39.255,MoralCondition_v2,2022.2.5,30.037886658803874,
6,0,6,0,3,0,3,0,,,,,,,,,,,,,,,,,,,,,,,,,,,,,,,,,,,,,,,,,,,,,,,,,,,,,487.5887174997479,487.5887174997479,0.007123701274394989,0.09817430004477501,5.0,1.7587665002793074,,,,,,,,,,,,,,6664,Moral,2024-07-08_10h56.39.255,MoralCondition_v2,2022.2.5,30.037886658803874,
6,0,6,0,4,0,4,0,,,,,,,,,,,,,,,,,,,,,,,,,,,,,,,,,,,,,,,,,,,,,,,,,,,,,489.3887421991676,489.3887421991676,0.006901901215314865,0.0990965012460947,1.0,1.5600733999162912,,,,,,,,,,,,,,6664,Moral,2024-07-08_10h56.39.255,MoralCondition_v2,2022.2.5,30.037886658803874,
6,0,6,0,5,0,5,0,,,,,,,,,,,,,,,,,,,,,,,,,,,,,,,,,,,,,,,,,,,,,,,,,,,,,491.00564930029213,491.00564930029213,0.007787499576807022,0.11451520025730133,6.0,5.107633600011468,,,,,,,,,,,,,,6664,Moral,2024-07-08_10h56.39.255,MoralCondition_v2,2022.2.5,30.037886658803874,
6,0,6,0,6,0,6,0,,,,,,,,,,,,,,,,,,,,,,,,,,,,,,,,,,,,,,,,,,,,,,,,,,,,,496.13870250061154,496.13870250061154,0.005608398467302322,0.09913389943540096,1.0,1.394369600340724,,,,,,,,,,,,,,6664,Moral,2024-07-08_10h56.39.255,MoralCondition_v2,2022.2.5,30.037886658803874,
6,0,6,0,,,,,,,,,,,,,,,,,,,,,,,,,,,,,,,,,,,,,,,,,,,,,,,,,,,,,,,,,,,,,,,497.57233230024576,497.57233230024576,0.0019237995147705078,0.09747609868645668,1.0,2.4633080009371042,,,,,,,,6664,Moral,2024-07-08_10h56.39.255,MoralCondition_v2,2022.2.5,30.037886658803874,
7,0,7,0,0,0,0,0,,,,,,,,,,,,,,,,,,,,,,500.0722109992057,0.00015480071306228638,0.09946309961378574,506.0888550002128,6.016138199716806,506.25540450029075,506.25540450029075,0.07577810063958168,0.18257430009543896,6.015931000933051,512.3385707996786,512.3385707996786,512.3385707996786,0.06582050025463104,0.16620850004255772,518.0386811997741,518.2387080006301,5.999309601262212,6.099314101040363,524.2386697996408,11.999217601493001,524.3727410007268,524.3727410007268,-0.00041859783232212067,0.09944280050694942,down,2.1847185008227825,526.6053023990244,5.0399452447891235e-05,0.09780720062553883,532.6221587993205,532.6221587993205,532.6221587993205,0.00983319990336895,0.11451850086450577,5.0,3.9724920988082886,,,,,,,512.238586500287,512.238586500287,524.3386224005371,524.3386224005371,,,12.09920110180974,6664,Moral,2024-07-08_10h56.39.255,MoralCondition_v2,2022.2.5,30.037886658803874,
7,0,7,0,1,0,1,0,,,,,,,,,,,,,,,,,,,,,,,,,,,,,,,,,,,,,,,,,,,,,,,,,,,,,536.6221772991121,536.6221772991121,0.008322399109601974,0.09802640043199062,1.0,3.324005499482155,,,,,,,,,,,,,,6664,Moral,2024-07-08_10h56.39.255,MoralCondition_v2,2022.2.5,30.037886658803874,
7,0,7,0,2,0,2,0,,,,,,,,,,,,,,,,,,,,,,,,,,,,,,,,,,,,,,,,,,,,,,,,,,,,,539.9887681994587,539.9887681994587,0.0068602003157138824,0.09916269965469837,1.0,2.1932434998452663,,,,,,,,,,,,,,6664,Moral,2024-07-08_10h56.39.255,MoralCondition_v2,2022.2.5,30.037886658803874,
7,0,7,0,3,0,3,0,,,,,,,,,,,,,,,,,,,,,,,,,,,,,,,,,,,,,,,,,,,,,,,,,,,,,542.2384814992547,542.2384814992547,0.01115339994430542,0.11509199999272823,1.0,1.4714208003133535,,,,,,,,,,,,,,6664,Moral,2024-07-08_10h56.39.255,MoralCondition_v2,2022.2.5,30.037886658803874,
7,0,7,0,4,0,4,0,,,,,,,,,,,,,,,,,,,,,,,,,,,,,,,,,,,,,,,,,,,,,,,,,,,,,543.738433400169,543.738433400169,0.007276300340890884,0.09801920130848885,6.0,4.891740599647164,,,,,,,,,,,,,,6664,Moral,2024-07-08_10h56.39.255,MoralCondition_v2,2022.2.5,30.037886658803874,
7,0,7,0,5,0,5,0,,,,,,,,,,,,,,,,,,,,,,,,,,,,,,,,,,,,,,,,,,,,,,,,,,,,,548.6885441001505,548.6885441001505,0.01092969998717308,0.11448209919035435,6.0,1.537703299894929,,,,,,,,,,,,,,6664,Moral,2024-07-08_10h56.39.255,MoralCondition_v2,2022.2.5,30.037886658803874,
7,0,7,0,6,0,6,0,,,,,,,,,,,,,,,,,,,,,,,,,,,,,,,,,,,,,,,,,,,,,,,,,,,,,550.2553938999772,550.2553938999772,0.006920600309967995,0.09811729937791824,4.0,2.392171200364828,,,,,,,,,,,,,,6664,Moral,2024-07-08_10h56.39.255,MoralCondition_v2,2022.2.5,30.037886658803874,
7,0,7,0,,,,,,,,,,,,,,,,,,,,,,,,,,,,,,,,,,,,,,,,,,,,,,,,,,,,,,,,,,,,,,,552.6884672008455,552.6884672008455,0.0010476000607013702,0.09813999943435192,2.0,2.6316948011517525,,,,,,,,6664,Moral,2024-07-08_10h56.39.255,MoralCondition_v2,2022.2.5,30.037886658803874,
8,0,8,0,0,0,0,0,,,,,,,,,,,,,,,,,,,,,,555.3555619996041,0.00013220123946666718,0.09915080107748508,561.3718836996704,6.0158665999770164,561.53856359981,561.53856359981,0.07468700036406517,0.18279900029301643,6.015950001776218,567.6386198997498,567.6386198997498,567.6386198997498,0.07437310181558132,0.18277870118618011,573.3384652994573,573.5384052991867,6.015792401507497,6.115807401016355,579.5384321007878,12.015793200582266,579.6717266999185,579.6717266999185,0.0159590020775795,0.11571620218455791,up,1.0776185002177954,580.7885440997779,2.1198764443397522e-05,0.0991091001778841,,586.8050103001297,586.8050103001297,0.02488110028207302,0.11555249989032745,1.0,2.125265698879957,,,,,,,567.5387082006782,567.5387082006782,579.6384149994701,579.6384149994701,,,,6664,Moral,2024-07-08_10h56.39.255,MoralCondition_v2,2022.2.5,30.037886658803874,
8,0,8,0,1,0,1,0,,,,,,,,,,,,,,,,,,,,,,,,,,,,,,,,,,,,,,,,,,,,,,,,,,,,,588.9718152992427,588.9718152992427,0.007020900025963783,0.0979917012155056,2.0,3.8586908001452684,,,,,,,,,,,,,,6664,Moral,2024-07-08_10h56.39.255,MoralCondition_v2,2022.2.5,30.037886658803874,
8,0,8,0,2,0,2,0,,,,,,,,,,,,,,,,,,,,,,,,,,,,,,,,,,,,,,,,,,,,,,,,,,,,,592.8717308007181,592.8717308007181,0.007543498650193214,0.0980054996907711,4.0,3.4246720001101494,,,,,,,,,,,,,,6664,Moral,2024-07-08_10h56.39.255,MoralCondition_v2,2022.2.5,30.037886658803874,
8,0,8,0,3,0,3,0,,,,,,,,,,,,,,,,,,,,,,,,,,,,,,,,,,,,,,,,,,,,,,,,,,,,,596.3385124001652,596.3385124001652,0.00791880115866661,0.09788949973881245,7.0,1.9244468994438648,,,,,,,,,,,,,,6664,Moral,2024-07-08_10h56.39.255,MoralCondition_v2,2022.2.5,30.037886658803874,
8,0,8,0,4,0,4,0,,,,,,,,,,,,,,,,,,,,,,,,,,,,,,,,,,,,,,,,,,,,,,,,,,,,,598.305057099089,598.305057099089,0.0068744998425245285,0.09885800071060658,2.0,3.993417900055647,,,,,,,,,,,,,,6664,Moral,2024-07-08_10h56.39.255,MoralCondition_v2,2022.2.5,30.037886658803874,
8,0,8,0,5,0,5,0,,,,,,,,,,,,,,,,,,,,,,,,,,,,,,,,,,,,,,,,,,,,,,,,,,,,,602.3384275995195,602.3384275995195,0.007452799007296562,0.09804419986903667,1.0,2.9914193004369736,,,,,,,,,,,,,,6664,Moral,2024-07-08_10h56.39.255,MoralCondition_v2,2022.2.5,30.037886658803874,
8,0,8,0,6,0,6,0,,,,,,,,,,,,,,,,,,,,,,,,,,,,,,,,,,,,,,,,,,,,,,,,,,,,,605.3716963995248,605.3716963995248,0.007232800126075745,0.09768239967525005,1.0,2.8583073001354933,,,,,,,,,,,,,,6664,Moral,2024-07-08_10h56.39.255,MoralCondition_v2,2022.2.5,30.037886658803874,
8,0,8,0,,,,,,,,,,,,,,,,,,,,,,,,,,,,,,,,,,,,,,,,,,,,,,,,,,,,,,,,,,,,,,,608.2717572003603,608.2717572003603,0.0014526993036270142,0.09762389957904816,7.0,2.564292199909687,,,,,,,,6664,Moral,2024-07-08_10h56.39.255,MoralCondition_v2,2022.2.5,30.037886658803874,
9,0,9,0,0,0,0,0,,,,,,,,,,,,,,,,,,,,,,610.8717822991312,0.0002827998250722885,0.09738860093057156,616.8715693000704,6.030720300972462,617.0716065000743,617.0716065000743,0.08972670137882233,0.19761280156672,6.030678801238537,623.1548424996436,623.1548424996436,623.1548424996436,0.08101900108158588,0.18090040050446987,628.8549087997526,629.0548579003662,6.014012401923537,6.11427840217948,635.0548480004072,12.014012901112437,635.1882153004408,635.1882153004408,0.014387501403689384,0.11390090174973011,up,1.1366748996078968,636.3715783003718,4.0100887417793274e-05,0.09794769994914532,642.3882682006806,642.3882682006806,642.3882682006806,0.00944250077009201,0.11470660008490086,3.0,4.972989499568939,,,,,,,623.0719530005008,623.0719530005008,635.1550540998578,635.1550540998578,,,,6664,Moral,2024-07-08_10h56.39.255,MoralCondition_v2,2022.2.5,30.037886658803874,
9,0,9,0,1,0,1,0,,,,,,,,,,,,,,,,,,,,,,,,,,,,,,,,,,,,,,,,,,,,,,,,,,,,,647.4049768000841,647.4049768000841,0.00817199982702732,0.11444910056889057,1.0,1.7737991996109486,,,,,,,,,,,,,,6664,Moral,2024-07-08_10h56.39.255,MoralCondition_v2,2022.2.5,30.037886658803874,
9,0,9,0,2,0,2,0,,,,,,,,,,,,,,,,,,,,,,,,,,,,,,,,,,,,,,,,,,,,,,,,,,,,,649.2048294991255,649.2048294991255,0.006731899455189705,0.09910609945654869,1.0,1.6601007003337145,,,,,,,,,,,,,,6664,Moral,2024-07-08_10h56.39.255,MoralCondition_v2,2022.2.5,30.037886658803874,
9,0,9,0,3,0,3,0,,,,,,,,,,,,,,,,,,,,,,,,,,,,,,,,,,,,,,,,,,,,,,,,,,,,,650.9049145001918,650.9049145001918,0.00868069939315319,0.09757860004901886,1.0,2.090080000460148,,,,,,,,,,,,,,6664,Moral,2024-07-08_10h56.39.255,MoralCondition_v2,2022.2.5,30.037886658803874,
9,0,9,0,4,0,4,0,,,,,,,,,,,,,,,,,,,,,,,,,,,,,,,,,,,,,,,,,,,,,,,,,,,,,653.0378932990134,653.0378932990134,0.006546899676322937,0.09917759895324707,5.0,2.7607979997992516,,,,,,,,,,,,,,6664,Moral,2024-07-08_10h56.39.255,MoralCondition_v2,2022.2.5,30.037886658803874,
9,0,9,0,5,0,5,0,,,,,,,,,,,,,,,,,,,,,,,,,,,,,,,,,,,,,,,,,,,,,,,,,,,,,655.8378820996732,655.8378820996732,0.008466299623250961,0.09895779937505722,2.0,2.2582933995872736,,,,,,,,,,,,,,6664,Moral,2024-07-08_10h56.39.255,MoralCondition_v2,2022.2.5,30.037886658803874,
9,0,9,0,6,0,6,0,,,,,,,,,,,,,,,,,,,,,,,,,,,,,,,,,,,,,,,,,,,,,,,,,,,,,658.1380583997816,658.1380583997816,0.006408398970961571,0.09916639886796474,1.0,1.2603275999426842,,,,,,,,,,,,,,6664,Moral,2024-07-08_10h56.39.255,MoralCondition_v2,2022.2.5,30.037886658803874,
9,0,9,0,,,,,,,,,,,,,,,,,,,,,,,,,,,,,,,,,,,,,,,,,,,,,,,,,,,,,,,,,,,,,,,659.4382642991841,659.4382642991841,0.0013092998415231705,0.09929179958999157,7.0,1.69931379891932,,,,,,,,6664,Moral,2024-07-08_10h56.39.255,MoralCondition_v2,2022.2.5,30.037886658803874,
10,0,10,0,0,0,0,0,,,,,,,,,,,,,,,,,,,,,,661.1716852001846,0.00034110061824321747,0.09747700020670891,667.1714037004858,6.030739799141884,667.3716279994696,667.3716279994696,0.08542839996516705,0.19756660051643848,6.030525099486113,673.4547656998038,673.4547656998038,673.4547656998038,0.07941070012748241,0.18091220036149025,679.1546471007168,679.354648899287,6.013961801305413,6.113882200792432,685.3546383008361,12.013954501599073,685.4879430998117,685.4879430998117,0.014106201007962227,0.11383720114827156,up,2.397756101563573,687.938079899177,4.29004430770874e-05,0.09772109985351562,,693.9714446999133,693.9714446999133,0.026926198974251747,0.1312814000993967,6.0,2.3386006001383066,,,,,,,673.3712150994688,673.3712150994688,685.4546358007938,685.4546358007938,,,,6664,Moral,2024-07-08_10h56.39.255,MoralCondition_v2,2022.2.5,30.037886658803874,
10,0,10,0,1,0,1,0,,,,,,,,,,,,,,,,,,,,,,,,,,,,,,,,,,,,,,,,,,,,,,,,,,,,,696.3381459992379,696.3381459992379,0.007962699979543686,0.09908580034971237,2.0,2.492153098806739,,,,,,,,,,,,,,6664,Moral,2024-07-08_10h56.39.255,MoralCondition_v2,2022.2.5,30.037886658803874,
10,0,10,0,2,0,2,0,,,,,,,,,,,,,,,,,,,,,,,,,,,,,,,,,,,,,,,,,,,,,,,,,,,,,698.871245700866,698.871245700866,0.0066686999052762985,0.09926969930529594,2.0,2.7269479986280203,,,,,,,,,,,,,,6664,Moral,2024-07-08_10h56.39.255,MoralCondition_v2,2022.2.5,30.037886658803874,
10,0,10,0,3,0,3,0,,,,,,,,,,,,,,,,,,,,,,,,,,,,,,,,,,,,,,,,,,,,,,,,,,,,,701.637868899852,701.637868899852,0.006410099565982819,0.09914609976112843,2.0,3.0606865007430315,,,,,,,,,,,,,,6664,Moral,2024-07-08_10h56.39.255,MoralCondition_v2,2022.2.5,30.037886658803874,
10,0,10,0,4,0,4,0,,,,,,,,,,,,,,,,,,,,,,,,,,,,,,,,,,,,,,,,,,,,,,,,,,,,,704.7545587997884,704.7545587997884,0.009029800072312355,0.11450730077922344,6.0,1.6401081997901201,,,,,,,,,,,,,,6664,Moral,2024-07-08_10h56.39.255,MoralCondition_v2,2022.2.5,30.037886658803874,
10,0,10,0,5,0,5,0,,,,,,,,,,,,,,,,,,,,,,,,,,,,,,,,,,,,,,,,,,,,,,,,,,,,,706.4212319999933,706.4212319999933,0.007353600114583969,0.09795239940285683,5.0,3.1584386005997658,,,,,,,,,,,,,,6664,Moral,2024-07-08_10h56.39.255,MoralCondition_v2,2022.2.5,30.037886658803874,
10,0,10,0,6,0,6,0,,,,,,,,,,,,,,,,,,,,,,,,,,,,,,,,,,,,,,,,,,,,,,,,,,,,,709.6210523005575,709.6210523005575,0.006020799279212952,0.09892219863831997,5.0,3.527419999241829,,,,,,,,,,,,,,6664,Moral,2024-07-08_10h56.39.255,MoralCondition_v2,2022.2.5,30.037886658803874,
10,0,10,0,,,,,,,,,,,,,,,,,,,,,,,,,,,,,,,,,,,,,,,,,,,,,,,,,,,,,,,,,,,,,,,713.1881383992732,713.1881383992732,0.000708799809217453,0.0989277996122837,7.0,3.8328153993934393,,,,,,,,6664,Moral,2024-07-08_10h56.39.255,MoralCondition_v2,2022.2.5,30.037886658803874,
11,0,11,0,0,0,0,0,,,,,,,,,,,,,,,,,,,,,,717.0547100007534,0.00023510120809078217,0.09824190102517605,723.0544651001692,6.0315860994160175,723.237633600831,723.237633600831,0.07664590142667294,0.18154940009117126,6.014869101345539,729.3378209993243,729.3378209993243,729.3378209993243,0.08017850108444691,0.18178200162947178,735.0377527996898,735.2377371992916,6.014886600896716,6.11481250077486,741.2377435006201,12.014890501275659,741.3710444997996,741.3710444997996,0.014964001253247261,0.11480350233614445,up,5.753955502063036,747.1710339002311,6.0500577092170715e-05,0.0978919006884098,753.1710829008371,753.1710829008371,753.1710829008371,0.009185601025819778,0.09799870103597641,5.0,4.656342700123787,,,,,,,729.2379081007093,729.2379081007093,741.3376880995929,741.3376880995929,,,,6664,Moral,2024-07-08_10h56.39.255,MoralCondition_v2,2022.2.5,30.037886658803874,
11,0,11,0,1,0,1,0,,,,,,,,,,,,,,,,,,,,,,,,,,,,,,,,,,,,,,,,,,,,,,,,,,,,,757.8708955999464,757.8708955999464,0.007224399596452713,0.09782909974455833,2.0,2.2916241995990276,,,,,,,,,,,,,,6664,Moral,2024-07-08_10h56.39.255,MoralCondition_v2,2022.2.5,30.037886658803874,
11,0,11,0,2,0,2,0,,,,,,,,,,,,,,,,,,,,,,,,,,,,,,,,,,,,,,,,,,,,,,,,,,,,,760.2042951006442,760.2042951006442,0.006751401349902153,0.09933770075440407,2.0,1.193640099838376,,,,,,,,,,,,,,6664,Moral,2024-07-08_10h56.39.255,MoralCondition_v2,2022.2.5,30.037886658803874,
11,0,11,0,3,0,3,0,,,,,,,,,,,,,,,,,,,,,,,,,,,,,,,,,,,,,,,,,,,,,,,,,,,,,761.4375697001815,761.4375697001815,0.007692800834774971,0.09931150078773499,5.0,2.3257951997220516,,,,,,,,,,,,,,6664,Moral,2024-07-08_10h56.39.255,MoralCondition_v2,2022.2.5,30.037886658803874,
11,0,11,0,4,0,4,0,,,,,,,,,,,,,,,,,,,,,,,,,,,,,,,,,,,,,,,,,,,,,,,,,,,,,763.8041024003178,763.8041024003178,0.008245499804615974,0.09801360033452511,6.0,1.6573674995452166,,,,,,,,,,,,,,6664,Moral,2024-07-08_10h56.39.255,MoralCondition_v2,2022.2.5,30.037886658803874,
11,0,11,0,5,0,5,0,,,,,,,,,,,,,,,,,,,,,,,,,,,,,,,,,,,,,,,,,,,,,,,,,,,,,765.5040709991008,765.5040709991008,0.007105201482772827,0.09821450151503086,5.0,2.359016999602318,,,,,,,,,,,,,,6664,Moral,2024-07-08_10h56.39.255,MoralCondition_v2,2022.2.5,30.037886658803874,
11,0,11,0,6,0,6,0,,,,,,,,,,,,,,,,,,,,,,,,,,,,,,,,,,,,,,,,,,,,,,,,,,,,,767.9041878003627,767.9041878003627,0.005492299795150757,0.09909000061452389,1.0,2.761260099709034,,,,,,,,,,,,,,6664,Moral,2024-07-08_10h56.39.255,MoralCondition_v2,2022.2.5,30.037886658803874,
11,0,11,0,,,,,,,,,,,,,,,,,,,,,,,,,,,,,,,,,,,,,,,,,,,,,,,,,,,,,,,,,,,,,,,770.7042258996516,770.7042258996516,0.0005005002021789551,0.09909100085496902,3.0,4.900161100551486,,,,,,,,6664,Moral,2024-07-08_10h56.39.255,MoralCondition_v2,2022.2.5,30.037886658803874,
12,0,12,0,0,0,0,0,,,,,,,,,,,,,,,,,,,,,,775.6374929007143,0.00017389841377735138,0.0989449992775917,781.6375498995185,5.999110300093889,781.8043319005519,781.8043319005519,0.051792699843645096,0.16601799987256527,5.999104900285602,787.9043140001595,787.9043140001595,787.9043140001595,0.0554226990789175,0.16602949984371662,793.6041956003755,793.8374943993986,5.999075699597597,6.099055100232363,799.8376033008099,11.999063299968839,799.9374522995204,799.9374522995204,-7.450021803379059e-05,0.09911430068314075,down,0.7321770004928112,800.7040857002139,2.760067582130432e-05,0.09845419973134995,806.7039276994765,806.7039276994765,806.7039276994765,0.008986199274659157,0.09853830002248287,1.0,1.9237754996865988,,,,,,,787.8041973002255,787.8041973002255,799.9041182994843,799.9041182994843,6.0989183988422155,6.099160999059677,12.099099600687623,6664,Moral,2024-07-08_10h56.39.255,MoralCondition_v2,2022.2.5,30.037886658803874,
12,0,12,0,1,0,1,0,,,,,,,,,,,,,,,,,,,,,,,,,,,,,,,,,,,,,,,,,,,,,,,,,,,,,808.6706956997514,808.6706956997514,0.006577199324965477,0.09835170023143291,6.0,3.826666099950671,,,,,,,,,,,,,,6664,Moral,2024-07-08_10h56.39.255,MoralCondition_v2,2022.2.5,30.037886658803874,
12,0,12,0,2,0,2,0,,,,,,,,,,,,,,,,,,,,,,,,,,,,,,,,,,,,,,,,,,,,,,,,,,,,,812.5543456990272,812.5543456990272,0.007639000192284584,0.11408920027315617,6.0,1.5408322010189295,,,,,,,,,,,,,,6664,Moral,2024-07-08_10h56.39.255,MoralCondition_v2,2022.2.5,30.037886658803874,
12,0,12,0,3,0,3,0,,,,,,,,,,,,,,,,,,,,,,,,,,,,,,,,,,,,,,,,,,,,,,,,,,,,,814.120752999559,814.120752999559,0.0076639000326395035,0.09778190031647682,2.0,2.1910776011645794,,,,,,,,,,,,,,6664,Moral,2024-07-08_10h56.39.255,MoralCondition_v2,2022.2.5,30.037886658803874,
12,0,12,0,4,0,4,0,,,,,,,,,,,,,,,,,,,,,,,,,,,,,,,,,,,,,,,,,,,,,,,,,,,,,816.3539362996817,816.3539362996817,0.006549499928951263,0.09928799979388714,5.0,2.0940614007413387,,,,,,,,,,,,,,6664,Moral,2024-07-08_10h56.39.255,MoralCondition_v2,2022.2.5,30.037886658803874,
12,0,12,0,5,0,5,0,,,,,,,,,,,,,,,,,,,,,,,,,,,,,,,,,,,,,,,,,,,,,,,,,,,,,818.4874623008072,818.4874623008072,0.006386099383234978,0.09888220019638538,5.0,2.1933632008731365,,,,,,,,,,,,,,6664,Moral,2024-07-08_10h56.39.255,MoralCondition_v2,2022.2.5,30.037886658803874,
12,0,12,0,6,0,6,0,,,,,,,,,,,,,,,,,,,,,,,,,,,,,,,,,,,,,,,,,,,,,,,,,,,,,820.7208031006157,820.7208031006157,0.009187499061226845,0.09755449928343296,2.0,2.5562184993177652,,,,,,,,,,,,,,6664,Moral,2024-07-08_10h56.39.255,MoralCondition_v2,2022.2.5,30.037886658803874,
12,0,12,0,,,,,,,,,,,,,,,,,,,,,,,,,,,,,,,,,,,,,,,,,,,,,,,,,,,,,,,,,,,,,,,823.3209693990648,823.3209693990648,0.0006763003766536713,0.09920419938862324,3.0,2.8998928014189005,,,,,,,,6664,Moral,2024-07-08_10h56.39.255,MoralCondition_v2,2022.2.5,30.037886658803874,
13,0,13,0,0,0,0,0,,,,,,,,,,,,,,,,,,,,,,826.2543272990733,0.00020089931786060333,0.09841319918632507,832.2706157006323,6.0151205994188786,832.4539005998522,832.4539005998522,0.08418509922921658,0.19837579876184464,6.031753100454807,838.5540289003402,838.5540289003402,838.5540289003402,0.0838858000934124,0.19829599931836128,844.2540355995297,844.4539328999817,6.031742699444294,6.13160110078752,850.4539078008384,12.031649399548769,850.5872105006129,850.5872105006129,0.031920300796628,0.13155770115554333,up,0.7618215009570122,851.387222699821,3.9501115679740906e-05,0.09773180074989796,,857.4039478991181,857.4039478991181,0.025298399850726128,0.11448590084910393,2.0,2.1238978002220392,,,,,,,838.4539285991341,838.4539285991341,850.5539423990995,850.5539423990995,,,,6664,Moral,2024-07-08_10h56.39.255,MoralCondition_v2,2022.2.5,30.037886658803874,
13,0,13,0,1,0,1,0,,,,,,,,,,,,,,,,,,,,,,,,,,,,,,,,,,,,,,,,,,,,,,,,,,,,,859.5706571005285,859.5706571005285,0.00696370005607605,0.09732910059392452,2.0,2.2578914016485214,,,,,,,,,,,,,,6664,Moral,2024-07-08_10h56.39.255,MoralCondition_v2,2022.2.5,30.037886658803874,
13,0,13,0,2,0,2,0,,,,,,,,,,,,,,,,,,,,,,,,,,,,,,,,,,,,,,,,,,,,,,,,,,,,,861.8703940995038,861.8703940995038,0.00643170066177845,0.09893679991364479,2.0,2.2936340011656284,,,,,,,,,,,,,,6664,Moral,2024-07-08_10h56.39.255,MoralCondition_v2,2022.2.5,30.037886658803874,
13,0,13,0,3,0,3,0,,,,,,,,,,,,,,,,,,,,,,,,,,,,,,,,,,,,,,,,,,,,,,,,,,,,,864.2037061005831,864.2037061005831,0.0060720015317201614,0.0990965012460947,5.0,2.9608901999890804,,,,,,,,,,,,,,6664,Moral,2024-07-08_10h56.39.255,MoralCondition_v2,2022.2.5,30.037886658803874,
13,0,13,0,4,0,4,0,,,,,,,,,,,,,,,,,,,,,,,,,,,,,,,,,,,,,,,,,,,,,,,,,,,,,867.2038183994591,867.2038183994591,0.006314300000667572,0.09931709989905357,2.0,5.260650699958205,,,,,,,,,,,,,,6664,Moral,2024-07-08_10h56.39.255,MoralCondition_v2,2022.2.5,30.037886658803874,
13,0,13,0,5,0,5,0,,,,,,,,,,,,,,,,,,,,,,,,,,,,,,,,,,,,,,,,,,,,,,,,,,,,,872.5207240004092,872.5207240004092,0.00947600044310093,0.11437069997191429,5.0,4.405655698850751,,,,,,,,,,,,,,6664,Moral,2024-07-08_10h56.39.255,MoralCondition_v2,2022.2.5,30.037886658803874,
13,0,13,0,6,0,6,0,,,,,,,,,,,,,,,,,,,,,,,,,,,,,,,,,,,,,,,,,,,,,,,,,,,,,876.953796999529,876.953796999529,0.0053820013999938965,0.09940600022673607,2.0,2.094870500266552,,,,,,,,,,,,,,6664,Moral,2024-07-08_10h56.39.255,MoralCondition_v2,2022.2.5,30.037886658803874,
13,0,13,0,,,,,,,,,,,,,,,,,,,,,,,,,,,,,,,,,,,,,,,,,,,,,,,,,,,,,,,,,,,,,,,879.087037499994,879.087037499994,0.0016460996121168137,0.09701599925756454,7.0,6.696773800998926,,,,,,,,6664,Moral,2024-07-08_10h56.39.255,MoralCondition_v2,2022.2.5,30.037886658803874,
14,0,14,0,0,0,0,0,,,,,,,,,,,,,,,,,,,,,,885.8207198996097,0.00014269910752773285,0.09889020025730133,891.820395000279,5.999056300148368,892.0036875996739,892.0036875996739,0.07773619890213013,0.18211469985544682,6.015474900603294,898.1035684999079,898.1035684999079,898.1035684999079,0.07670729979872704,0.1821720004081726,903.8037010990083,904.0036926995963,6.015547599643469,6.115447800606489,910.003639800474,12.015487600117922,910.1369807999581,910.1369807999581,0.0157345999032259,0.11539299972355366,down,1.7806396000087261,911.9703317005187,4.5398250222206116e-05,0.09789819829165936,,918.0036933999509,918.0036933999509,0.026041299104690552,0.13109929859638214,5.0,4.306153699755669,,,,,,,898.0038997996598,898.0038997996598,910.1036354005337,910.1036354005337,,,,6664,Moral,2024-07-08_10h56.39.255,MoralCondition_v2,2022.2.5,30.037886658803874,
14,0,14,0,1,0,1,0,,,,,,,,,,,,,,,,,,,,,,,,,,,,,,,,,,,,,,,,,,,,,,,,,,,,,922.3371191993356,922.3371191993356,0.00663440115749836,0.09844260104000568,6.0,2.8594144992530346,,,,,,,,,,,,,,6664,Moral,2024-07-08_10h56.39.255,MoralCondition_v2,2022.2.5,30.037886658803874,
14,0,14,0,2,0,2,0,,,,,,,,,,,,,,,,,,,,,,,,,,,,,,,,,,,,,,,,,,,,,,,,,,,,,925.253463299945,925.253463299945,0.009220600128173828,0.11553890071809292,6.0,1.440667200833559,,,,,,,,,,,,,,6664,Moral,2024-07-08_10h56.39.255,MoralCondition_v2,2022.2.5,30.037886658803874,
14,0,14,0,3,0,3,0,,,,,,,,,,,,,,,,,,,,,,,,,,,,,,,,,,,,,,,,,,,,,,,,,,,,,926.7199860997498,926.7199860997498,0.00759270042181015,0.0973553005605936,3.0,2.890913600102067,,,,,,,,,,,,,,6664,Moral,2024-07-08_10h56.39.255,MoralCondition_v2,2022.2.5,30.037886658803874,
14,0,14,0,4,0,4,0,,,,,,,,,,,,,,,,,,,,,,,,,,,,,,,,,,,,,,,,,,,,,,,,,,,,,929.6536894999444,929.6536894999444,0.007678201422095299,0.0978104006499052,3.0,1.8244845997542143,,,,,,,,,,,,,,6664,Moral,2024-07-08_10h56.39.255,MoralCondition_v2,2022.2.5,30.037886658803874,
14,0,14,0,5,0,5,0,,,,,,,,,,,,,,,,,,,,,,,,,,,,,,,,,,,,,,,,,,,,,,,,,,,,,931.5202427990735,931.5202427990735,0.007443798705935478,0.09764689952135086,5.0,2.1247588004916906,,,,,,,,,,,,,,6664,Moral,2024-07-08_10h56.39.255,MoralCondition_v2,2022.2.5,30.037886658803874,
14,0,14,0,6,0,6,0,,,,,,,,,,,,,,,,,,,,,,,,,,,,,,,,,,,,,,,,,,,,,,,,,,,,,933.7037518005818,933.7037518005818,0.008437300100922585,0.11424879916012287,6.0,3.240329999476671,,,,,,,,,,,,,,6664,Moral,2024-07-08_10h56.39.255,MoralCondition_v2,2022.2.5,30.037886658803874,
14,0,14,0,,,,,,,,,,,,,,,,,,,,,,,,,,,,,,,,,,,,,,,,,,,,,,,,,,,,,,,,,,,,,,,936.9704112000763,936.9704112000763,0.0013145990669727325,0.09804909862577915,2.0,4.6310936994850636,,,,,,,,6664,Moral,2024-07-08_10h56.39.255,MoralCondition_v2,2022.2.5,30.037886658803874,
15,0,15,0,0,0,0,0,,,,,,,,,,,,,,,,,,,,,,941.6371918004006,0.00013200007379055023,0.09951910004019737,947.6368003003299,5.9991803001612425,947.8035032004118,947.8035032004118,0.05862070061266422,0.16611420176923275,5.999164501205087,953.9034704007208,953.9034704007208,953.9034704007208,0.0532160010188818,0.1661916021257639,959.6034076996148,959.803404899314,5.999215200543404,6.098951600492001,965.8034956995398,11.99928830191493,965.9367075990885,965.9367075990885,-0.00032309815287590027,0.09911560080945492,down,1.6362417005002499,967.6201671008021,4.1600316762924194e-05,0.0979797001928091,973.6366252992302,973.6366252992302,973.6366252992302,0.011001700535416603,0.11464270018041134,6.0,2.937942499294877,,,,,,,953.803475400433,953.803475400433,965.903405899182,965.903405899182,6.099162200465798,6.099262800067663,12.099155900999904,6664,Moral,2024-07-08_10h56.39.255,MoralCondition_v2,2022.2.5,30.037886658803874,
15,0,15,0,1,0,1,0,,,,,,,,,,,,,,,,,,,,,,,,,,,,,,,,,,,,,,,,,,,,,,,,,,,,,976.6033654995263,976.6033654995263,0.006839601323008537,0.09808340109884739,1.0,1.2257058005779982,,,,,,,,,,,,,,6664,Moral,2024-07-08_10h56.39.255,MoralCondition_v2,2022.2.5,30.037886658803874,
15,0,15,0,2,0,2,0,,,,,,,,,,,,,,,,,,,,,,,,,,,,,,,,,,,,,,,,,,,,,,,,,,,,,977.869988899678,977.869988899678,0.007227400317788124,0.09795459918677807,1.0,2.225093999877572,,,,,,,,,,,,,,6664,Moral,2024-07-08_10h56.39.255,MoralCondition_v2,2022.2.5,30.037886658803874,
15,0,15,0,3,0,3,0,,,,,,,,,,,,,,,,,,,,,,,,,,,,,,,,,,,,,,,,,,,,,,,,,,,,,980.136488199234,980.136488199234,0.009155699983239174,0.09896870143711567,1.0,0.857914499938488,,,,,,,,,,,,,,6664,Moral,2024-07-08_10h56.39.255,MoralCondition_v2,2022.2.5,30.037886658803874,
15,0,15,0,4,0,4,0,,,,,,,,,,,,,,,,,,,,,,,,,,,,,,,,,,,,,,,,,,,,,,,,,,,,,981.0366900991648,981.0366900991648,0.0076739005744457245,0.09914540126919746,6.0,1.8592154998332262,,,,,,,,,,,,,,6664,Moral,2024-07-08_10h56.39.255,MoralCondition_v2,2022.2.5,30.037886658803874,
15,0,15,0,5,0,5,0,,,,,,,,,,,,,,,,,,,,,,,,,,,,,,,,,,,,,,,,,,,,,,,,,,,,,982.9366854000837,982.9366854000837,0.0075171999633312225,0.09767300076782703,7.0,3.7249717004597187,,,,,,,,,,,,,,6664,Moral,2024-07-08_10h56.39.255,MoralCondition_v2,2022.2.5,30.037886658803874,
15,0,15,0,6,0,6,0,,,,,,,,,,,,,,,,,,,,,,,,,,,,,,,,,,,,,,,,,,,,,,,,,,,,,986.7032095007598,986.7032095007598,0.006618300452828407,0.09913930110633373,1.0,2.6266472004354,,,,,,,,,,,,,,6664,Moral,2024-07-08_10h56.39.255,MoralCondition_v2,2022.2.5,30.037886658803874,
15,0,15,0,,,,,,,,,,,,,,,,,,,,,,,,,,,,,,,,,,,,,,,,,,,,,,,,,,,,,,,,,,,,,,,989.3698974996805,989.3698974996805,0.0007217004895210266,0.09910189919173717,1.0,2.3327400013804436,,,,,,,,6664,Moral,2024-07-08_10h56.39.255,MoralCondition_v2,2022.2.5,30.037886658803874,
16,0,16,0,0,0,0,0,,,,,,,,,,,,,,,,,,,,,,991.7367726005614,0.00032770074903964996,0.09740710072219372,997.7365509998053,6.0306339003145695,997.9366027992219,997.9366027992219,0.09321020171046257,0.19743300043046474,6.030441701412201,1004.0363724008203,1004.0363724008203,1004.0363724008203,0.0902521014213562,0.19726460054516792,1009.7364895995706,1009.9366372004151,6.030722601339221,6.130561200901866,1015.9363183006644,12.030315700918436,1016.0700736008584,1016.0700736008584,0.030787602066993713,0.13058670237660408,down,1.4231008999049664,1017.5531361997128,4.640035331249237e-05,0.09796440042555332,1023.5699397996068,1023.5699397996068,1023.5699397996068,0.009365901350975037,0.11471210047602654,1.0,3.20624059997499,,,,,,,1003.9365582000464,1003.9365582000464,1016.0365858003497,1016.0365858003497,,,,6664,Moral,2024-07-08_10h56.39.255,MoralCondition_v2,2022.2.5,30.037886658803874,
16,0,16,0,1,0,1,0,,,,,,,,,,,,,,,,,,,,,,,,,,,,,,,,,,,,,,,,,,,,,,,,,,,,,1026.80309679918,1026.80309679918,0.0068802013993263245,0.09758150018751621,6.0,3.958518199622631,,,,,,,,,,,,,,6664,Moral,2024-07-08_10h56.39.255,MoralCondition_v2,2022.2.5,30.037886658803874,
16,0,16,0,2,0,2,0,,,,,,,,,,,,,,,,,,,,,,,,,,,,,,,,,,,,,,,,,,,,,,,,,,,,,1030.8197313006967,1030.8197313006967,0.008920598775148392,0.1136987004429102,4.0,2.072401000186801,,,,,,,,,,,,,,6664,Moral,2024-07-08_10h56.39.255,MoralCondition_v2,2022.2.5,30.037886658803874,
16,0,16,0,3,0,3,0,,,,,,,,,,,,,,,,,,,,,,,,,,,,,,,,,,,,,,,,,,,,,,,,,,,,,1032.9197268001735,1032.9197268001735,0.007195999845862389,0.09802459925413132,6.0,1.5916671995073557,,,,,,,,,,,,,,6664,Moral,2024-07-08_10h56.39.255,MoralCondition_v2,2022.2.5,30.037886658803874,
16,0,16,0,4,0,4,0,,,,,,,,,,,,,,,,,,,,,,,,,,,,,,,,,,,,,,,,,,,,,,,,,,,,,1034.5529446993023,1034.5529446993023,0.006464499980211258,0.09909840114414692,1.0,1.1273240987211466,,,,,,,,,,,,,,6664,Moral,2024-07-08_10h56.39.255,MoralCondition_v2,2022.2.5,30.037886658803874,
16,0,16,0,5,0,5,0,,,,,,,,,,,,,,,,,,,,,,,,,,,,,,,,,,,,,,,,,,,,,,,,,,,,,1035.7196383997798,1035.7196383997798,0.007449498400092125,0.09790699928998947,1.0,0.99332519993186,,,,,,,,,,,,,,6664,Moral,2024-07-08_10h56.39.255,MoralCondition_v2,2022.2.5,30.037886658803874,
16,0,16,0,6,0,6,0,,,,,,,,,,,,,,,,,,,,,,,,,,,,,,,,,,,,,,,,,,,,,,,,,,,,,1036.7528754007071,1036.7528754007071,0.007606400176882744,0.09813269972801208,1.0,1.4915484003722668,,,,,,,,,,,,,,6664,Moral,2024-07-08_10h56.39.255,MoralCondition_v2,2022.2.5,30.037886658803874,
16,0,16,0,,,,,,,,,,,,,,,,,,,,,,,,,,,,,,,,,,,,,,,,,,,,,,,,,,,,,,,,,,,,,,,1038.2865763995796,1038.2865763995796,0.0012846998870372772,0.09773579984903336,1.0,2.5642056986689568,,,,,,,,6664,Moral,2024-07-08_10h56.39.255,MoralCondition_v2,2022.2.5,30.037886658803874,
17,0,17,0,0,0,0,0,,,,,,,,,,,,,,,,,,,,,,1040.886725999415,0.00014740042388439178,0.09938460029661655,1046.8863382991403,5.999392699450254,1047.0528768002987,1047.0528768002987,0.05992550030350685,0.1657218001782894,5.999199999496341,1053.1531275007874,1053.1531275007874,1053.1531275007874,0.05756090022623539,0.16606339998543262,1058.852945100516,1059.0529318992049,5.999274400994182,6.099264500662684,1065.0529523994774,11.999230900779366,1065.1862291004509,1065.1862291004509,0.00011040084064006805,0.099107401445508,up,0.34685310162603855,1065.5862271003425,4.3898820877075195e-05,0.09740989841520786,,1071.602778000757,1071.602778000757,0.020318899303674698,0.11424929834902287,2.0,3.1283654998987913,,,,,,,1053.0531029999256,1053.0531029999256,1065.1529303006828,1065.1529303006828,6.099226599559188,6.099462300539017,12.099249800667167,6664,Moral,2024-07-08_10h56.39.255,MoralCondition_v2,2022.2.5,30.037886658803874,
17,0,17,0,1,0,1,0,,,,,,,,,,,,,,,,,,,,,,,,,,,,,,,,,,,,,,,,,,,,,,,,,,,,,1074.7695418000221,1074.7695418000221,0.0074155014008283615,0.09753159992396832,2.0,1.8582576010376215,,,,,,,,,,,,,,6664,Moral,2024-07-08_10h56.39.255,MoralCondition_v2,2022.2.5,30.037886658803874,
17,0,17,0,2,0,2,0,,,,,,,,,,,,,,,,,,,,,,,,,,,,,,,,,,,,,,,,,,,,,,,,,,,,,1076.6862353999168,1076.6862353999168,0.007133400067687035,0.1135758999735117,2.0,1.907599799335003,,,,,,,,,,,,,,6664,Moral,2024-07-08_10h56.39.255,MoralCondition_v2,2022.2.5,30.037886658803874,
17,0,17,0,3,0,3,0,,,,,,,,,,,,,,,,,,,,,,,,,,,,,,,,,,,,,,,,,,,,,,,,,,,,,1078.6193119008094,1078.6193119008094,0.00865980051457882,0.0969817005097866,2.0,1.956275999546051,,,,,,,,,,,,,,6664,Moral,2024-07-08_10h56.39.255,MoralCondition_v2,2022.2.5,30.037886658803874,
17,0,17,0,4,0,4,0,,,,,,,,,,,,,,,,,,,,,,,,,,,,,,,,,,,,,,,,,,,,,,,,,,,,,1080.636277699843,1080.636277699843,0.00785760022699833,0.11433489993214607,2.0,1.4740377012640238,,,,,,,,,,,,,,6664,Moral,2024-07-08_10h56.39.255,MoralCondition_v2,2022.2.5,30.037886658803874,
17,0,17,0,5,0,5,0,,,,,,,,,,,,,,,,,,,,,,,,,,,,,,,,,,,,,,,,,,,,,,,,,,,,,1082.1528706997633,1082.1528706997633,0.0094464011490345,0.11489260010421276,5.0,3.572860499843955,,,,,,,,,,,,,,6664,Moral,2024-07-08_10h56.39.255,MoralCondition_v2,2022.2.5,30.037886658803874,
17,0,17,0,6,0,6,0,,,,,,,,,,,,,,,,,,,,,,,,,,,,,,,,,,,,,,,,,,,,,,,,,,,,,1085.7526664007455,1085.7526664007455,0.0068524982780218124,0.09932709857821465,3.0,2.5937015991657972,,,,,,,,,,,,,,6664,Moral,2024-07-08_10h56.39.255,MoralCondition_v2,2022.2.5,30.037886658803874,
17,0,17,0,,,,,,,,,,,,,,,,,,,,,,,,,,,,,,,,,,,,,,,,,,,,,,,,,,,,,,,,,,,,,,,1088.3861849997193,1088.3861849997193,0.0010607000440359116,0.09818149916827679,4.0,4.5983399990946054,,,,,,,,6664,Moral,2024-07-08_10h56.39.255,MoralCondition_v2,2022.2.5,30.037886658803874,
18,0,18,0,0,0,0,0,,,,,,,,,,,,,,,,,,,,,,1093.01983070001,0.00024990178644657135,0.09777410142123699,1099.019399099052,6.0310936011374,1099.2195491995662,1099.2195491995662,0.08995630219578743,0.19788090139627457,6.031311200931668,1105.3195597995073,1105.3195597995073,1105.3195597995073,0.09376690164208412,0.1979880016297102,1111.019447600469,1111.2193553000689,6.031089400872588,6.131007701158524,1117.2193129006773,12.031042302027345,1117.3526699002832,1117.3526699002832,0.031229902058839798,0.13098420202732086,up,0.5807883013039827,1117.9860102999955,4.0899962186813354e-05,0.09785169921815395,,1124.0192897003144,1124.0192897003144,0.024369999766349792,0.1311699990183115,6.0,8.107783598825336,,,,,,,1105.2194056995213,1105.2194056995213,1117.3193292990327,1117.3193292990327,,,,6664,Moral,2024-07-08_10h56.39.255,MoralCondition_v2,2022.2.5,30.037886658803874,
18,0,18,0,1,0,1,0,,,,,,,,,,,,,,,,,,,,,,,,,,,,,,,,,,,,,,,,,,,,,,,,,,,,,1132.1527318004519,1132.1527318004519,0.008663700893521309,0.09731739945709705,1.0,1.3896255008876324,,,,,,,,,,,,,,6664,Moral,2024-07-08_10h56.39.255,MoralCondition_v2,2022.2.5,30.037886658803874,
18,0,18,0,2,0,2,0,,,,,,,,,,,,,,,,,,,,,,,,,,,,,,,,,,,,,,,,,,,,,,,,,,,,,1133.5858945008367,1133.5858945008367,0.006830299273133278,0.09920349903404713,1.0,0.8266495000571012,,,,,,,,,,,,,,6664,Moral,2024-07-08_10h56.39.255,MoralCondition_v2,2022.2.5,30.037886658803874,
18,0,18,0,3,0,3,0,,,,,,,,,,,,,,,,,,,,,,,,,,,,,,,,,,,,,,,,,,,,,,,,,,,,,1134.4692621007562,1134.4692621007562,0.008945999667048454,0.11447209864854813,1.0,0.673149399459362,,,,,,,,,,,,,,6664,Moral,2024-07-08_10h56.39.255,MoralCondition_v2,2022.2.5,30.037886658803874,
18,0,18,0,4,0,4,0,,,,,,,,,,,,,,,,,,,,,,,,,,,,,,,,,,,,,,,,,,,,,,,,,,,,,1135.169193599373,1135.169193599373,0.007522899657487869,0.09871120005846024,1.0,0.992255799472332,,,,,,,,,,,,,,6664,Moral,2024-07-08_10h56.39.255,MoralCondition_v2,2022.2.5,30.037886658803874,
18,0,18,0,5,0,5,0,,,,,,,,,,,,,,,,,,,,,,,,,,,,,,,,,,,,,,,,,,,,,,,,,,,,,1136.2026272006333,1136.2026272006333,0.007415400817990303,0.09776639938354492,1.0,0.5915167983621359,,,,,,,,,,,,,,6664,Moral,2024-07-08_10h56.39.255,MoralCondition_v2,2022.2.5,30.037886658803874,
18,0,18,0,6,0,6,0,,,,,,,,,,,,,,,,,,,,,,,,,,,,,,,,,,,,,,,,,,,,,,,,,,,,,1136.8526850994676,1136.8526850994676,0.008443498983979225,0.1144728995859623,4.0,3.6072834003716707,,,,,,,,,,,,,,6664,Moral,2024-07-08_10h56.39.255,MoralCondition_v2,2022.2.5,30.037886658803874,
18,0,18,0,,,,,,,,,,,,,,,,,,,,,,,,,,,,,,,,,,,,,,,,,,,,,,,,,,,,,,,,,,,,,,,1140.4859095998108,1140.4859095998108,0.0007125008851289749,0.09912759996950626,7.0,2.9663483016192913,,,,,,,,6664,Moral,2024-07-08_10h56.39.255,MoralCondition_v2,2022.2.5,30.037886658803874,
19,0,19,0,0,0,0,0,,,,,,,,,,,,,,,,,,,,,,1143.4860954005271,0.00027679838240146637,0.09824729897081852,1149.5025139991194,6.014776198193431,1149.7526299003512,1149.7526299003512,0.15065659955143929,0.2647666987031698,6.031205600127578,1155.7856760006398,1155.7856760006398,1155.7856760006398,0.0814558994024992,0.1978813000023365,1161.4857590999454,1161.6859003007412,6.031334899365902,6.1311770007014275,1167.7024364992976,12.014457499608397,1167.8023182991892,1167.8023182991892,0.014817999675869942,0.1312774010002613,up,1.8913454003632069,1169.7168626002967,1.2099742889404297e-05,0.08467769995331764,,1175.735628399998,1175.735628399998,0.011236099526286125,0.10147150047123432,1.0,1.5579281002283096,,,,,,,,,,,,,,6664,Moral,2024-07-08_10h56.39.255,MoralCondition_v2,2022.2.5,30.037886658803874,
19,0,19,0,1,0,1,0,,,,,,,,,,,,,,,,,,,,,,,,,,,,,,,,,,,,,,,,,,,,,,,,,,,,,1177.3358763996512,1177.3358763996512,0.007482999935746193,0.09787460044026375,1.0,0.8912818003445864,,,,,,,,,,,,,,6664,Moral,2024-07-08_10h56.39.255,MoralCondition_v2,2022.2.5,30.037886658803874,
19,0,19,0,2,0,2,0,,,,,,,,,,,,,,,,,,,,,,,,,,,,,,,,,,,,,,,,,,,,,,,,,,,,,1178.2691971994936,1178.2691971994936,0.0075745005160570145,0.09773880057036877,1.0,0.4914005994796753,,,,,,,,,,,,,,6664,Moral,2024-07-08_10h56.39.255,MoralCondition_v2,2022.2.5,30.037886658803874,
19,0,19,0,3,0,3,0,,,,,,,,,,,,,,,,,,,,,,,,,,,,,,,,,,,,,,,,,,,,,,,,,,,,,1178.802448399365,1178.802448399365,0.0074292998760938644,0.09758280031383038,5.0,1.557931099087,,,,,,,,,,,,,,6664,Moral,2024-07-08_10h56.39.255,MoralCondition_v2,2022.2.5,30.037886658803874,
19,0,19,0,4,0,4,0,,,,,,,,,,,,,,,,,,,,,,,,,,,,,,,,,,,,,,,,,,,,,,,,,,,,,1180.4023889005184,1180.4023889005184,0.006534000858664513,0.09907099977135658,1.0,1.093663800507784,,,,,,,,,,,,,,6664,Moral,2024-07-08_10h56.39.255,MoralCondition_v2,2022.2.5,30.037886658803874,
19,0,19,0,5,0,5,0,,,,,,,,,,,,,,,,,,,,,,,,,,,,,,,,,,,,,,,,,,,,,,,,,,,,,1181.5357968006283,1181.5357968006283,0.006380699574947357,0.09917679987847805,1.0,3.2603881005197763,,,,,,,,,,,,,,6664,Moral,2024-07-08_10h56.39.255,MoralCondition_v2,2022.2.5,30.037886658803874,
19,0,19,0,6,0,6,0,,,,,,,,,,,,,,,,,,,,,,,,,,,,,,,,,,,,,,,,,,,,,,,,,,,,,1184.8527504000813,1184.8527504000813,0.008193299174308777,0.11417379975318909,1.0,0.8401880990713835,,,,,,,,,,,,,,6664,Moral,2024-07-08_10h56.39.255,MoralCondition_v2,2022.2.5,30.037886658803874,
19,0,19,0,,,,,,,,,,,,,,,,,,,,,,,,,,,,,,,,,,,,,,,,,,,,,,,,,,,,,,,,,,,,,,,1185.7190323006362,1185.7190323006362,0.0015118010342121124,0.09753470122814178,7.0,2.2304675988852978,,,,,,,,6664,Moral,2024-07-08_10h56.39.255,MoralCondition_v2,2022.2.5,30.037886658803874,
