loop.thisRepN,loop.thisTrialN,loop.thisN,loop.thisIndex,evaluate_all_emotions.thisRepN,evaluate_all_emotions.thisTrialN,evaluate_all_emotions.thisN,evaluate_all_emotions.thisIndex,sync_beep_1.started,p_port.started,p_port.stopped,sync_beep_1.stopped,sync_beep_2.started,sync_beep_3.started,sync_beep_3.stopped,sync_beep_4.started,sync_beep_4.stopped,baseline.started,p_port_2.started,p_port_2.stopped,baseline.stopped,p_port_3.started,Game_Start_Text.started,p_port_4.started,p_port_4.stopped,key_resp.started,key_resp.keys,key_resp.rt,fixation_cross.started,p_port_5.started,p_port_5.stopped,fixation_cross.stopped,p_port_6.started,player_image_intro.started,player_name_intro.started,p_port_7.started,p_port_7.stopped,p_port_8.started,player_image_offer.started,player_name_offer.started,proposed_split.started,p_port_9.started,p_port_9.stopped,proposed_split.stopped,accept_reject.started,p_port_15.started,p_port_15.stopped,accept_reject.stopped,p_port_10.started,player_image_offer.stopped,player_name_offer.stopped,arrow_instructions.started,offer_choice.started,p_port_11.started,p_port_11.stopped,offer_choice.keys,offer_choice.rt,Instructions_Affinity_Score.started,p_port_12.started,p_port_12.stopped,Emotion_Image.started,AffinityScore.started,p_port_13.started,p_port_13.stopped,AffinityScore.response,AffinityScore.rt,Instruction.started,Moral_Disgust_Score.started,p_port_14.started,p_port_14.stopped,Moral_Disgust_Score.response,Moral_Disgust_Score.rt,player_image_intro.stopped,player_name_intro.stopped,Instructions_Affinity_Score.stopped,p_port_6.stopped,p_port_10.stopped,participant,session,date,expName,psychopyVersion,frameRate,
,,,,,,,,16.747356599662453,0.000860600033774972,0.10796039993874729,17.064607299864292,17.331212060013787,17.93109065988101,18.231081099947914,18.547885759919883,18.864521899959072,18.864521899959072,0.010874100029468536,0.1081415000371635,33.88121459982358,15.024773599812761,33.964548599906266,0.00822839979082346,0.10808309982530773,34.43126729992218,space,9.431346599943936,,,,,,,,,,,,,,,,,,,,,,,,,,,,,,,,,,,,,,,,,,,,,,,,,,666,Moral,2024-09-19_16h32.50.514,MoralCondition_v2,2022.2.5,30.013563110154486,
0,0,0,0,0,0,0,0,,,,,,,,,,,,,,,,,,,,,43.8979155998677,0.0012787000741809607,0.09823699994012713,49.89788919989951,6.0316208999138325,50.214464199962094,50.214464199962094,0.17822909983806312,0.3149468000046909,6.014863699907437,56.1977003000211,56.1977003000211,56.1977003000211,0.07040919992141426,0.19831259991042316,61.897845999803394,62.0979824999813,6.031737999757752,6.1317472998052835,68.09784339996986,12.03157449979335,68.1978500999976,68.1978500999976,68.23119459999725,68.23119459999725,0.03179479972459376,0.13156559970229864,up,0.991313099861145,69.26466779992916,4.879990592598915e-05,0.0972142000682652,75.29825649992563,75.29825649992563,0.02653290005400777,0.1306988000869751,2.0,2.2383415000513196,,,,,,,,,,,,666,Moral,2024-09-19_16h32.50.514,MoralCondition_v2,2022.2.5,30.013563110154486,
0,0,0,0,1,0,1,0,,,,,,,,,,,,,,,,,,,,,,,,,,,,,,,,,,,,,,,,,,,,,,,,,,,,,77.5814666999504,77.5814666999504,0.01019329996779561,0.11460099997930229,2.0,0.2720578999724239,,,,,,,,,,,,666,Moral,2024-09-19_16h32.50.514,MoralCondition_v2,2022.2.5,30.013563110154486,
0,0,0,0,2,0,2,0,,,,,,,,,,,,,,,,,,,,,,,,,,,,,,,,,,,,,,,,,,,,,,,,,,,,,77.88101559993811,77.88101559993811,0.008525999961420894,0.09905579988844693,2.0,0.2915852000005543,,,,,,,,,,,,666,Moral,2024-09-19_16h32.50.514,MoralCondition_v2,2022.2.5,30.013563110154486,
0,0,0,0,3,0,3,0,,,,,,,,,,,,,,,,,,,,,,,,,,,,,,,,,,,,,,,,,,,,,,,,,,,,,78.23137459997088,78.23137459997088,0.010527499951422215,0.11394879990257323,2.0,0.23809610004536808,,,,,,,,,,,,666,Moral,2024-09-19_16h32.50.514,MoralCondition_v2,2022.2.5,30.013563110154486,
0,0,0,0,4,0,4,0,,,,,,,,,,,,,,,,,,,,,,,,,,,,,,,,,,,,,,,,,,,,,,,,,,,,,78.49793519987725,78.49793519987725,0.008734800154343247,0.09945109998807311,2.0,0.2581474999897182,,,,,,,,,,,,666,Moral,2024-09-19_16h32.50.514,MoralCondition_v2,2022.2.5,30.013563110154486,
0,0,0,0,5,0,5,0,,,,,,,,,,,,,,,,,,,,,,,,,,,,,,,,,,,,,,,,,,,,,,,,,,,,,78.79781739995815,78.79781739995815,0.01014139992184937,0.09787299996241927,2.0,0.25532189989462495,,,,,,,,,,,,666,Moral,2024-09-19_16h32.50.514,MoralCondition_v2,2022.2.5,30.013563110154486,
0,0,0,0,6,0,6,0,,,,,,,,,,,,,,,,,,,,,,,,,,,,,,,,,,,,,,,,,,,,,,,,,,,,,79.0978204999119,79.0978204999119,0.008375499863177538,0.09907360002398491,2.0,0.2588368998840451,,,,,,,,,,,,666,Moral,2024-09-19_16h32.50.514,MoralCondition_v2,2022.2.5,30.013563110154486,
0,0,0,0,,,,,,,,,,,,,,,,,,,,,,,,,,,,,,,,,,,,,,,,,,,,,,,,,,,,,,,,,,,,,,,79.3978903000243,79.3978903000243,0.0012733000330626965,0.09770689997822046,2.0,0.664068500045687,,,,,,666,Moral,2024-09-19_16h32.50.514,MoralCondition_v2,2022.2.5,30.013563110154486,
1,0,1,0,0,0,0,0,,,,,,,,,,,,,,,,,,,,,80.09781469986774,0.00014040013775229454,0.09937160019762814,86.11452059983276,6.015814800048247,86.38112489995547,86.38112489995547,0.16491369996219873,0.28251280006952584,6.015792400110513,92.38107449980453,92.38107449980453,92.38107449980453,0.07068279990926385,0.1824882000219077,98.08118269988336,98.28115849988535,6.01584509992972,6.11583839985542,104.28115940000862,12.01587300002575,104.38116270001046,104.38116270001046,104.4145022998564,104.4145022998564,0.016005899757146835,0.1159221997950226,up,0.8239440999459475,105.28117019985802,4.009995609521866e-05,0.11067870003171265,111.29761020001024,111.29761020001024,0.024024900048971176,0.11441959999501705,2.0,4.891505300067365,,,,,,,,,,,,666,Moral,2024-09-19_16h32.50.514,MoralCondition_v2,2022.2.5,30.013563110154486,
1,0,1,0,1,0,1,0,,,,,,,,,,,,,,,,,,,,,,,,,,,,,,,,,,,,,,,,,,,,,,,,,,,,,116.23092979984358,116.23092979984358,0.006523899966850877,0.09925369988195598,2.0,0.29377470002509654,,,,,,,,,,,,666,Moral,2024-09-19_16h32.50.514,MoralCondition_v2,2022.2.5,30.013563110154486,
1,0,1,0,2,0,2,0,,,,,,,,,,,,,,,,,,,,,,,,,,,,,,,,,,,,,,,,,,,,,,,,,,,,,116.58146109990776,116.58146109990776,0.007547999965026975,0.11454400001093745,2.0,0.24104110011830926,,,,,,,,,,,,666,Moral,2024-09-19_16h32.50.514,MoralCondition_v2,2022.2.5,30.013563110154486,
1,0,1,0,3,0,3,0,,,,,,,,,,,,,,,,,,,,,,,,,,,,,,,,,,,,,,,,,,,,,,,,,,,,,116.84773759986274,116.84773759986274,0.0059738000854849815,0.09876270010136068,2.0,0.1939544000197202,,,,,,,,,,,,666,Moral,2024-09-19_16h32.50.514,MoralCondition_v2,2022.2.5,30.013563110154486,
1,0,1,0,4,0,4,0,,,,,,,,,,,,,,,,,,,,,,,,,,,,,,,,,,,,,,,,,,,,,,,,,,,,,117.08122549997643,117.08122549997643,0.0052918000146746635,0.09908549999818206,2.0,0.1947055000346154,,,,,,,,,,,,666,Moral,2024-09-19_16h32.50.514,MoralCondition_v2,2022.2.5,30.013563110154486,
1,0,1,0,5,0,5,0,,,,,,,,,,,,,,,,,,,,,,,,,,,,,,,,,,,,,,,,,,,,,,,,,,,,,117.31425679987296,117.31425679987296,0.008138499921187758,0.0980175998993218,2.0,0.19118759990669787,,,,,,,,,,,,666,Moral,2024-09-19_16h32.50.514,MoralCondition_v2,2022.2.5,30.013563110154486,
1,0,1,0,6,0,6,0,,,,,,,,,,,,,,,,,,,,,,,,,,,,,,,,,,,,,,,,,,,,,,,,,,,,,117.54782279999927,117.54782279999927,0.006578100146725774,0.09903790010139346,2.0,0.22684919997118413,,,,,,,,,,,,666,Moral,2024-09-19_16h32.50.514,MoralCondition_v2,2022.2.5,30.013563110154486,
1,0,1,0,,,,,,,,,,,,,,,,,,,,,,,,,,,,,,,,,,,,,,,,,,,,,,,,,,,,,,,,,,,,,,,117.81442459998652,117.81442459998652,0.0017182999290525913,0.09785360004752874,2.0,0.1973822999279946,,,,,,666,Moral,2024-09-19_16h32.50.514,MoralCondition_v2,2022.2.5,30.013563110154486,
2,0,2,0,0,0,0,0,,,,,,,,,,,,,,,,,,,,,118.04783809999935,0.00039579998701810837,0.09726619999855757,124.06447059987113,6.0138179999776185,124.23123829998076,124.23123829998076,0.06813959986902773,0.1805265999864787,6.01384609984234,130.3311989000067,130.3311989000067,130.3311989000067,0.06510749994777143,0.18049219995737076,136.03155049984343,136.2311286998447,6.013837999897078,6.113870199769735,142.23114479985088,12.013888099929318,142.33115429989994,142.33115429989994,142.36450079991482,142.36450079991482,0.014086099807173014,0.11380289983935654,down,1.6093852000776678,144.0311246998608,4.259985871613026e-05,0.09790089982561767,150.03162959986366,150.03162959986366,0.009241199819371104,0.09805189981125295,2.0,8.156360100023448,,,,,,,130.23116099997424,130.23116099997424,150.03162959986366,,,666,Moral,2024-09-19_16h32.50.514,MoralCondition_v2,2022.2.5,30.013563110154486,
2,0,2,0,1,0,1,0,,,,,,,,,,,,,,,,,,,,,,,,,,,,,,,,,,,,,,,,,,,,,,,,,,,,,158.23110729991458,158.23110729991458,0.007239900063723326,0.09971529990434647,2.0,0.19287650007754564,,,,,,,,,,,,666,Moral,2024-09-19_16h32.50.514,MoralCondition_v2,2022.2.5,30.013563110154486,
2,0,2,0,2,0,2,0,,,,,,,,,,,,,,,,,,,,,,,,,,,,,,,,,,,,,,,,,,,,,,,,,,,,,158.4643651000224,158.4643651000224,0.006582800066098571,0.09917620010674,2.0,0.1937082998920232,,,,,,,,,,,,666,Moral,2024-09-19_16h32.50.514,MoralCondition_v2,2022.2.5,30.013563110154486,
2,0,2,0,3,0,3,0,,,,,,,,,,,,,,,,,,,,,,,,,,,,,,,,,,,,,,,,,,,,,,,,,,,,,158.69786339998245,158.69786339998245,0.007555800024420023,0.09723790013231337,2.0,0.1906904000788927,,,,,,,,,,,,666,Moral,2024-09-19_16h32.50.514,MoralCondition_v2,2022.2.5,30.013563110154486,
2,0,2,0,4,0,4,0,,,,,,,,,,,,,,,,,,,,,,,,,,,,,,,,,,,,,,,,,,,,,,,,,,,,,158.93098969990388,158.93098969990388,0.007296200143173337,0.0979933999478817,2.0,0.19162840000353754,,,,,,,,,,,,666,Moral,2024-09-19_16h32.50.514,MoralCondition_v2,2022.2.5,30.013563110154486,
2,0,2,0,5,0,5,0,,,,,,,,,,,,,,,,,,,,,,,,,,,,,,,,,,,,,,,,,,,,,,,,,,,,,159.16455089999363,159.16455089999363,0.007570100016891956,0.09769029985181987,2.0,0.5910400000866503,,,,,,,,,,,,666,Moral,2024-09-19_16h32.50.514,MoralCondition_v2,2022.2.5,30.013563110154486,
2,0,2,0,6,0,6,0,,,,,,,,,,,,,,,,,,,,,,,,,,,,,,,,,,,,,,,,,,,,,,,,,,,,,159.81455069989897,159.81455069989897,0.008110799826681614,0.11450719996355474,2.0,0.5744331001769751,,,,,,,,,,,,666,Moral,2024-09-19_16h32.50.514,MoralCondition_v2,2022.2.5,30.013563110154486,
2,0,2,0,,,,,,,,,,,,,,,,,,,,,,,,,,,,,,,,,,,,,,,,,,,,,,,,,,,,,,,,,,,,,,,160.4144021999091,160.4144021999091,0.001309199957177043,0.0978842000477016,2.0,0.7978819999843836,,,,,,666,Moral,2024-09-19_16h32.50.514,MoralCondition_v2,2022.2.5,30.013563110154486,
3,0,3,0,0,0,0,0,,,,,,,,,,,,,,,,,,,,,161.24786499980837,0.0003893000539392233,0.09698239993304014,167.2644495998975,6.013669099891558,167.43101960001513,167.43101960001513,0.08213839982636273,0.18037259997799993,6.013649099972099,173.5143116998952,173.5143116998952,173.5143116998952,0.06720399972982705,0.16368809971027076,179.21445530001074,179.4477948998101,6.030358899850398,6.130368099780753,185.4477933999151,12.030352899804711,185.51445949985646,185.51445949985646,185.58113439986482,185.58113439986482,0.03045399975962937,0.13032279978506267,up,1.1617064999882132,186.78114579990506,3.909994848072529e-05,0.09766420000232756,192.79770480003208,192.79770480003208,0.009957200149074197,0.11407580017112195,2.0,3.305400300072506,,,,,,,173.4311563000083,173.4311563000083,192.79770480003208,,,666,Moral,2024-09-19_16h32.50.514,MoralCondition_v2,2022.2.5,30.013563110154486,
3,0,3,0,1,0,1,0,,,,,,,,,,,,,,,,,,,,,,,,,,,,,,,,,,,,,,,,,,,,,,,,,,,,,196.13111369987018,196.13111369987018,0.006420700112357736,0.0984902000054717,2.0,0.1597776000853628,,,,,,,,,,,,666,Moral,2024-09-19_16h32.50.514,MoralCondition_v2,2022.2.5,30.013563110154486,
3,0,3,0,2,0,2,0,,,,,,,,,,,,,,,,,,,,,,,,,,,,,,,,,,,,,,,,,,,,,,,,,,,,,196.34787089983,196.34787089983,0.009146200027316809,0.11602640012279153,2.0,0.20767039991915226,,,,,,,,,,,,666,Moral,2024-09-19_16h32.50.514,MoralCondition_v2,2022.2.5,30.013563110154486,
3,0,3,0,3,0,3,0,,,,,,,,,,,,,,,,,,,,,,,,,,,,,,,,,,,,,,,,,,,,,,,,,,,,,196.5810684999451,196.5810684999451,0.007374200038611889,0.09763429989106953,2.0,0.19134259992279112,,,,,,,,,,,,666,Moral,2024-09-19_16h32.50.514,MoralCondition_v2,2022.2.5,30.013563110154486,
3,0,3,0,4,0,4,0,,,,,,,,,,,,,,,,,,,,,,,,,,,,,,,,,,,,,,,,,,,,,,,,,,,,,196.83124800003134,196.83124800003134,0.007649500155821443,0.11444500018842518,2.0,0.2078462999779731,,,,,,,,,,,,666,Moral,2024-09-19_16h32.50.514,MoralCondition_v2,2022.2.5,30.013563110154486,
3,0,3,0,5,0,5,0,,,,,,,,,,,,,,,,,,,,,,,,,,,,,,,,,,,,,,,,,,,,,,,,,,,,,197.0646545998752,197.0646545998752,0.007799099897965789,0.09727399982511997,2.0,0.6238935999572277,,,,,,,,,,,,666,Moral,2024-09-19_16h32.50.514,MoralCondition_v2,2022.2.5,30.013563110154486,
3,0,3,0,6,0,6,0,,,,,,,,,,,,,,,,,,,,,,,,,,,,,,,,,,,,,,,,,,,,,,,,,,,,,197.7310955999419,197.7310955999419,0.006363700143992901,0.09966940013691783,2.0,0.5605266001075506,,,,,,,,,,,,666,Moral,2024-09-19_16h32.50.514,MoralCondition_v2,2022.2.5,30.013563110154486,
3,0,3,0,,,,,,,,,,,,,,,,,,,,,,,,,,,,,,,,,,,,,,,,,,,,,,,,,,,,,,,,,,,,,,,198.33134569996037,198.33134569996037,0.0006868001073598862,0.09929540008306503,2.0,0.7663565000984818,,,,,,666,Moral,2024-09-19_16h32.50.514,MoralCondition_v2,2022.2.5,30.013563110154486,
4,0,4,0,0,0,0,0,,,,,,,,,,,,,,,,,,,,,199.1314085999038,0.00013509998098015785,0.0993423000909388,205.13110729982145,5.999252900015563,205.28110439982265,205.28110439982265,0.050335099920630455,0.14935079985298216,6.015874299919233,211.39763699984178,211.39763699984178,211.39763699984178,0.06979139987379313,0.16591269988566637,217.0977940999437,217.2977483998984,5.999232299858704,6.099190699867904,223.29778169980273,11.999266299884766,223.3979056000244,223.3979056000244,223.4311148999259,223.4311148999259,0.00031629973091185093,0.09917399985715747,down,1.2469645999372005,224.71444399980828,3.600004129111767e-05,0.0979261000175029,230.74779699998908,230.74779699998908,0.025835599983111024,0.13110939995385706,4.0,1.4062797999940813,,,,,,,211.28109599999152,211.28109599999152,,6.099332000128925,12.099416199838743,666,Moral,2024-09-19_16h32.50.514,MoralCondition_v2,2022.2.5,30.013563110154486,
4,0,4,0,1,0,1,0,,,,,,,,,,,,,,,,,,,,,,,,,,,,,,,,,,,,,,,,,,,,,,,,,,,,,232.19779559993185,232.19779559993185,0.00780980009585619,0.11439110012724996,4.0,0.24072590004652739,,,,,,,,,,,,666,Moral,2024-09-19_16h32.50.514,MoralCondition_v2,2022.2.5,30.013563110154486,
4,0,4,0,2,0,2,0,,,,,,,,,,,,,,,,,,,,,,,,,,,,,,,,,,,,,,,,,,,,,,,,,,,,,232.46429919986986,232.46429919986986,0.007217200007289648,0.09757250011898577,4.0,0.2914575000759214,,,,,,,,,,,,666,Moral,2024-09-19_16h32.50.514,MoralCondition_v2,2022.2.5,30.013563110154486,
4,0,4,0,3,0,3,0,,,,,,,,,,,,,,,,,,,,,,,,,,,,,,,,,,,,,,,,,,,,,,,,,,,,,232.7978391998913,232.7978391998913,0.007879100041463971,0.09762099990621209,4.0,0.25715459999628365,,,,,,,,,,,,666,Moral,2024-09-19_16h32.50.514,MoralCondition_v2,2022.2.5,30.013563110154486,
4,0,4,0,4,0,4,0,,,,,,,,,,,,,,,,,,,,,,,,,,,,,,,,,,,,,,,,,,,,,,,,,,,,,233.09773779986426,233.09773779986426,0.007476000115275383,0.09757510013878345,4.0,0.22464450006373227,,,,,,,,,,,,666,Moral,2024-09-19_16h32.50.514,MoralCondition_v2,2022.2.5,30.013563110154486,
4,0,4,0,5,0,5,0,,,,,,,,,,,,,,,,,,,,,,,,,,,,,,,,,,,,,,,,,,,,,,,,,,,,,233.36427899985574,233.36427899985574,0.006648299982771277,0.0993284999858588,4.0,0.32702720002271235,,,,,,,,,,,,666,Moral,2024-09-19_16h32.50.514,MoralCondition_v2,2022.2.5,30.013563110154486,
4,0,4,0,6,0,6,0,,,,,,,,,,,,,,,,,,,,,,,,,,,,,,,,,,,,,,,,,,,,,,,,,,,,,233.7309202000033,233.7309202000033,0.0064045998733490705,0.09916149987839162,4.0,0.29377060011029243,,,,,,,,,,,,666,Moral,2024-09-19_16h32.50.514,MoralCondition_v2,2022.2.5,30.013563110154486,
4,0,4,0,,,,,,,,,,,,,,,,,,,,,,,,,,,,,,,,,,,,,,,,,,,,,,,,,,,,,,,,,,,,,,,234.06441729981452,234.06441729981452,0.0007211000192910433,0.09917900012806058,4.0,0.8662437000311911,,,,,,666,Moral,2024-09-19_16h32.50.514,MoralCondition_v2,2022.2.5,30.013563110154486,
5,0,5,0,0,0,0,0,,,,,,,,,,,,,,,,,,,,,234.96472529997118,0.00013739988207817078,0.09933939995244145,240.98108249995857,6.015965599799529,241.1812286998611,241.1812286998611,0.10306289978325367,0.2159812997560948,6.015944799873978,247.24766819993965,247.24766819993965,247.24766819993965,0.0725876996293664,0.1826409997884184,252.94774799980223,253.14771489985287,6.0159538998268545,6.116043199785054,259.1477756998502,12.016013799700886,259.2477575999219,259.2477575999219,259.28107259981334,259.28107259981334,0.016270799562335014,0.11590889957733452,down,2.133594600018114,261.44772159983404,4.710000939667225e-05,0.09748939983546734,267.4643582999706,267.4643582999706,0.010519499890506268,0.11399989994242787,2.0,1.9381068001966923,,,,,,,,,267.4643582999706,,,666,Moral,2024-09-19_16h32.50.514,MoralCondition_v2,2022.2.5,30.013563110154486,
5,0,5,0,1,0,1,0,,,,,,,,,,,,,,,,,,,,,,,,,,,,,,,,,,,,,,,,,,,,,,,,,,,,,269.4312596998643,269.4312596998643,0.006768400082364678,0.09816740010865033,2.0,0.1925097000785172,,,,,,,,,,,,666,Moral,2024-09-19_16h32.50.514,MoralCondition_v2,2022.2.5,30.013563110154486,
5,0,5,0,2,0,2,0,,,,,,,,,,,,,,,,,,,,,,,,,,,,,,,,,,,,,,,,,,,,,,,,,,,,,269.66464450000785,269.66464450000785,0.0069824999663978815,0.09785089991055429,2.0,0.19172829994931817,,,,,,,,,,,,666,Moral,2024-09-19_16h32.50.514,MoralCondition_v2,2022.2.5,30.013563110154486,
5,0,5,0,3,0,3,0,,,,,,,,,,,,,,,,,,,,,,,,,,,,,,,,,,,,,,,,,,,,,,,,,,,,,269.8978436999023,269.8978436999023,0.006515600020065904,0.0993526999372989,2.0,0.19395469990558922,,,,,,,,,,,,666,Moral,2024-09-19_16h32.50.514,MoralCondition_v2,2022.2.5,30.013563110154486,
5,0,5,0,4,0,4,0,,,,,,,,,,,,,,,,,,,,,,,,,,,,,,,,,,,,,,,,,,,,,,,,,,,,,270.1310050999746,270.1310050999746,0.009041600162163377,0.099339600186795,2.0,0.19147740001790226,,,,,,,,,,,,666,Moral,2024-09-19_16h32.50.514,MoralCondition_v2,2022.2.5,30.013563110154486,
5,0,5,0,5,0,5,0,,,,,,,,,,,,,,,,,,,,,,,,,,,,,,,,,,,,,,,,,,,,,,,,,,,,,270.36434909980744,270.36434909980744,0.007246500113978982,0.09788960008881986,2.0,0.19171870010904968,,,,,,,,,,,,666,Moral,2024-09-19_16h32.50.514,MoralCondition_v2,2022.2.5,30.013563110154486,
5,0,5,0,6,0,6,0,,,,,,,,,,,,,,,,,,,,,,,,,,,,,,,,,,,,,,,,,,,,,,,,,,,,,270.59791869996116,270.59791869996116,0.0067483000457286835,0.09929189993999898,2.0,0.1938523999415338,,,,,,,,,,,,666,Moral,2024-09-19_16h32.50.514,MoralCondition_v2,2022.2.5,30.013563110154486,
5,0,5,0,,,,,,,,,,,,,,,,,,,,,,,,,,,,,,,,,,,,,,,,,,,,,,,,,,,,,,,,,,,,,,,270.83120749983937,270.83120749983937,0.00099539989605546,0.0978840000461787,2.0,0.9979074001312256,,,,,,666,Moral,2024-09-19_16h32.50.514,MoralCondition_v2,2022.2.5,30.013563110154486,
6,0,6,0,0,0,0,0,,,,,,,,,,,,,,,,,,,,,271.8645988998469,0.0003548001404851675,0.09775250009261072,277.88104499992914,6.014349500183016,278.0308507999871,278.0308507999871,0.06593789998441935,0.16432969993911684,6.031134200049564,284.14755979995243,284.14755979995243,284.14755979995243,0.0661866997834295,0.1810246999375522,289.8477084999904,290.0476774999406,6.014351699966937,6.114345999900252,296.0477314000018,12.014408899936825,296.1477623998653,296.1477623998653,296.1813550000079,296.1813550000079,0.014639199711382389,0.1145264997612685,down,0.5608143000863492,296.78106429986656,3.5899924114346504e-05,0.09801129996776581,302.81430979981087,302.81430979981087,0.026280400110408664,0.13129339995793998,2.0,1.3728165999054909,,,,,,,284.0144350999035,284.0144350999035,,,,666,Moral,2024-09-19_16h32.50.514,MoralCondition_v2,2022.2.5,30.013563110154486,
6,0,6,0,1,0,1,0,,,,,,,,,,,,,,,,,,,,,,,,,,,,,,,,,,,,,,,,,,,,,,,,,,,,,304.21442599990405,304.21442599990405,0.008243300020694733,0.09797560004517436,2.0,0.22396820015273988,,,,,,,,,,,,666,Moral,2024-09-19_16h32.50.514,MoralCondition_v2,2022.2.5,30.013563110154486,
6,0,6,0,2,0,2,0,,,,,,,,,,,,,,,,,,,,,,,,,,,,,,,,,,,,,,,,,,,,,,,,,,,,,304.48095320002176,304.48095320002176,0.009258599951863289,0.09948650002479553,2.0,0.22438759985379875,,,,,,,,,,,,666,Moral,2024-09-19_16h32.50.514,MoralCondition_v2,2022.2.5,30.013563110154486,
6,0,6,0,3,0,3,0,,,,,,,,,,,,,,,,,,,,,,,,,,,,,,,,,,,,,,,,,,,,,,,,,,,,,304.74752839980647,304.74752839980647,0.0064067000057548285,0.09954029996879399,2.0,0.19412650004960597,,,,,,,,,,,,666,Moral,2024-09-19_16h32.50.514,MoralCondition_v2,2022.2.5,30.013563110154486,
6,0,6,0,4,0,4,0,,,,,,,,,,,,,,,,,,,,,,,,,,,,,,,,,,,,,,,,,,,,,,,,,,,,,304.98099919990636,304.98099919990636,0.007638600189238787,0.0979228001087904,2.0,0.19130860012955964,,,,,,,,,,,,666,Moral,2024-09-19_16h32.50.514,MoralCondition_v2,2022.2.5,30.013563110154486,
6,0,6,0,5,0,5,0,,,,,,,,,,,,,,,,,,,,,,,,,,,,,,,,,,,,,,,,,,,,,,,,,,,,,305.2142796998378,305.2142796998378,0.006392000010237098,0.09934980003163218,2.0,0.22731840005144477,,,,,,,,,,,,666,Moral,2024-09-19_16h32.50.514,MoralCondition_v2,2022.2.5,30.013563110154486,
6,0,6,0,6,0,6,0,,,,,,,,,,,,,,,,,,,,,,,,,,,,,,,,,,,,,,,,,,,,,,,,,,,,,305.48095469991677,305.48095469991677,0.0072610999923199415,0.09792830003425479,2.0,0.22498549986630678,,,,,,,,,,,,666,Moral,2024-09-19_16h32.50.514,MoralCondition_v2,2022.2.5,30.013563110154486,
6,0,6,0,,,,,,,,,,,,,,,,,,,,,,,,,,,,,,,,,,,,,,,,,,,,,,,,,,,,,,,,,,,,,,,305.74756809999235,305.74756809999235,0.002197700086981058,0.09753599995747209,2.0,0.2297165000345558,,,,,,666,Moral,2024-09-19_16h32.50.514,MoralCondition_v2,2022.2.5,30.013563110154486,
7,0,7,0,0,0,0,0,,,,,,,,,,,,,,,,,,,,,306.0144487998914,0.00045080017298460007,0.09709940012544394,312.01458920002915,6.030739800073206,312.28083379985765,312.28083379985765,0.16062130010686815,0.263757900102064,6.030512199969962,318.31427129986696,318.31427129986696,318.31427129986696,0.08918959996663034,0.19711549999192357,324.0143314998131,324.21432149992324,6.030454499879852,6.130427199881524,330.2143090998288,12.03043229994364,330.3142724998761,330.3142724998761,330.34777410002425,330.34777410002425,0.030581799801439047,0.1303943998645991,down,9.242887299973518,339.64765229984187,5.320017226040363e-05,0.09788940008729696,345.6475674000103,345.6475674000103,0.00868960004299879,0.09779490018263459,2.0,9.290148000000045,,,,,,,,,345.6475674000103,,,666,Moral,2024-09-19_16h32.50.514,MoralCondition_v2,2022.2.5,30.013563110154486,
7,0,7,0,1,0,1,0,,,,,,,,,,,,,,,,,,,,,,,,,,,,,,,,,,,,,,,,,,,,,,,,,,,,,354.98082949989475,354.98082949989475,0.0072372001595795155,0.09782710019499063,2.0,0.22490899986587465,,,,,,,,,,,,666,Moral,2024-09-19_16h32.50.514,MoralCondition_v2,2022.2.5,30.013563110154486,
7,0,7,0,2,0,2,0,,,,,,,,,,,,,,,,,,,,,,,,,,,,,,,,,,,,,,,,,,,,,,,,,,,,,355.2474997998215,355.2474997998215,0.007333299843594432,0.09794280002824962,2.0,0.19163840007968247,,,,,,,,,,,,666,Moral,2024-09-19_16h32.50.514,MoralCondition_v2,2022.2.5,30.013563110154486,
7,0,7,0,3,0,3,0,,,,,,,,,,,,,,,,,,,,,,,,,,,,,,,,,,,,,,,,,,,,,,,,,,,,,355.4978624000214,355.4978624000214,0.00956359994597733,0.11594649986363947,2.0,0.2071767000015825,,,,,,,,,,,,666,Moral,2024-09-19_16h32.50.514,MoralCondition_v2,2022.2.5,30.013563110154486,
7,0,7,0,4,0,4,0,,,,,,,,,,,,,,,,,,,,,,,,,,,,,,,,,,,,,,,,,,,,,,,,,,,,,355.73077469994314,355.73077469994314,0.008264400064945221,0.09802919998764992,2.0,0.19085110002197325,,,,,,,,,,,,666,Moral,2024-09-19_16h32.50.514,MoralCondition_v2,2022.2.5,30.013563110154486,
7,0,7,0,5,0,5,0,,,,,,,,,,,,,,,,,,,,,,,,,,,,,,,,,,,,,,,,,,,,,,,,,,,,,355.9641919999849,355.9641919999849,0.00655279983766377,0.09879339998587966,2.0,0.1932496998924762,,,,,,,,,,,,666,Moral,2024-09-19_16h32.50.514,MoralCondition_v2,2022.2.5,30.013563110154486,
7,0,7,0,6,0,6,0,,,,,,,,,,,,,,,,,,,,,,,,,,,,,,,,,,,,,,,,,,,,,,,,,,,,,356.19762929994613,356.19762929994613,0.007553800009191036,0.09755559987388551,2.0,0.19101910013705492,,,,,,,,,,,,666,Moral,2024-09-19_16h32.50.514,MoralCondition_v2,2022.2.5,30.013563110154486,
7,0,7,0,,,,,,,,,,,,,,,,,,,,,,,,,,,,,,,,,,,,,,,,,,,,,,,,,,,,,,,,,,,,,,,356.43101949989796,356.43101949989796,0.001706999959424138,0.09706919989548624,2.0,0.19651590008288622,,,,,,666,Moral,2024-09-19_16h32.50.514,MoralCondition_v2,2022.2.5,30.013563110154486,
8,0,8,0,0,0,0,0,,,,,,,,,,,,,,,,,,,,,356.66451669996604,0.0003684000112116337,0.09741469984874129,362.6809731000103,6.014077899977565,362.8474766998552,362.8474766998552,0.06679359986446798,0.18075559986755252,6.014079799875617,368.9475500998087,368.9475500998087,368.9475500998087,0.06737179984338582,0.1808942996431142,374.64764490001835,374.84761099983007,6.014103999827057,6.1140580996870995,380.8476032000035,12.014114699792117,380.9475358999334,380.9475358999334,380.98093639989384,380.98093639989384,0.014256799593567848,0.11403929954394698,down,8.161418700125068,389.18092009983957,3.7899939343333244e-05,0.09798659989610314,395.1975389998406,395.1975389998406,0.009611999848857522,0.11449649999849498,3.0,3.372561200056225,,,,,,,368.84759170003235,368.84759170003235,395.1975389998406,,,666,Moral,2024-09-19_16h32.50.514,MoralCondition_v2,2022.2.5,30.013563110154486,
8,0,8,0,1,0,1,0,,,,,,,,,,,,,,,,,,,,,,,,,,,,,,,,,,,,,,,,,,,,,,,,,,,,,398.59737770003267,398.59737770003267,0.007662000134587288,0.09751300001516938,3.0,0.1911301000509411,,,,,,,,,,,,666,Moral,2024-09-19_16h32.50.514,MoralCondition_v2,2022.2.5,30.013563110154486,
8,0,8,0,2,0,2,0,,,,,,,,,,,,,,,,,,,,,,,,,,,,,,,,,,,,,,,,,,,,,,,,,,,,,398.8307899998035,398.8307899998035,0.0065454000141471624,0.0992658999748528,3.0,0.19422940001823008,,,,,,,,,,,,666,Moral,2024-09-19_16h32.50.514,MoralCondition_v2,2022.2.5,30.013563110154486,
8,0,8,0,3,0,3,0,,,,,,,,,,,,,,,,,,,,,,,,,,,,,,,,,,,,,,,,,,,,,,,,,,,,,399.06423639995046,399.06423639995046,0.006498800124973059,0.09875780018046498,3.0,0.1931065001990646,,,,,,,,,,,,666,Moral,2024-09-19_16h32.50.514,MoralCondition_v2,2022.2.5,30.013563110154486,
8,0,8,0,4,0,4,0,,,,,,,,,,,,,,,,,,,,,,,,,,,,,,,,,,,,,,,,,,,,,,,,,,,,,399.2978244998958,399.2978244998958,0.008047000039368868,0.09737020009197295,3.0,0.19037640001624823,,,,,,,,,,,,666,Moral,2024-09-19_16h32.50.514,MoralCondition_v2,2022.2.5,30.013563110154486,
8,0,8,0,5,0,5,0,,,,,,,,,,,,,,,,,,,,,,,,,,,,,,,,,,,,,,,,,,,,,,,,,,,,,399.53103980002925,399.53103980002925,0.007430700119584799,0.0977016999386251,3.0,0.15818669996224344,,,,,,,,,,,,666,Moral,2024-09-19_16h32.50.514,MoralCondition_v2,2022.2.5,30.013563110154486,
8,0,8,0,6,0,6,0,,,,,,,,,,,,,,,,,,,,,,,,,,,,,,,,,,,,,,,,,,,,,,,,,,,,,399.7308630000334,399.7308630000334,0.007145300041884184,0.09751610015518963,3.0,0.15820679999887943,,,,,,,,,,,,666,Moral,2024-09-19_16h32.50.514,MoralCondition_v2,2022.2.5,30.013563110154486,
8,0,8,0,,,,,,,,,,,,,,,,,,,,,,,,,,,,,,,,,,,,,,,,,,,,,,,,,,,,,,,,,,,,,,,399.9310009998735,399.9310009998735,0.0007044998928904533,0.0992803000845015,3.0,0.1998028999660164,,,,,,666,Moral,2024-09-19_16h32.50.514,MoralCondition_v2,2022.2.5,30.013563110154486,
9,0,9,0,0,0,0,0,,,,,,,,,,,,,,,,,,,,,400.16451589995995,0.000264700036495924,0.09818749991245568,406.16423160000704,6.031413499964401,406.3640430998057,406.3640430998057,0.09140889998525381,0.19802599982358515,6.031325099989772,412.4642111000139,412.4642111000139,412.4642111000139,0.08380789984948933,0.19806959968991578,418.16418630001135,418.364218799863,6.031404599780217,6.131348299793899,424.3641778999008,12.031365299830213,424.46420499985106,424.46420499985106,424.49751399992965,424.49751399992965,0.0315549997612834,0.13133329967968166,down,0.6283499000128359,425.1641928998288,3.709993325173855e-05,0.09761049994267523,431.1806788998656,431.1806788998656,0.023703600047156215,0.11428579990752041,3.0,2.324828499928117,,,,,,,412.3642412999179,412.3642412999179,,,,666,Moral,2024-09-19_16h32.50.514,MoralCondition_v2,2022.2.5,30.013563110154486,
9,0,9,0,1,0,1,0,,,,,,,,,,,,,,,,,,,,,,,,,,,,,,,,,,,,,,,,,,,,,,,,,,,,,433.5476539998781,433.5476539998781,0.007471299963071942,0.09821549989283085,3.0,0.3248262999113649,,,,,,,,,,,,666,Moral,2024-09-19_16h32.50.514,MoralCondition_v2,2022.2.5,30.013563110154486,
9,0,9,0,2,0,2,0,,,,,,,,,,,,,,,,,,,,,,,,,,,,,,,,,,,,,,,,,,,,,,,,,,,,,433.91404479998164,433.91404479998164,0.007522600004449487,0.09743550000712276,3.0,0.2575858999043703,,,,,,,,,,,,666,Moral,2024-09-19_16h32.50.514,MoralCondition_v2,2022.2.5,30.013563110154486,
9,0,9,0,3,0,3,0,,,,,,,,,,,,,,,,,,,,,,,,,,,,,,,,,,,,,,,,,,,,,,,,,,,,,434.21405289997347,434.21405289997347,0.0071992999874055386,0.09726910013705492,3.0,0.25796509999781847,,,,,,,,,,,,666,Moral,2024-09-19_16h32.50.514,MoralCondition_v2,2022.2.5,30.013563110154486,
9,0,9,0,4,0,4,0,,,,,,,,,,,,,,,,,,,,,,,,,,,,,,,,,,,,,,,,,,,,,,,,,,,,,434.5140994999092,434.5140994999092,0.00887309992685914,0.09778960002586246,3.0,0.289553799899295,,,,,,,,,,,,666,Moral,2024-09-19_16h32.50.514,MoralCondition_v2,2022.2.5,30.013563110154486,
9,0,9,0,5,0,5,0,,,,,,,,,,,,,,,,,,,,,,,,,,,,,,,,,,,,,,,,,,,,,,,,,,,,,434.86441899999045,434.86441899999045,0.00866330019198358,0.1145044001750648,3.0,0.30679479986429214,,,,,,,,,,,,666,Moral,2024-09-19_16h32.50.514,MoralCondition_v2,2022.2.5,30.013563110154486,
9,0,9,0,6,0,6,0,,,,,,,,,,,,,,,,,,,,,,,,,,,,,,,,,,,,,,,,,,,,,,,,,,,,,435.1973529998213,435.1973529998213,0.00774729996919632,0.09798550000414252,3.0,0.2910611000843346,,,,,,,,,,,,666,Moral,2024-09-19_16h32.50.514,MoralCondition_v2,2022.2.5,30.013563110154486,
9,0,9,0,,,,,,,,,,,,,,,,,,,,,,,,,,,,,,,,,,,,,,,,,,,,,,,,,,,,,,,,,,,,,,,435.53094279998913,435.53094279998913,0.002102999947965145,0.09714469988830388,3.0,1.2961890001315624,,,,,,666,Moral,2024-09-19_16h32.50.514,MoralCondition_v2,2022.2.5,30.013563110154486,
10,0,10,0,0,0,0,0,,,,,,,,,,,,,,,,,,,,,436.8642495998647,0.00013369997031986713,0.09918440016917884,442.8808483998291,6.015867199981585,443.0474477999378,443.0474477999378,0.07753619994036853,0.18241199990734458,6.015771500067785,449.14728389983065,449.14728389983065,449.14728389983065,0.07365829986520112,0.1824056999757886,454.8474653000012,455.04748329985887,6.015806699870154,6.1157506997697055,461.0474739000201,12.015798299806193,461.14748859987594,461.14748859987594,461.1808368000202,461.1808368000202,0.016000599833205342,0.11574559984728694,up,2.8577582999132574,464.09745429991744,4.039984196424484e-05,0.09798289998434484,470.1141518999357,470.1141518999357,0.009262599982321262,0.11467589996755123,2.0,10.839579700026661,,,,,,,449.0475271998439,449.0475271998439,470.1141518999357,,,666,Moral,2024-09-19_16h32.50.514,MoralCondition_v2,2022.2.5,30.013563110154486,
10,0,10,0,1,0,1,0,,,,,,,,,,,,,,,,,,,,,,,,,,,,,,,,,,,,,,,,,,,,,,,,,,,,,480.9807312998455,480.9807312998455,0.007867500185966492,0.09732300019823015,2.0,0.19052149984054267,,,,,,,,,,,,666,Moral,2024-09-19_16h32.50.514,MoralCondition_v2,2022.2.5,30.013563110154486,
10,0,10,0,2,0,2,0,,,,,,,,,,,,,,,,,,,,,,,,,,,,,,,,,,,,,,,,,,,,,,,,,,,,,481.2139516999014,481.2139516999014,0.007074399851262569,0.09800899983383715,2.0,0.19183839997276664,,,,,,,,,,,,666,Moral,2024-09-19_16h32.50.514,MoralCondition_v2,2022.2.5,30.013563110154486,
10,0,10,0,3,0,3,0,,,,,,,,,,,,,,,,,,,,,,,,,,,,,,,,,,,,,,,,,,,,,,,,,,,,,481.4473565998487,481.4473565998487,0.006674299947917461,0.09910420002415776,2.0,0.1932714998256415,,,,,,,,,,,,666,Moral,2024-09-19_16h32.50.514,MoralCondition_v2,2022.2.5,30.013563110154486,
10,0,10,0,4,0,4,0,,,,,,,,,,,,,,,,,,,,,,,,,,,,,,,,,,,,,,,,,,,,,,,,,,,,,481.68071400001645,481.68071400001645,0.006624900037422776,0.09915959998033941,2.0,0.19370750011876225,,,,,,,,,,,,666,Moral,2024-09-19_16h32.50.514,MoralCondition_v2,2022.2.5,30.013563110154486,
10,0,10,0,5,0,5,0,,,,,,,,,,,,,,,,,,,,,,,,,,,,,,,,,,,,,,,,,,,,,,,,,,,,,481.91427239985205,481.91427239985205,0.0062074000015854836,0.09990389994345605,2.0,0.1941800001077354,,,,,,,,,,,,666,Moral,2024-09-19_16h32.50.514,MoralCondition_v2,2022.2.5,30.013563110154486,
10,0,10,0,6,0,6,0,,,,,,,,,,,,,,,,,,,,,,,,,,,,,,,,,,,,,,,,,,,,,,,,,,,,,482.14749529981054,482.14749529981054,0.007715699961408973,0.09862189996056259,2.0,0.6585351000539958,,,,,,,,,,,,666,Moral,2024-09-19_16h32.50.514,MoralCondition_v2,2022.2.5,30.013563110154486,
10,0,10,0,,,,,,,,,,,,,,,,,,,,,,,,,,,,,,,,,,,,,,,,,,,,,,,,,,,,,,,,,,,,,,,482.84763899981044,482.84763899981044,0.0016749000642448664,0.09775259997695684,2.0,0.7304795999079943,,,,,,666,Moral,2024-09-19_16h32.50.514,MoralCondition_v2,2022.2.5,30.013563110154486,
11,0,11,0,0,0,0,0,,,,,,,,,,,,,,,,,,,,,483.61426809988916,0.00025589996948838234,0.09814150002785027,489.5973318000324,6.014506799867377,489.7805647000205,489.7805647000205,0.05692259990610182,0.16448809998109937,6.031185599975288,495.91391699993983,495.91391699993983,495.91391699993983,0.08904799981974065,0.19781419984064996,501.61403409997,501.81405319995247,6.031188399763778,6.131147099658847,507.81422429997474,12.031359399668872,507.91403599991463,507.91403599991463,507.94735989999026,507.94735989999026,0.03133519971743226,0.1311160996556282,down,6.058583700098097,514.064011399867,4.5000109821558e-05,0.09773169993422925,520.0643764999695,520.0643764999695,0.009337899973616004,0.09783340012654662,1.0,3.322716800030321,,,,,,,495.78078779997304,495.78078779997304,520.0643764999695,6.09774179989472,,666,Moral,2024-09-19_16h32.50.514,MoralCondition_v2,2022.2.5,30.013563110154486,
11,0,11,0,1,0,1,0,,,,,,,,,,,,,,,,,,,,,,,,,,,,,,,,,,,,,,,,,,,,,,,,,,,,,523.4476103000343,523.4476103000343,0.008118199883028865,0.1143314999062568,1.0,0.17360069998539984,,,,,,,,,,,,666,Moral,2024-09-19_16h32.50.514,MoralCondition_v2,2022.2.5,30.013563110154486,
11,0,11,0,2,0,2,0,,,,,,,,,,,,,,,,,,,,,,,,,,,,,,,,,,,,,,,,,,,,,,,,,,,,,523.6472098999657,523.6472098999657,0.006515000015497208,0.09920259984210134,1.0,0.22700880002230406,,,,,,,,,,,,666,Moral,2024-09-19_16h32.50.514,MoralCondition_v2,2022.2.5,30.013563110154486,
11,0,11,0,3,0,3,0,,,,,,,,,,,,,,,,,,,,,,,,,,,,,,,,,,,,,,,,,,,,,,,,,,,,,523.9141772999428,523.9141772999428,0.007236900040879846,0.0979500999674201,1.0,0.19175689993426204,,,,,,,,,,,,666,Moral,2024-09-19_16h32.50.514,MoralCondition_v2,2022.2.5,30.013563110154486,
11,0,11,0,4,0,4,0,,,,,,,,,,,,,,,,,,,,,,,,,,,,,,,,,,,,,,,,,,,,,,,,,,,,,524.1640982998069,524.1640982998069,0.008704600157216191,0.11388329998590052,1.0,0.2395150000229478,,,,,,,,,,,,666,Moral,2024-09-19_16h32.50.514,MoralCondition_v2,2022.2.5,30.013563110154486,
11,0,11,0,5,0,5,0,,,,,,,,,,,,,,,,,,,,,,,,,,,,,,,,,,,,,,,,,,,,,,,,,,,,,524.4474373999983,524.4474373999983,0.00803520018234849,0.11404330004006624,1.0,0.24070739978924394,,,,,,,,,,,,666,Moral,2024-09-19_16h32.50.514,MoralCondition_v2,2022.2.5,30.013563110154486,
11,0,11,0,6,0,6,0,,,,,,,,,,,,,,,,,,,,,,,,,,,,,,,,,,,,,,,,,,,,,,,,,,,,,524.7139909998514,524.7139909998514,0.007758700056001544,0.09758479986339808,1.0,0.5241231000982225,,,,,,,,,,,,666,Moral,2024-09-19_16h32.50.514,MoralCondition_v2,2022.2.5,30.013563110154486,
11,0,11,0,,,,,,,,,,,,,,,,,,,,,,,,,,,,,,,,,,,,,,,,,,,,,,,,,,,,,,,,,,,,,,,525.2808399000205,525.2808399000205,0.0006997999735176563,0.0994061001110822,1.0,1.0664264999795705,,,,,,666,Moral,2024-09-19_16h32.50.514,MoralCondition_v2,2022.2.5,30.013563110154486,
12,0,12,0,0,0,0,0,,,,,,,,,,,,,,,,,,,,,526.3809295999818,0.00031409994699060917,0.09755200007930398,532.3974291998893,6.014026999939233,532.5638893998694,532.5638893998694,0.0681301997974515,0.1806679000146687,6.013953799847513,538.6472181999125,538.6472181999125,538.6472181999125,0.06508619990199804,0.16399939986877143,544.3474709999282,544.5805287000258,6.0305324997752905,6.130636099725962,550.5806089998223,12.030654999893159,550.63046939997,550.63046939997,550.6972870000172,550.6972870000172,0.014039099682122469,0.11398359970189631,down,0.5886248000897467,551.3306495000143,4.179985262453556e-05,0.0976152999792248,557.347228899831,557.347228899831,0.008643500041216612,0.11425750004127622,2.0,7.339983799960464,,,,,,,538.54711389984,538.54711389984,557.347228899831,,,666,Moral,2024-09-19_16h32.50.514,MoralCondition_v2,2022.2.5,30.013563110154486,
12,0,12,0,1,0,1,0,,,,,,,,,,,,,,,,,,,,,,,,,,,,,,,,,,,,,,,,,,,,,,,,,,,,,564.7137613999657,564.7137613999657,0.006421900121495128,0.09918760019354522,2.0,0.4602711000479758,,,,,,,,,,,,666,Moral,2024-09-19_16h32.50.514,MoralCondition_v2,2022.2.5,30.013563110154486,
12,0,12,0,2,0,2,0,,,,,,,,,,,,,,,,,,,,,,,,,,,,,,,,,,,,,,,,,,,,,,,,,,,,,565.2137310998514,565.2137310998514,0.007093199994415045,0.0981127000413835,2.0,0.39189940015785396,,,,,,,,,,,,666,Moral,2024-09-19_16h32.50.514,MoralCondition_v2,2022.2.5,30.013563110154486,
12,0,12,0,3,0,3,0,,,,,,,,,,,,,,,,,,,,,,,,,,,,,,,,,,,,,,,,,,,,,,,,,,,,,565.6473359998781,565.6473359998781,0.007722199894487858,0.0976632998790592,2.0,0.39096900005824864,,,,,,,,,,,,666,Moral,2024-09-19_16h32.50.514,MoralCondition_v2,2022.2.5,30.013563110154486,
12,0,12,0,4,0,4,0,,,,,,,,,,,,,,,,,,,,,,,,,,,,,,,,,,,,,,,,,,,,,,,,,,,,,566.080559700029,566.080559700029,0.0066321000922471285,0.09923469997011125,2.0,0.4268279999960214,,,,,,,,,,,,666,Moral,2024-09-19_16h32.50.514,MoralCondition_v2,2022.2.5,30.013563110154486,
12,0,12,0,5,0,5,0,,,,,,,,,,,,,,,,,,,,,,,,,,,,,,,,,,,,,,,,,,,,,,,,,,,,,566.5470449998975,566.5470449998975,0.007570100016891956,0.09802889986895025,2.0,0.35804320010356605,,,,,,,,,,,,666,Moral,2024-09-19_16h32.50.514,MoralCondition_v2,2022.2.5,30.013563110154486,
12,0,12,0,6,0,6,0,,,,,,,,,,,,,,,,,,,,,,,,,,,,,,,,,,,,,,,,,,,,,,,,,,,,,566.9471575999632,566.9471575999632,0.006541399983689189,0.09938510018400848,2.0,0.39362429990433156,,,,,,,,,,,,666,Moral,2024-09-19_16h32.50.514,MoralCondition_v2,2022.2.5,30.013563110154486,
12,0,12,0,,,,,,,,,,,,,,,,,,,,,,,,,,,,,,,,,,,,,,,,,,,,,,,,,,,,,,,,,,,,,,,567.3806484998204,567.3806484998204,0.0013644001446664333,0.09764500008895993,2.0,0.3974298997782171,,,,,,666,Moral,2024-09-19_16h32.50.514,MoralCondition_v2,2022.2.5,30.013563110154486,
13,0,13,0,0,0,0,0,,,,,,,,,,,,,,,,,,,,,567.8142148999032,0.00015460001304745674,0.09925150009803474,573.8305748000275,6.0157876999583095,573.9971530998591,573.9971530998591,0.06865020003169775,0.18247490003705025,6.015980300027877,580.0803945998196,580.0803945998196,580.0803945998196,0.0672891999129206,0.16577239986509085,585.7805235998239,586.0137344999239,6.0322720997501165,6.132420499809086,592.0138411999214,11.999091099947691,592.0804726998322,592.0804726998322,592.1138819998596,592.1138819998596,-0.00011180015280842781,0.09911359986290336,down,10.5967502000276,602.7471367998514,3.8300175219774246e-05,0.09816540009342134,608.7470320998691,608.7470320998691,0.01021180022507906,0.0981712001375854,3.0,5.855429199989885,,,,,,,579.9974539999384,579.9974539999384,608.7470320998691,,12.099113199859858,666,Moral,2024-09-19_16h32.50.514,MoralCondition_v2,2022.2.5,30.013563110154486,
13,0,13,0,1,0,1,0,,,,,,,,,,,,,,,,,,,,,,,,,,,,,,,,,,,,,,,,,,,,,,,,,,,,,614.6470933998935,614.6470933998935,0.006489000050351024,0.09909650008194149,3.0,0.19360639993101358,,,,,,,,,,,,666,Moral,2024-09-19_16h32.50.514,MoralCondition_v2,2022.2.5,30.013563110154486,
13,0,13,0,2,0,2,0,,,,,,,,,,,,,,,,,,,,,,,,,,,,,,,,,,,,,,,,,,,,,,,,,,,,,614.8803902999498,614.8803902999498,0.0077235999051481485,0.0979921999387443,3.0,0.2243947999086231,,,,,,,,,,,,666,Moral,2024-09-19_16h32.50.514,MoralCondition_v2,2022.2.5,30.013563110154486,
13,0,13,0,3,0,3,0,,,,,,,,,,,,,,,,,,,,,,,,,,,,,,,,,,,,,,,,,,,,,,,,,,,,,615.1471920998301,615.1471920998301,0.007233000127598643,0.09793219994753599,3.0,0.2581974999047816,,,,,,,,,,,,666,Moral,2024-09-19_16h32.50.514,MoralCondition_v2,2022.2.5,30.013563110154486,
13,0,13,0,4,0,4,0,,,,,,,,,,,,,,,,,,,,,,,,,,,,,,,,,,,,,,,,,,,,,,,,,,,,,615.4472014999483,615.4472014999483,0.008337199920788407,0.09840320004150271,3.0,0.39106379984878004,,,,,,,,,,,,666,Moral,2024-09-19_16h32.50.514,MoralCondition_v2,2022.2.5,30.013563110154486,
13,0,13,0,5,0,5,0,,,,,,,,,,,,,,,,,,,,,,,,,,,,,,,,,,,,,,,,,,,,,,,,,,,,,615.8804226999637,615.8804226999637,0.006844599964097142,0.09924610005691648,3.0,0.5267913998104632,,,,,,,,,,,,666,Moral,2024-09-19_16h32.50.514,MoralCondition_v2,2022.2.5,30.013563110154486,
13,0,13,0,6,0,6,0,,,,,,,,,,,,,,,,,,,,,,,,,,,,,,,,,,,,,,,,,,,,,,,,,,,,,616.4472028999589,616.4472028999589,0.0075638999696820974,0.09741270006634295,3.0,0.5242421999573708,,,,,,,,,,,,666,Moral,2024-09-19_16h32.50.514,MoralCondition_v2,2022.2.5,30.013563110154486,
13,0,13,0,,,,,,,,,,,,,,,,,,,,,,,,,,,,,,,,,,,,,,,,,,,,,,,,,,,,,,,,,,,,,,,617.0139656998217,617.0139656998217,0.0015064000617712736,0.09758069994859397,3.0,0.7639448000118136,,,,,,666,Moral,2024-09-19_16h32.50.514,MoralCondition_v2,2022.2.5,30.013563110154486,
14,0,14,0,0,0,0,0,,,,,,,,,,,,,,,,,,,,,617.8140385998413,0.0003217998892068863,0.09760569990612566,623.8139714999124,6.014304699841887,623.9804687998258,623.9804687998258,0.052697999868541956,0.1642434997484088,6.0309120998717844,630.0969423998613,630.0969423998613,630.0969423998613,0.06713499967008829,0.18088539969176054,635.7970485999249,635.9970485998783,6.014263699762523,6.114222199656069,641.9970311999787,12.01423899969086,642.0972298998386,642.0972298998386,642.1302869999781,642.1302869999781,0.01462729973718524,0.11403979966416955,down,0.9165793999563903,643.0970624999609,3.869994543492794e-05,0.09808689984492958,649.1137287998572,649.1137287998572,0.008948700036853552,0.11463980004191399,3.0,8.139982900116593,,,,,,,629.9802212999202,629.9802212999202,649.1137287998572,6.0978200999088585,,666,Moral,2024-09-19_16h32.50.514,MoralCondition_v2,2022.2.5,30.013563110154486,
14,0,14,0,1,0,1,0,,,,,,,,,,,,,,,,,,,,,,,,,,,,,,,,,,,,,,,,,,,,,,,,,,,,,657.2803312998731,657.2803312998731,0.0075258000288158655,0.09777170000597835,3.0,0.2913619000464678,,,,,,,,,,,,666,Moral,2024-09-19_16h32.50.514,MoralCondition_v2,2022.2.5,30.013563110154486,
14,0,14,0,2,0,2,0,,,,,,,,,,,,,,,,,,,,,,,,,,,,,,,,,,,,,,,,,,,,,,,,,,,,,657.6137822999153,657.6137822999153,0.007242599967867136,0.09808859997428954,3.0,0.291624000063166,,,,,,,,,,,,666,Moral,2024-09-19_16h32.50.514,MoralCondition_v2,2022.2.5,30.013563110154486,
14,0,14,0,3,0,3,0,,,,,,,,,,,,,,,,,,,,,,,,,,,,,,,,,,,,,,,,,,,,,,,,,,,,,657.9470456999261,657.9470456999261,0.007392000174149871,0.09826020011678338,3.0,0.3250941000878811,,,,,,,,,,,,666,Moral,2024-09-19_16h32.50.514,MoralCondition_v2,2022.2.5,30.013563110154486,
14,0,14,0,4,0,4,0,,,,,,,,,,,,,,,,,,,,,,,,,,,,,,,,,,,,,,,,,,,,,,,,,,,,,658.3137041998561,658.3137041998561,0.007416300009936094,0.09786660014651716,3.0,0.29159050015732646,,,,,,,,,,,,666,Moral,2024-09-19_16h32.50.514,MoralCondition_v2,2022.2.5,30.013563110154486,
14,0,14,0,5,0,5,0,,,,,,,,,,,,,,,,,,,,,,,,,,,,,,,,,,,,,,,,,,,,,,,,,,,,,658.6470631998964,658.6470631998964,0.006391699891537428,0.09922019997611642,3.0,0.3603129000402987,,,,,,,,,,,,666,Moral,2024-09-19_16h32.50.514,MoralCondition_v2,2022.2.5,30.013563110154486,
14,0,14,0,6,0,6,0,,,,,,,,,,,,,,,,,,,,,,,,,,,,,,,,,,,,,,,,,,,,,,,,,,,,,659.047093299916,659.047093299916,0.006364100147038698,0.09910099999979138,3.0,0.36013699998147786,,,,,,,,,,,,666,Moral,2024-09-19_16h32.50.514,MoralCondition_v2,2022.2.5,30.013563110154486,
14,0,14,0,,,,,,,,,,,,,,,,,,,,,,,,,,,,,,,,,,,,,,,,,,,,,,,,,,,,,,,,,,,,,,,659.4470742000267,659.4470742000267,0.0017903000116348267,0.09767329995520413,3.0,1.030559299979359,,,,,,666,Moral,2024-09-19_16h32.50.514,MoralCondition_v2,2022.2.5,30.013563110154486,
15,0,15,0,0,0,0,0,,,,,,,,,,,,,,,,,,,,,660.5138723999262,0.0001338999718427658,0.0990843998733908,666.5304127999116,6.015673599904403,666.6968317998108,666.6968317998108,0.07037499989382923,0.18263639975339174,6.0156810998450965,672.7967942999676,672.7967942999676,672.7967942999676,0.07039639982394874,0.18233819981105626,678.4970801000018,678.6969739999622,6.015722099691629,6.1156598997768015,684.6969529998023,12.015707699814811,684.7971144998446,684.7971144998446,684.8302782999817,684.8302782999817,0.01600799965672195,0.11562699964269996,down,0.8718493001069874,685.7634681998752,4.739989526569843e-05,0.09783069998957217,691.7633991998155,691.7633991998155,0.005102499853819609,0.09771379991434515,1.0,1.4603236000984907,,,,,,,672.6969772998709,672.6969772998709,691.7633991998155,,,666,Moral,2024-09-19_16h32.50.514,MoralCondition_v2,2022.2.5,30.013563110154486,
15,0,15,0,1,0,1,0,,,,,,,,,,,,,,,,,,,,,,,,,,,,,,,,,,,,,,,,,,,,,,,,,,,,,693.2635923000053,693.2635923000053,0.007160299923270941,0.09725619992241263,1.0,0.25796910002827644,,,,,,,,,,,,666,Moral,2024-09-19_16h32.50.514,MoralCondition_v2,2022.2.5,30.013563110154486,
15,0,15,0,2,0,2,0,,,,,,,,,,,,,,,,,,,,,,,,,,,,,,,,,,,,,,,,,,,,,,,,,,,,,693.5636620000005,693.5636620000005,0.006487200036644936,0.09933849982917309,1.0,0.22748779994435608,,,,,,,,,,,,666,Moral,2024-09-19_16h32.50.514,MoralCondition_v2,2022.2.5,30.013563110154486,
15,0,15,0,3,0,3,0,,,,,,,,,,,,,,,,,,,,,,,,,,,,,,,,,,,,,,,,,,,,,,,,,,,,,693.8302575999405,693.8302575999405,0.008355600060895085,0.09764020005241036,1.0,0.22375590004958212,,,,,,,,,,,,666,Moral,2024-09-19_16h32.50.514,MoralCondition_v2,2022.2.5,30.013563110154486,
15,0,15,0,4,0,4,0,,,,,,,,,,,,,,,,,,,,,,,,,,,,,,,,,,,,,,,,,,,,,,,,,,,,,694.0969566998538,694.0969566998538,0.007124900119379163,0.09806180000305176,1.0,0.22531619993969798,,,,,,,,,,,,666,Moral,2024-09-19_16h32.50.514,MoralCondition_v2,2022.2.5,30.013563110154486,
15,0,15,0,5,0,5,0,,,,,,,,,,,,,,,,,,,,,,,,,,,,,,,,,,,,,,,,,,,,,,,,,,,,,694.3637601998635,694.3637601998635,0.006769399857148528,0.09740239987149835,1.0,0.29308190010488033,,,,,,,,,,,,666,Moral,2024-09-19_16h32.50.514,MoralCondition_v2,2022.2.5,30.013563110154486,
15,0,15,0,6,0,6,0,,,,,,,,,,,,,,,,,,,,,,,,,,,,,,,,,,,,,,,,,,,,,,,,,,,,,694.7135459999554,694.7135459999554,0.008236999856308103,0.11450399993918836,1.0,0.5739289000630379,,,,,,,,,,,,666,Moral,2024-09-19_16h32.50.514,MoralCondition_v2,2022.2.5,30.013563110154486,
15,0,15,0,,,,,,,,,,,,,,,,,,,,,,,,,,,,,,,,,,,,,,,,,,,,,,,,,,,,,,,,,,,,,,,695.3136863999534,695.3136863999534,0.0006719999946653843,0.0991455998737365,1.0,0.7328992998227477,,,,,,666,Moral,2024-09-19_16h32.50.514,MoralCondition_v2,2022.2.5,30.013563110154486,
16,0,16,0,0,0,0,0,,,,,,,,,,,,,,,,,,,,,696.0804853998125,0.0002546999603509903,0.09817230002954602,702.0968429998029,6.0146520000416785,702.2636037999764,702.2636037999764,0.06855589989572763,0.1810134998522699,6.014408999821171,708.3632680999581,708.3632680999581,708.3632680999581,0.07854219991713762,0.18101819977164268,714.0634768998716,714.2634959998541,6.014636899810284,6.11456559994258,720.2634008999448,12.014450299786404,720.3466978999786,720.3466978999786,720.3968342000153,720.3968342000153,0.014512799680233002,0.11452129972167313,down,2.2492555000353605,722.6968369998503,4.20999713242054e-05,0.09805739996954799,728.7133078000043,728.7133078000043,0.02450120006687939,0.11452440009452403,4.0,1.224466900108382,,,,,,,708.246572899865,708.246572899865,,,,666,Moral,2024-09-19_16h32.50.514,MoralCondition_v2,2022.2.5,30.013563110154486,
16,0,16,0,1,0,1,0,,,,,,,,,,,,,,,,,,,,,,,,,,,,,,,,,,,,,,,,,,,,,,,,,,,,,729.9805746998172,729.9805746998172,0.008740200195461512,0.09724000003188848,4.0,0.2560968000907451,,,,,,,,,,,,666,Moral,2024-09-19_16h32.50.514,MoralCondition_v2,2022.2.5,30.013563110154486,
16,0,16,0,2,0,2,0,,,,,,,,,,,,,,,,,,,,,,,,,,,,,,,,,,,,,,,,,,,,,,,,,,,,,730.2967375000007,730.2967375000007,0.009336699964478612,0.11412869999185205,4.0,0.27245229994878173,,,,,,,,,,,,666,Moral,2024-09-19_16h32.50.514,MoralCondition_v2,2022.2.5,30.013563110154486,
16,0,16,0,3,0,3,0,,,,,,,,,,,,,,,,,,,,,,,,,,,,,,,,,,,,,,,,,,,,,,,,,,,,,730.6136721998919,730.6136721998919,0.007965299999341369,0.11443640012294054,4.0,0.24062509997747838,,,,,,,,,,,,666,Moral,2024-09-19_16h32.50.514,MoralCondition_v2,2022.2.5,30.013563110154486,
16,0,16,0,4,0,4,0,,,,,,,,,,,,,,,,,,,,,,,,,,,,,,,,,,,,,,,,,,,,,,,,,,,,,730.8800674998201,730.8800674998201,0.006693100091069937,0.09851679997518659,4.0,0.25961700011976063,,,,,,,,,,,,666,Moral,2024-09-19_16h32.50.514,MoralCondition_v2,2022.2.5,30.013563110154486,
16,0,16,0,5,0,5,0,,,,,,,,,,,,,,,,,,,,,,,,,,,,,,,,,,,,,,,,,,,,,,,,,,,,,731.1966869998723,731.1966869998723,0.008460799930617213,0.1139493000227958,4.0,0.30690189986489713,,,,,,,,,,,,666,Moral,2024-09-19_16h32.50.514,MoralCondition_v2,2022.2.5,30.013563110154486,
16,0,16,0,6,0,6,0,,,,,,,,,,,,,,,,,,,,,,,,,,,,,,,,,,,,,,,,,,,,,,,,,,,,,731.5300505999476,731.5300505999476,0.0087075000628829,0.0992902999278158,4.0,0.5915613998658955,,,,,,,,,,,,666,Moral,2024-09-19_16h32.50.514,MoralCondition_v2,2022.2.5,30.013563110154486,
16,0,16,0,,,,,,,,,,,,,,,,,,,,,,,,,,,,,,,,,,,,,,,,,,,,,,,,,,,,,,,,,,,,,,,732.1635922999121,732.1635922999121,0.001616000197827816,0.0980226001702249,4.0,0.7307557000312954,,,,,,666,Moral,2024-09-19_16h32.50.514,MoralCondition_v2,2022.2.5,30.013563110154486,
17,0,17,0,0,0,0,0,,,,,,,,,,,,,,,,,,,,,732.9304453998338,0.00013489997945725918,0.09930750005878508,738.9467437998392,6.0158015000633895,739.1134025999345,739.1134025999345,0.0750437998212874,0.18248429987579584,6.015883799875155,745.2132647000253,745.2132647000253,745.2132647000253,0.07379719987511635,0.18242969969287515,750.9134052998852,751.1133655000012,6.015778799774125,6.1157707998063415,757.1133422998246,12.015808099880815,757.2133567999117,757.2133567999117,757.246677499963,757.246677499963,0.015950999688357115,0.11570039973594248,down,1.351754000177607,758.6466742998455,4.449998959898949e-05,0.09790630009956658,764.6632424998097,764.6632424998097,0.009033400099724531,0.11456310003995895,3.0,1.6730597000569105,,,,,,,745.1133816998918,745.1133816998918,764.6632424998097,,,666,Moral,2024-09-19_16h32.50.514,MoralCondition_v2,2022.2.5,30.013563110154486,
17,0,17,0,1,0,1,0,,,,,,,,,,,,,,,,,,,,,,,,,,,,,,,,,,,,,,,,,,,,,,,,,,,,,766.3634555998724,766.3634555998724,0.00749099999666214,0.09791400004178286,3.0,0.2912550000473857,,,,,,,,,,,,666,Moral,2024-09-19_16h32.50.514,MoralCondition_v2,2022.2.5,30.013563110154486,
17,0,17,0,2,0,2,0,,,,,,,,,,,,,,,,,,,,,,,,,,,,,,,,,,,,,,,,,,,,,,,,,,,,,766.6966535998508,766.6966535998508,0.0075598000548779964,0.09812130010686815,3.0,0.25838569994084537,,,,,,,,,,,,666,Moral,2024-09-19_16h32.50.514,MoralCondition_v2,2022.2.5,30.013563110154486,
17,0,17,0,3,0,3,0,,,,,,,,,,,,,,,,,,,,,,,,,,,,,,,,,,,,,,,,,,,,,,,,,,,,,766.9965668998193,766.9965668998193,0.007025099825114012,0.0974988997913897,3.0,0.25896370015107095,,,,,,,,,,,,666,Moral,2024-09-19_16h32.50.514,MoralCondition_v2,2022.2.5,30.013563110154486,
17,0,17,0,4,0,4,0,,,,,,,,,,,,,,,,,,,,,,,,,,,,,,,,,,,,,,,,,,,,,,,,,,,,,767.2966920000035,767.2966920000035,0.007509200135245919,0.09784179995767772,3.0,0.2580260999966413,,,,,,,,,,,,666,Moral,2024-09-19_16h32.50.514,MoralCondition_v2,2022.2.5,30.013563110154486,
17,0,17,0,5,0,5,0,,,,,,,,,,,,,,,,,,,,,,,,,,,,,,,,,,,,,,,,,,,,,,,,,,,,,767.613382200012,767.613382200012,0.00843129982240498,0.11327289999462664,3.0,0.33914699987508357,,,,,,,,,,,,666,Moral,2024-09-19_16h32.50.514,MoralCondition_v2,2022.2.5,30.013563110154486,
17,0,17,0,6,0,6,0,,,,,,,,,,,,,,,,,,,,,,,,,,,,,,,,,,,,,,,,,,,,,,,,,,,,,767.9799948998261,767.9799948998261,0.006617699982598424,0.0992032999638468,3.0,0.8600916999857873,,,,,,,,,,,,666,Moral,2024-09-19_16h32.50.514,MoralCondition_v2,2022.2.5,30.013563110154486,
17,0,17,0,,,,,,,,,,,,,,,,,,,,,,,,,,,,,,,,,,,,,,,,,,,,,,,,,,,,,,,,,,,,,,,768.8799444998149,768.8799444998149,0.0012668000999838114,0.09798360010609031,3.0,1.3312777001410723,,,,,,666,Moral,2024-09-19_16h32.50.514,MoralCondition_v2,2022.2.5,30.013563110154486,
18,0,18,0,0,0,0,0,,,,,,,,,,,,,,,,,,,,,770.2468856999185,0.00014130002819001675,0.09921999997459352,776.2633110999595,6.015797500032932,776.4299309998751,776.4299309998751,0.07406959985382855,0.18247619993053377,6.0157811997924,782.5297819999978,782.5297819999978,782.5297819999978,0.07588219968602061,0.18266019970178604,788.2299533998594,788.4298450998031,6.015701599884778,6.115834899712354,794.4301061998121,12.01603449974209,794.5300781999249,794.5300781999249,794.5633150998037,794.5633150998037,0.01620189961977303,0.11578599968925118,down,0.49942809995263815,795.096571699949,4.5999884605407715e-05,0.09729880001395941,801.129935799865,801.129935799865,0.02486420003697276,0.130644999910146,2.0,3.9401071998290718,,,,,,,782.4131683998276,782.4131683998276,,,,666,Moral,2024-09-19_16h32.50.514,MoralCondition_v2,2022.2.5,30.013563110154486,
18,0,18,0,1,0,1,0,,,,,,,,,,,,,,,,,,,,,,,,,,,,,,,,,,,,,,,,,,,,,,,,,,,,,805.0967724998482,805.0967724998482,0.007309899898245931,0.09719519992358983,2.0,0.257543999934569,,,,,,,,,,,,666,Moral,2024-09-19_16h32.50.514,MoralCondition_v2,2022.2.5,30.013563110154486,
18,0,18,0,2,0,2,0,,,,,,,,,,,,,,,,,,,,,,,,,,,,,,,,,,,,,,,,,,,,,,,,,,,,,805.4134406999219,805.4134406999219,0.007798200007528067,0.11421579984016716,2.0,0.20766930002719164,,,,,,,,,,,,666,Moral,2024-09-19_16h32.50.514,MoralCondition_v2,2022.2.5,30.013563110154486,
18,0,18,0,3,0,3,0,,,,,,,,,,,,,,,,,,,,,,,,,,,,,,,,,,,,,,,,,,,,,,,,,,,,,805.6465296000242,805.6465296000242,0.006669999798759818,0.09891659999266267,2.0,0.2601250000298023,,,,,,,,,,,,666,Moral,2024-09-19_16h32.50.514,MoralCondition_v2,2022.2.5,30.013563110154486,
18,0,18,0,4,0,4,0,,,,,,,,,,,,,,,,,,,,,,,,,,,,,,,,,,,,,,,,,,,,,,,,,,,,,805.946486099856,805.946486099856,0.006419199984520674,0.09930070000700653,2.0,0.49390690005384386,,,,,,,,,,,,666,Moral,2024-09-19_16h32.50.514,MoralCondition_v2,2022.2.5,30.013563110154486,
18,0,18,0,5,0,5,0,,,,,,,,,,,,,,,,,,,,,,,,,,,,,,,,,,,,,,,,,,,,,,,,,,,,,806.4967657998204,806.4967657998204,0.007879700046032667,0.11451110010966659,2.0,0.5408556000329554,,,,,,,,,,,,666,Moral,2024-09-19_16h32.50.514,MoralCondition_v2,2022.2.5,30.013563110154486,
18,0,18,0,6,0,6,0,,,,,,,,,,,,,,,,,,,,,,,,,,,,,,,,,,,,,,,,,,,,,,,,,,,,,807.0632101998199,807.0632101998199,0.006428299937397242,0.09913069987669587,2.0,0.5271622000727803,,,,,,,,,,,,666,Moral,2024-09-19_16h32.50.514,MoralCondition_v2,2022.2.5,30.013563110154486,
18,0,18,0,,,,,,,,,,,,,,,,,,,,,,,,,,,,,,,,,,,,,,,,,,,,,,,,,,,,,,,,,,,,,,,807.6298165000044,807.6298165000044,0.0020324999932199717,0.09710869984701276,2.0,0.7967694001272321,,,,,,666,Moral,2024-09-19_16h32.50.514,MoralCondition_v2,2022.2.5,30.013563110154486,
19,0,19,0,0,0,0,0,,,,,,,,,,,,,,,,,,,,,808.4634010998998,0.00023120013065636158,0.09820190002210438,814.479857499944,6.014835800044239,814.6463933999185,814.6463933999185,0.07636839989572763,0.18140999996103346,6.014939900022,820.7464166998398,820.7464166998398,820.7464166998398,0.07205989980138838,0.18149969982914627,826.4464549999684,826.6467078998685,6.014982799766585,6.114734799833968,832.6465833999682,12.014919499866664,832.7296134999488,832.7296134999488,832.7797973998822,832.7797973998822,0.014715499710291624,0.1146980996709317,down,1.1144935998599976,833.9464447998907,6.809993647038937e-05,0.09796009981073439,839.9630155998748,839.9630155998748,0.02482139994390309,0.114563699811697,2.0,1.0574221999850124,,,,,,,820.6464690000284,820.6464690000284,,,,666,Moral,2024-09-19_16h32.50.514,MoralCondition_v2,2022.2.5,30.013563110154486,
19,0,19,0,1,0,1,0,,,,,,,,,,,,,,,,,,,,,,,,,,,,,,,,,,,,,,,,,,,,,,,,,,,,,841.0629841999616,841.0629841999616,0.006463200086727738,0.09855930018238723,2.0,0.2597442998085171,,,,,,,,,,,,666,Moral,2024-09-19_16h32.50.514,MoralCondition_v2,2022.2.5,30.013563110154486,
19,0,19,0,2,0,2,0,,,,,,,,,,,,,,,,,,,,,,,,,,,,,,,,,,,,,,,,,,,,,,,,,,,,,841.3799199999776,841.3799199999776,0.007790300063788891,0.11391579988412559,2.0,0.24072689982131124,,,,,,,,,,,,666,Moral,2024-09-19_16h32.50.514,MoralCondition_v2,2022.2.5,30.013563110154486,
19,0,19,0,3,0,3,0,,,,,,,,,,,,,,,,,,,,,,,,,,,,,,,,,,,,,,,,,,,,,,,,,,,,,841.6464635999873,841.6464635999873,0.009269599802792072,0.09803109988570213,2.0,0.22339759999886155,,,,,,,,,,,,666,Moral,2024-09-19_16h32.50.514,MoralCondition_v2,2022.2.5,30.013563110154486,
19,0,19,0,4,0,4,0,,,,,,,,,,,,,,,,,,,,,,,,,,,,,,,,,,,,,,,,,,,,,,,,,,,,,841.9131999998353,841.9131999998353,0.007183299865573645,0.09851129981689155,2.0,0.22482439992018044,,,,,,,,,,,,666,Moral,2024-09-19_16h32.50.514,MoralCondition_v2,2022.2.5,30.013563110154486,
19,0,19,0,5,0,5,0,,,,,,,,,,,,,,,,,,,,,,,,,,,,,,,,,,,,,,,,,,,,,,,,,,,,,842.1795280999504,842.1795280999504,0.007400800008326769,0.09737550001591444,2.0,0.2911904000211507,,,,,,,,,,,,666,Moral,2024-09-19_16h32.50.514,MoralCondition_v2,2022.2.5,30.013563110154486,
19,0,19,0,6,0,6,0,,,,,,,,,,,,,,,,,,,,,,,,,,,,,,,,,,,,,,,,,,,,,,,,,,,,,842.5129739998374,842.5129739998374,0.005676500033587217,0.09873760002665222,2.0,0.4275569999590516,,,,,,,,,,,,666,Moral,2024-09-19_16h32.50.514,MoralCondition_v2,2022.2.5,30.013563110154486,
19,0,19,0,,,,,,,,,,,,,,,,,,,,,,,,,,,,,,,,,,,,,,,,,,,,,,,,,,,,,,,,,,,,,,,842.9797324999236,842.9797324999236,0.0007241000421345234,0.09938679984770715,2.0,0.5998547000344843,,,,,,666,Moral,2024-09-19_16h32.50.514,MoralCondition_v2,2022.2.5,30.013563110154486,
