loop.thisRepN,loop.thisTrialN,loop.thisN,loop.thisIndex,evaluate_all_emotions.thisRepN,evaluate_all_emotions.thisTrialN,evaluate_all_emotions.thisN,evaluate_all_emotions.thisIndex,connecting_message.started,sync_beep_1.started,p_port.started,p_port.stopped,sync_beep_2.started,sync_beep_2.stopped,sync_beep_3.started,sync_beep_3.stopped,sync_beep_4.started,sync_beep_4.stopped,baseline.started,p_port_2.started,p_port_2.stopped,baseline.stopped,p_port_3.started,Game_Start_Text.started,p_port_4.started,p_port_4.stopped,key_resp.started,key_resp.keys,key_resp.rt,fixation_cross.started,p_port_5.started,p_port_5.stopped,fixation_cross.stopped,p_port_6.started,player_image_intro.started,player_name_intro.started,p_port_7.started,p_port_7.stopped,p_port_8.started,player_image_offer.started,player_name_offer.started,proposed_split.started,p_port_9.started,p_port_9.stopped,proposed_split.stopped,accept_reject.started,accept_reject.stopped,p_port_10.started,arrow_instructions.started,offer_choice.started,p_port_11.started,p_port_11.stopped,offer_choice.keys,offer_choice.rt,Instructions_Affinity_Score.started,p_port_12.started,p_port_12.stopped,Instructions_Affinity_Score.stopped,Emotion_Image.started,AffinityScore.started,p_port_13.started,p_port_13.stopped,AffinityScore.response,AffinityScore.rt,Instruction.started,Moral_Disgust_Score.started,p_port_14.started,p_port_14.stopped,Moral_Disgust_Score.response,Moral_Disgust_Score.rt,player_image_offer.stopped,player_name_offer.stopped,player_image_intro.stopped,player_name_intro.stopped,p_port_6.stopped,p_port_8.stopped,p_port_10.stopped,participant,session,date,expName,psychopyVersion,frameRate,
,,,,,,,,17.93000839999877,18.029959080030675,0.0008228000369854271,0.09888560004765168,18.613251680030952,18.917178600037005,19.213199580018408,19.51335459999973,19.829945080028846,20.14662120002322,20.14662120002322,0.0018264000536873937,0.09920700005022809,40.163257600041106,20.015875000040978,40.26332480000565,0.015947200066875666,0.11591230006888509,40.71325670002261,space,3.162906399986241,,,,,,,,,,,,,,,,,,,,,,,,,,,,,,,,,,,,,,,,,,,,,,,,,667,Moral,2024-02-12_11h19.38.780,MoralCondition_v2,2022.2.5,29.957250999903362,
0,0,0,0,0,0,0,0,,,,,,,,,,,,,,,,,,,,,,43.91343410004629,0.0016614999622106552,0.09794710000278428,49.91321870003594,6.031242900004145,50.146681100013666,50.146681100013666,0.09753819997422397,0.2315954000223428,6.031348799995612,56.22994660004042,56.22994660004042,56.22994660004042,0.08973110001534224,0.2146305000060238,61.93005460000131,62.09690300002694,68.09654930001125,12.014584499993362,68.22991470003035,68.22991470003035,0.01479110005311668,0.11471510003320873,up,2.2549223999958485,70.52991070004646,4.529999569058418e-05,0.0975598999648355,76.54647910001222,76.54647910001222,76.54647910001222,0.012922299967613071,0.1143138000043109,5.0,7.752308399998583,,,,,,,,,,,,,,667,Moral,2024-02-12_11h19.38.780,MoralCondition_v2,2022.2.5,29.957250999903362,
0,0,0,0,1,0,1,0,,,,,,,,,,,,,,,,,,,,,,,,,,,,,,,,,,,,,,,,,,,,,,,,,,,84.34661070001312,84.34661070001312,0.010782699973788112,0.11407349997898564,5.0,3.004243100003805,,,,,,,,,,,,,,667,Moral,2024-02-12_11h19.38.780,MoralCondition_v2,2022.2.5,29.957250999903362,
0,0,0,0,2,0,2,0,,,,,,,,,,,,,,,,,,,,,,,,,,,,,,,,,,,,,,,,,,,,,,,,,,,87.37985030002892,87.37985030002892,0.006923899985849857,0.09923110000090674,5.0,0.6934446000377648,,,,,,,,,,,,,,667,Moral,2024-02-12_11h19.38.780,MoralCondition_v2,2022.2.5,29.957250999903362,
0,0,0,0,3,0,3,0,,,,,,,,,,,,,,,,,,,,,,,,,,,,,,,,,,,,,,,,,,,,,,,,,,,88.11336050002137,88.11336050002137,0.008197200018912554,0.09924080001655966,5.0,0.39202149998163804,,,,,,,,,,,,,,667,Moral,2024-02-12_11h19.38.780,MoralCondition_v2,2022.2.5,29.957250999903362,
0,0,0,0,4,0,4,0,,,,,,,,,,,,,,,,,,,,,,,,,,,,,,,,,,,,,,,,,,,,,,,,,,,88.56333760003326,88.56333760003326,0.00970900000538677,0.1142087000189349,5.0,0.43878590001259,,,,,,,,,,,,,,667,Moral,2024-02-12_11h19.38.780,MoralCondition_v2,2022.2.5,29.957250999903362,
0,0,0,0,5,0,5,0,,,,,,,,,,,,,,,,,,,,,,,,,,,,,,,,,,,,,,,,,,,,,,,,,,,89.04669310001191,89.04669310001191,0.00980509998043999,0.11434889998054132,5.0,0.5056170999887399,,,,,,,,,,,,,,667,Moral,2024-02-12_11h19.38.780,MoralCondition_v2,2022.2.5,29.957250999903362,
0,0,0,0,6,0,6,0,,,,,,,,,,,,,,,,,,,,,,,,,,,,,,,,,,,,,,,,,,,,,,,,,,,89.57978790003108,89.57978790003108,0.008564800024032593,0.09913650003727525,5.0,0.4917097000288777,,,,,,,,,,,,,,667,Moral,2024-02-12_11h19.38.780,MoralCondition_v2,2022.2.5,29.957250999903362,
0,0,0,0,,,,,,,,,,,,,,,,,,,,,,,,,,,,,,,,,,,,,,,,,,,,,,,,,,,,,,,,,,,,,90.11347520002164,90.11347520002164,0.0013079000054858625,0.09832200000528246,6.0,4.931786699977238,,,,,,,,667,Moral,2024-02-12_11h19.38.780,MoralCondition_v2,2022.2.5,29.957250999903362,
1,0,1,0,0,0,0,0,,,,,,,,,,,,,,,,,,,,,,95.08014570001978,0.0002484999713487923,0.0976525999722071,101.07979080005316,6.030947399965953,101.29660400003195,101.29660400003195,0.09806579997530207,0.21428409998770803,6.014351400022861,107.36322230001679,107.36322230001679,107.36322230001679,0.07886680000228807,0.18103530001826584,113.06307900004322,113.26323480001884,119.2632900000317,12.014457100012805,119.39647790003801,119.39647790003801,0.014559000032022595,0.1142593000549823,up,0.5681172999902628,120.02976780000608,5.0099974032491446e-05,0.09796679997816682,,126.04638700000942,126.04638700000942,0.024934699991717935,0.11472669994691387,5.0,2.6906224999693222,,,,,,,119.36325170000782,119.36325170000782,,,,,,667,Moral,2024-02-12_11h19.38.780,MoralCondition_v2,2022.2.5,29.957250999903362,
1,0,1,0,1,0,1,0,,,,,,,,,,,,,,,,,,,,,,,,,,,,,,,,,,,,,,,,,,,,,,,,,,,128.77986810001312,128.77986810001312,0.00774139998247847,0.09739160002209246,5.0,0.39075230003800243,,,,,,,,,,,,,,667,Moral,2024-02-12_11h19.38.780,MoralCondition_v2,2022.2.5,29.957250999903362,
1,0,1,0,2,0,2,0,,,,,,,,,,,,,,,,,,,,,,,,,,,,,,,,,,,,,,,,,,,,,,,,,,,129.21318680001423,129.21318680001423,0.00698569999076426,0.09908650000579655,5.0,0.2599894999875687,,,,,,,,,,,,,,667,Moral,2024-02-12_11h19.38.780,MoralCondition_v2,2022.2.5,29.957250999903362,
1,0,1,0,3,0,3,0,,,,,,,,,,,,,,,,,,,,,,,,,,,,,,,,,,,,,,,,,,,,,,,,,,,129.53007830004208,129.53007830004208,0.007631999964360148,0.11444450000999495,5.0,0.4081759999971837,,,,,,,,,,,,,,667,Moral,2024-02-12_11h19.38.780,MoralCondition_v2,2022.2.5,29.957250999903362,
1,0,1,0,4,0,4,0,,,,,,,,,,,,,,,,,,,,,,,,,,,,,,,,,,,,,,,,,,,,,,,,,,,129.9629548000521,129.9629548000521,0.00787599995965138,0.09796609997283667,5.0,0.5910502999904566,,,,,,,,,,,,,,667,Moral,2024-02-12_11h19.38.780,MoralCondition_v2,2022.2.5,29.957250999903362,
1,0,1,0,5,0,5,0,,,,,,,,,,,,,,,,,,,,,,,,,,,,,,,,,,,,,,,,,,,,,,,,,,,130.59645280003315,130.59645280003315,0.006597300001885742,0.09925199998542666,5.0,0.9269908000133,,,,,,,,,,,,,,667,Moral,2024-02-12_11h19.38.780,MoralCondition_v2,2022.2.5,29.957250999903362,
1,0,1,0,6,0,6,0,,,,,,,,,,,,,,,,,,,,,,,,,,,,,,,,,,,,,,,,,,,,,,,,,,,131.56315230001928,131.56315230001928,0.007449100026860833,0.09799759997986257,5.0,0.8249835000024177,,,,,,,,,,,,,,667,Moral,2024-02-12_11h19.38.780,MoralCondition_v2,2022.2.5,29.957250999903362,
1,0,1,0,,,,,,,,,,,,,,,,,,,,,,,,,,,,,,,,,,,,,,,,,,,,,,,,,,,,,,,,,,,,,132.42985910002608,132.42985910002608,0.0012441999861039221,0.097901200002525,5.0,0.9309672000235878,,,,,,,,667,Moral,2024-02-12_11h19.38.780,MoralCondition_v2,2022.2.5,29.957250999903362,
2,0,2,0,0,0,0,0,,,,,,,,,,,,,,,,,,,,,,133.39674200001173,0.00024729996221140027,0.09754469996551052,139.41324140003417,6.014292599982582,139.5797827000497,139.5797827000497,0.07617600000230595,0.18083630001638085,6.014190200017765,145.67984670004807,145.67984670004807,145.67984670004807,0.07581730000674725,0.18119329999899492,151.37953320000088,151.57976210000925,157.57979000004707,12.014266400015913,157.71305640001083,157.71305640001083,0.014514500042423606,0.11415060004219413,down,0.46714350004913285,158.21329750004224,5.1600043661892414e-05,0.09735880000516772,164.22988330002408,164.22988330002408,164.22988330002408,0.008790799998678267,0.1140169000136666,3.0,1.7063747000065632,,,,,,,157.67984080000315,157.67984080000315,145.57977599999867,145.57977599999867,,,,667,Moral,2024-02-12_11h19.38.780,MoralCondition_v2,2022.2.5,29.957250999903362,
2,0,2,0,1,0,1,0,,,,,,,,,,,,,,,,,,,,,,,,,,,,,,,,,,,,,,,,,,,,,,,,,,,165.9630609000451,165.9630609000451,0.007029000029433519,0.09900730004301295,3.0,1.0598821999737993,,,,,,,,,,,,,,667,Moral,2024-02-12_11h19.38.780,MoralCondition_v2,2022.2.5,29.957250999903362,
2,0,2,0,2,0,2,0,,,,,,,,,,,,,,,,,,,,,,,,,,,,,,,,,,,,,,,,,,,,,,,,,,,167.07978160004131,167.07978160004131,0.008285999996587634,0.11489140003686771,3.0,1.008160500030499,,,,,,,,,,,,,,667,Moral,2024-02-12_11h19.38.780,MoralCondition_v2,2022.2.5,29.957250999903362,
2,0,2,0,3,0,3,0,,,,,,,,,,,,,,,,,,,,,,,,,,,,,,,,,,,,,,,,,,,,,,,,,,,168.1131087000249,168.1131087000249,0.006444800004828721,0.09934310003882274,3.0,1.1607178000267595,,,,,,,,,,,,,,667,Moral,2024-02-12_11h19.38.780,MoralCondition_v2,2022.2.5,29.957250999903362,
2,0,2,0,4,0,4,0,,,,,,,,,,,,,,,,,,,,,,,,,,,,,,,,,,,,,,,,,,,,,,,,,,,169.31300910003483,169.31300910003483,0.006969599984586239,0.0993338999687694,3.0,0.993379499996081,,,,,,,,,,,,,,667,Moral,2024-02-12_11h19.38.780,MoralCondition_v2,2022.2.5,29.957250999903362,
2,0,2,0,5,0,5,0,,,,,,,,,,,,,,,,,,,,,,,,,,,,,,,,,,,,,,,,,,,,,,,,,,,170.34638110001106,170.34638110001106,0.007486300019081682,0.09768639999674633,3.0,1.0579124999931082,,,,,,,,,,,,,,667,Moral,2024-02-12_11h19.38.780,MoralCondition_v2,2022.2.5,29.957250999903362,
2,0,2,0,6,0,6,0,,,,,,,,,,,,,,,,,,,,,,,,,,,,,,,,,,,,,,,,,,,,,,,,,,,171.44638670003042,171.44638670003042,0.006698100012727082,0.09908090002136305,3.0,1.026649900013581,,,,,,,,,,,,,,667,Moral,2024-02-12_11h19.38.780,MoralCondition_v2,2022.2.5,29.957250999903362,
2,0,2,0,,,,,,,,,,,,,,,,,,,,,,,,,,,,,,,,,,,,,,,,,,,,,,,,,,,,,,,,,,,,,172.5130696000415,172.5130696000415,0.0014481000252999365,0.09792209998704493,3.0,1.2642200000118464,,,,,,,,667,Moral,2024-02-12_11h19.38.780,MoralCondition_v2,2022.2.5,29.957250999903362,
3,0,3,0,0,0,0,0,,,,,,,,,,,,,,,,,,,,,,173.8132648000028,0.00013289996422827244,0.09927939996123314,179.82976490003057,6.015770700003486,179.9964755999972,179.9964755999972,0.07925000000977889,0.18265040003461763,6.015762700000778,186.09648950002156,186.09648950002156,186.09648950002156,0.07369140000082552,0.18278230004943907,191.79636810004013,191.9964213000494,197.9963067000499,12.015999800001737,198.12974820000818,198.12974820000818,0.015942500031087548,0.11569960007909685,down,0.5468020999687724,198.72968450002372,0.00010350003140047193,0.09791800001403317,,204.76326650002738,204.76326650002738,0.025129200017545372,0.1310319000040181,4.0,2.8072161999880336,,,,,,,198.0962969000102,198.0962969000102,185.99632380000548,185.99632380000548,,,,667,Moral,2024-02-12_11h19.38.780,MoralCondition_v2,2022.2.5,29.957250999903362,
3,0,3,0,1,0,1,0,,,,,,,,,,,,,,,,,,,,,,,,,,,,,,,,,,,,,,,,,,,,,,,,,,,207.59636140003568,207.59636140003568,0.006832099985331297,0.09882159996777773,4.0,0.9265103000216186,,,,,,,,,,,,,,667,Moral,2024-02-12_11h19.38.780,MoralCondition_v2,2022.2.5,29.957250999903362,
3,0,3,0,2,0,2,0,,,,,,,,,,,,,,,,,,,,,,,,,,,,,,,,,,,,,,,,,,,,,,,,,,,208.57969900005264,208.57969900005264,0.0083030000096187,0.11433150002267212,4.0,1.206925800011959,,,,,,,,,,,,,,667,Moral,2024-02-12_11h19.38.780,MoralCondition_v2,2022.2.5,29.957250999903362,
3,0,3,0,3,0,3,0,,,,,,,,,,,,,,,,,,,,,,,,,,,,,,,,,,,,,,,,,,,,,,,,,,,209.8130798000493,209.8130798000493,0.008300599991343915,0.09825740003725514,4.0,0.7912812000140548,,,,,,,,,,,,,,667,Moral,2024-02-12_11h19.38.780,MoralCondition_v2,2022.2.5,29.957250999903362,
3,0,3,0,4,0,4,0,,,,,,,,,,,,,,,,,,,,,,,,,,,,,,,,,,,,,,,,,,,,,,,,,,,210.66322000004584,210.66322000004584,0.008529999991878867,0.11418969999067485,4.0,0.8402585999574512,,,,,,,,,,,,,,667,Moral,2024-02-12_11h19.38.780,MoralCondition_v2,2022.2.5,29.957250999903362,
3,0,3,0,5,0,5,0,,,,,,,,,,,,,,,,,,,,,,,,,,,,,,,,,,,,,,,,,,,,,,,,,,,211.52949420001823,211.52949420001823,0.00820499996189028,0.09798429999500513,4.0,0.9241055999882519,,,,,,,,,,,,,,667,Moral,2024-02-12_11h19.38.780,MoralCondition_v2,2022.2.5,29.957250999903362,
3,0,3,0,6,0,6,0,,,,,,,,,,,,,,,,,,,,,,,,,,,,,,,,,,,,,,,,,,,,,,,,,,,212.49625360005302,212.49625360005302,0.006792399974074215,0.09927740000421181,4.0,0.9932673000148498,,,,,,,,,,,,,,667,Moral,2024-02-12_11h19.38.780,MoralCondition_v2,2022.2.5,29.957250999903362,
3,0,3,0,,,,,,,,,,,,,,,,,,,,,,,,,,,,,,,,,,,,,,,,,,,,,,,,,,,,,,,,,,,,,213.5297220000066,213.5297220000066,0.0012874999665655196,0.09756039996864274,4.0,0.9309671000228263,,,,,,,,667,Moral,2024-02-12_11h19.38.780,MoralCondition_v2,2022.2.5,29.957250999903362,
4,0,4,0,0,0,0,0,,,,,,,,,,,,,,,,,,,,,,214.4964525999967,0.00034770002821460366,0.09749830001965165,220.49626440001884,6.030942399986088,220.69631500000833,220.69631500000833,0.09173220000229776,0.19761720002861694,6.030802000022959,226.79613770003198,226.79613770003198,226.79613770003198,0.093602400040254,0.19777420005993918,232.49642199999653,232.69648850004887,238.69608930003596,12.030694200075231,238.82950420002453,238.82950420002453,0.031062600086443126,0.13077850005356595,up,0.263151699968148,239.12953480001306,4.1000021155923605e-05,0.09808939998038113,,245.16306890000124,245.16306890000124,0.025539399997796863,0.13146920001599938,4.0,1.7401660000323318,,,,,,,238.79620060004527,238.79620060004527,226.6963495000382,226.6963495000382,,,,667,Moral,2024-02-12_11h19.38.780,MoralCondition_v2,2022.2.5,29.957250999903362,
4,0,4,0,1,0,1,0,,,,,,,,,,,,,,,,,,,,,,,,,,,,,,,,,,,,,,,,,,,,,,,,,,,246.929400300025,246.929400300025,0.006820899958256632,0.09907559998100623,4.0,1.026693299994804,,,,,,,,,,,,,,667,Moral,2024-02-12_11h19.38.780,MoralCondition_v2,2022.2.5,29.957250999903362,
4,0,4,0,2,0,2,0,,,,,,,,,,,,,,,,,,,,,,,,,,,,,,,,,,,,,,,,,,,,,,,,,,,247.99614970001858,247.99614970001858,0.006738399970345199,0.09833169996272773,4.0,0.7259853999712504,,,,,,,,,,,,,,667,Moral,2024-02-12_11h19.38.780,MoralCondition_v2,2022.2.5,29.957250999903362,
4,0,4,0,3,0,3,0,,,,,,,,,,,,,,,,,,,,,,,,,,,,,,,,,,,,,,,,,,,,,,,,,,,248.76304770004936,248.76304770004936,0.006938599981367588,0.0980316000059247,4.0,0.9921282000141218,,,,,,,,,,,,,,667,Moral,2024-02-12_11h19.38.780,MoralCondition_v2,2022.2.5,29.957250999903362,
4,0,4,0,4,0,4,0,,,,,,,,,,,,,,,,,,,,,,,,,,,,,,,,,,,,,,,,,,,,,,,,,,,249.7963534000446,249.7963534000446,0.007148900011088699,0.09829620004165918,4.0,0.958863299980294,,,,,,,,,,,,,,667,Moral,2024-02-12_11h19.38.780,MoralCondition_v2,2022.2.5,29.957250999903362,
4,0,4,0,5,0,5,0,,,,,,,,,,,,,,,,,,,,,,,,,,,,,,,,,,,,,,,,,,,,,,,,,,,250.7961239000433,250.7961239000433,0.00750730000436306,0.0975791999953799,4.0,0.8579164000111632,,,,,,,,,,,,,,667,Moral,2024-02-12_11h19.38.780,MoralCondition_v2,2022.2.5,29.957250999903362,
4,0,4,0,6,0,6,0,,,,,,,,,,,,,,,,,,,,,,,,,,,,,,,,,,,,,,,,,,,,,,,,,,,251.69621409999672,251.69621409999672,0.006393800023943186,0.09898060001432896,4.0,1.1603545999969356,,,,,,,,,,,,,,667,Moral,2024-02-12_11h19.38.780,MoralCondition_v2,2022.2.5,29.957250999903362,
4,0,4,0,,,,,,,,,,,,,,,,,,,,,,,,,,,,,,,,,,,,,,,,,,,,,,,,,,,,,,,,,,,,,252.89638980000746,252.89638980000746,0.00136900000507012,0.09778720000758767,4.0,0.8309608999988995,,,,,,,,667,Moral,2024-02-12_11h19.38.780,MoralCondition_v2,2022.2.5,29.957250999903362,
5,0,5,0,0,0,0,0,,,,,,,,,,,,,,,,,,,,,,253.76325890002772,0.00013499998021870852,0.09951520001050085,259.76281610003207,5.999204499996267,259.92959430004703,259.92959430004703,0.05344749998766929,0.16593630000716075,5.999226399988402,266.0295698000118,266.0295698000118,266.0295698000118,0.053845200047362596,0.16608720005024225,271.7294338000356,271.929708700045,277.92940560000716,11.999197000055574,278.062774799997,278.062774799997,2.4700071662664413e-05,0.09916280006291345,up,1.4776740999659523,279.5960742000025,4.799995804205537e-05,0.09793269995134324,,285.62945230002515,285.62945230002515,0.02592230000300333,0.13125879998551682,4.0,1.9396451999782585,,,,,,,278.02940050000325,278.02940050000325,265.9294404000393,265.9294404000393,6.099252999993041,6.099245599994902,12.099197500036098,667,Moral,2024-02-12_11h19.38.780,MoralCondition_v2,2022.2.5,29.957250999903362,
5,0,5,0,1,0,1,0,,,,,,,,,,,,,,,,,,,,,,,,,,,,,,,,,,,,,,,,,,,,,,,,,,,287.6131697000237,287.6131697000237,0.008696299977600574,0.11381289997370914,4.0,0.70662460004678,,,,,,,,,,,,,,667,Moral,2024-02-12_11h19.38.780,MoralCondition_v2,2022.2.5,29.957250999903362,
5,0,5,0,2,0,2,0,,,,,,,,,,,,,,,,,,,,,,,,,,,,,,,,,,,,,,,,,,,,,,,,,,,288.346176800027,288.346176800027,0.007673100044485182,0.09775630000513047,4.0,0.6578562999493442,,,,,,,,,,,,,,667,Moral,2024-02-12_11h19.38.780,MoralCondition_v2,2022.2.5,29.957250999903362,
5,0,5,0,3,0,3,0,,,,,,,,,,,,,,,,,,,,,,,,,,,,,,,,,,,,,,,,,,,,,,,,,,,289.0462222000351,289.0462222000351,0.007264500018209219,0.09828169998945668,4.0,0.7589009999646805,,,,,,,,,,,,,,667,Moral,2024-02-12_11h19.38.780,MoralCondition_v2,2022.2.5,29.957250999903362,
5,0,5,0,4,0,4,0,,,,,,,,,,,,,,,,,,,,,,,,,,,,,,,,,,,,,,,,,,,,,,,,,,,289.86324020003667,289.86324020003667,0.007334500027354807,0.11408650001976639,4.0,0.6413227000157349,,,,,,,,,,,,,,667,Moral,2024-02-12_11h19.38.780,MoralCondition_v2,2022.2.5,29.957250999903362,
5,0,5,0,5,0,5,0,,,,,,,,,,,,,,,,,,,,,,,,,,,,,,,,,,,,,,,,,,,,,,,,,,,290.52916020003613,290.52916020003613,0.007948499987833202,0.09808619995601475,4.0,1.0243547999998555,,,,,,,,,,,,,,667,Moral,2024-02-12_11h19.38.780,MoralCondition_v2,2022.2.5,29.957250999903362,
5,0,5,0,6,0,6,0,,,,,,,,,,,,,,,,,,,,,,,,,,,,,,,,,,,,,,,,,,,,,,,,,,,291.5960726000485,291.5960726000485,0.006396699987817556,0.09921210003085434,4.0,0.7607284000259824,,,,,,,,,,,,,,667,Moral,2024-02-12_11h19.38.780,MoralCondition_v2,2022.2.5,29.957250999903362,
5,0,5,0,,,,,,,,,,,,,,,,,,,,,,,,,,,,,,,,,,,,,,,,,,,,,,,,,,,,,,,,,,,,,292.39601600001333,292.39601600001333,0.0012874999665655196,0.0982108999742195,4.0,0.8312084999633953,,,,,,,,667,Moral,2024-02-12_11h19.38.780,MoralCondition_v2,2022.2.5,29.957250999903362,
6,0,6,0,0,0,0,0,,,,,,,,,,,,,,,,,,,,,,293.262801200035,0.00032190000638365746,0.0977592000272125,299.2457119000028,6.014209999993909,299.42910210002447,299.42910210002447,0.05300050001824275,0.16438890004064888,6.0310049000545405,305.52921450004214,305.52921450004214,305.52921450004214,0.06639390008058399,0.1643364000483416,311.229436499998,311.46262400003616,317.4626422000001,12.031253600027412,317.5962589000119,317.5962589000119,0.03170190006494522,0.1312298000557348,up,1.120025300013367,318.7458306000335,1.260003773495555e-05,0.0828301000292413,324.76270330004627,324.76270330004627,324.76270330004627,0.009102900046855211,0.09983540000393987,4.0,1.1588280000141822,,,,,,,317.51250950002577,317.51250950002577,305.4124873999972,305.4124873999972,6.097580800007563,,,667,Moral,2024-02-12_11h19.38.780,MoralCondition_v2,2022.2.5,29.957250999903362,
6,0,6,0,1,0,1,0,,,,,,,,,,,,,,,,,,,,,,,,,,,,,,,,,,,,,,,,,,,,,,,,,,,325.9624154000194,325.9624154000194,0.006624899979215115,0.09909159998642281,4.0,0.7272521000122651,,,,,,,,,,,,,,667,Moral,2024-02-12_11h19.38.780,MoralCondition_v2,2022.2.5,29.957250999903362,
6,0,6,0,2,0,2,0,,,,,,,,,,,,,,,,,,,,,,,,,,,,,,,,,,,,,,,,,,,,,,,,,,,326.72922280000057,326.72922280000057,0.008375699981115758,0.09845290001248941,4.0,1.4245862999814562,,,,,,,,,,,,,,667,Moral,2024-02-12_11h19.38.780,MoralCondition_v2,2022.2.5,29.957250999903362,
6,0,6,0,3,0,3,0,,,,,,,,,,,,,,,,,,,,,,,,,,,,,,,,,,,,,,,,,,,,,,,,,,,328.19588830001885,328.19588830001885,0.007684799958951771,0.09826299996348098,4.0,0.6589199000154622,,,,,,,,,,,,,,667,Moral,2024-02-12_11h19.38.780,MoralCondition_v2,2022.2.5,29.957250999903362,
6,0,6,0,4,0,4,0,,,,,,,,,,,,,,,,,,,,,,,,,,,,,,,,,,,,,,,,,,,,,,,,,,,328.8959831999964,328.8959831999964,0.005814499978441745,0.09911820001434535,4.0,0.7281268000369892,,,,,,,,,,,,,,667,Moral,2024-02-12_11h19.38.780,MoralCondition_v2,2022.2.5,29.957250999903362,
6,0,6,0,5,0,5,0,,,,,,,,,,,,,,,,,,,,,,,,,,,,,,,,,,,,,,,,,,,,,,,,,,,329.6792520000017,329.6792520000017,0.008343499968759716,0.11554589995648712,4.0,0.7751057000132278,,,,,,,,,,,,,,667,Moral,2024-02-12_11h19.38.780,MoralCondition_v2,2022.2.5,29.957250999903362,
6,0,6,0,6,0,6,0,,,,,,,,,,,,,,,,,,,,,,,,,,,,,,,,,,,,,,,,,,,,,,,,,,,330.47909820004134,330.47909820004134,0.006392400013282895,0.09898259997135028,4.0,0.8270265000173822,,,,,,,,,,,,,,667,Moral,2024-02-12_11h19.38.780,MoralCondition_v2,2022.2.5,29.957250999903362,
6,0,6,0,,,,,,,,,,,,,,,,,,,,,,,,,,,,,,,,,,,,,,,,,,,,,,,,,,,,,,,,,,,,,331.34610970003996,331.34610970003996,0.0006670999573543668,0.09903409995604306,4.0,0.8997866999707185,,,,,,,,667,Moral,2024-02-12_11h19.38.780,MoralCondition_v2,2022.2.5,29.957250999903362,
7,0,7,0,0,0,0,0,,,,,,,,,,,,,,,,,,,,,,332.2796172000235,0.00013920001219958067,0.0991799000184983,338.2959131000098,6.015800799999852,338.4624653000501,338.4624653000501,0.07750780001515523,0.18273230001796037,6.015797800035216,344.562535700039,344.562535700039,344.562535700039,0.07645240006968379,0.18234940007096156,350.2626915000146,350.4625326000387,356.4625015000347,12.015785400057212,356.59586640005,356.59586640005,0.01616170007036999,0.11575150006683543,up,0.3127181000309065,356.96252830000594,8.530000923201442e-05,0.09784930001478642,362.9793400000199,362.9793400000199,362.9793400000199,0.00852680002572015,0.11441939999349415,4.0,1.10713969997596,,,,,,,356.562604500039,356.562604500039,344.46255180001026,344.46255180001026,,,,667,Moral,2024-02-12_11h19.38.780,MoralCondition_v2,2022.2.5,29.957250999903362,
7,0,7,0,1,0,1,0,,,,,,,,,,,,,,,,,,,,,,,,,,,,,,,,,,,,,,,,,,,,,,,,,,,364.12916120002046,364.12916120002046,0.008746200008317828,0.11410119995707646,4.0,0.6731483000330627,,,,,,,,,,,,,,667,Moral,2024-02-12_11h19.38.780,MoralCondition_v2,2022.2.5,29.957250999903362,
7,0,7,0,2,0,2,0,,,,,,,,,,,,,,,,,,,,,,,,,,,,,,,,,,,,,,,,,,,,,,,,,,,364.8290191999986,364.8290191999986,0.006572600046638399,0.09836910001467913,4.0,0.7593324999907054,,,,,,,,,,,,,,667,Moral,2024-02-12_11h19.38.780,MoralCondition_v2,2022.2.5,29.957250999903362,
7,0,7,0,3,0,3,0,,,,,,,,,,,,,,,,,,,,,,,,,,,,,,,,,,,,,,,,,,,,,,,,,,,365.62919639999745,365.62919639999745,0.007424200011882931,0.09798750001937151,4.0,0.758222000033129,,,,,,,,,,,,,,667,Moral,2024-02-12_11h19.38.780,MoralCondition_v2,2022.2.5,29.957250999903362,
7,0,7,0,4,0,4,0,,,,,,,,,,,,,,,,,,,,,,,,,,,,,,,,,,,,,,,,,,,,,,,,,,,366.42918560002,366.42918560002,0.007313100039027631,0.09918740001739934,4.0,0.72635089996038,,,,,,,,,,,,,,667,Moral,2024-02-12_11h19.38.780,MoralCondition_v2,2022.2.5,29.957250999903362,
7,0,7,0,5,0,5,0,,,,,,,,,,,,,,,,,,,,,,,,,,,,,,,,,,,,,,,,,,,,,,,,,,,367.19583110004896,367.19583110004896,0.007761100016068667,0.09835320001002401,4.0,0.7250654999515973,,,,,,,,,,,,,,667,Moral,2024-02-12_11h19.38.780,MoralCondition_v2,2022.2.5,29.957250999903362,
7,0,7,0,6,0,6,0,,,,,,,,,,,,,,,,,,,,,,,,,,,,,,,,,,,,,,,,,,,,,,,,,,,367.9625779000344,367.9625779000344,0.007389600039459765,0.09813120000762865,4.0,0.8249639999703504,,,,,,,,,,,,,,667,Moral,2024-02-12_11h19.38.780,MoralCondition_v2,2022.2.5,29.957250999903362,
7,0,7,0,,,,,,,,,,,,,,,,,,,,,,,,,,,,,,,,,,,,,,,,,,,,,,,,,,,,,,,,,,,,,368.82921150000766,368.82921150000766,0.001393500017002225,0.09800250001717359,4.0,1.2643678999738768,,,,,,,,667,Moral,2024-02-12_11h19.38.780,MoralCondition_v2,2022.2.5,29.957250999903362,
8,0,8,0,0,0,0,0,,,,,,,,,,,,,,,,,,,,,,370.1295148000354,0.00032110000029206276,0.09774719999404624,376.1291728000506,6.031203499995172,376.32942710001953,376.32942710001953,0.08528860000660643,0.19800990005023777,6.031181700003799,382.42914920003386,382.42914920003386,382.42914920003386,0.0851933000376448,0.19782310002483428,388.12912240001606,388.3290367000154,394.3289922000258,12.030961800075602,394.4289049000363,394.4289049000363,0.014258000068366528,0.0975486000534147,up,1.239688000001479,395.7127136000199,3.960001049563289e-05,0.09822800004621968,,401.7456299000187,401.7456299000187,0.027563400042708963,0.13143330003367737,4.0,1.438262499985285,,,,,,,394.41224640002474,394.41224640002474,382.32911680004327,382.32911680004327,,,,667,Moral,2024-02-12_11h19.38.780,MoralCondition_v2,2022.2.5,29.957250999903362,
8,0,8,0,1,0,1,0,,,,,,,,,,,,,,,,,,,,,,,,,,,,,,,,,,,,,,,,,,,,,,,,,,,403.2123449000064,403.2123449000064,0.0072908999864012,0.09785720001673326,4.0,0.6918832000228576,,,,,,,,,,,,,,667,Moral,2024-02-12_11h19.38.780,MoralCondition_v2,2022.2.5,29.957250999903362,
8,0,8,0,2,0,2,0,,,,,,,,,,,,,,,,,,,,,,,,,,,,,,,,,,,,,,,,,,,,,,,,,,,403.94581920001656,403.94581920001656,0.00728359998902306,0.09792259999085218,4.0,0.7915892999735661,,,,,,,,,,,,,,667,Moral,2024-02-12_11h19.38.780,MoralCondition_v2,2022.2.5,29.957250999903362,
8,0,8,0,3,0,3,0,,,,,,,,,,,,,,,,,,,,,,,,,,,,,,,,,,,,,,,,,,,,,,,,,,,404.7958016000339,404.7958016000339,0.008257799956481904,0.11408159998245537,4.0,0.80681880004704,,,,,,,,,,,,,,667,Moral,2024-02-12_11h19.38.780,MoralCondition_v2,2022.2.5,29.957250999903362,
8,0,8,0,4,0,4,0,,,,,,,,,,,,,,,,,,,,,,,,,,,,,,,,,,,,,,,,,,,,,,,,,,,405.6459128000424,405.6459128000424,0.008728400047402829,0.11446660000365227,4.0,0.8399856999749318,,,,,,,,,,,,,,667,Moral,2024-02-12_11h19.38.780,MoralCondition_v2,2022.2.5,29.957250999903362,
8,0,8,0,5,0,5,0,,,,,,,,,,,,,,,,,,,,,,,,,,,,,,,,,,,,,,,,,,,,,,,,,,,406.51247720001265,406.51247720001265,0.007333100016694516,0.09838139999192208,4.0,0.6587252999888733,,,,,,,,,,,,,,667,Moral,2024-02-12_11h19.38.780,MoralCondition_v2,2022.2.5,29.957250999903362,
8,0,8,0,6,0,6,0,,,,,,,,,,,,,,,,,,,,,,,,,,,,,,,,,,,,,,,,,,,,,,,,,,,407.21240820002276,407.21240820002276,0.007772299984935671,0.09782620001351461,4.0,0.6578106000088155,,,,,,,,,,,,,,667,Moral,2024-02-12_11h19.38.780,MoralCondition_v2,2022.2.5,29.957250999903362,
8,0,8,0,,,,,,,,,,,,,,,,,,,,,,,,,,,,,,,,,,,,,,,,,,,,,,,,,,,,,,,,,,,,,407.9125143000274,407.9125143000274,0.000698799965903163,0.09950459998799488,4.0,0.7330941999680363,,,,,,,,667,Moral,2024-02-12_11h19.38.780,MoralCondition_v2,2022.2.5,29.957250999903362,
9,0,9,0,0,0,0,0,,,,,,,,,,,,,,,,,,,,,,408.6792681000079,0.00025159999495372176,0.09801280003739521,414.695656099997,6.01476749998983,414.8626129000331,414.8626129000331,0.0679133000667207,0.18149430002085865,6.01473050005734,420.9622640000307,420.9622640000307,420.9622640000307,0.06621600006474182,0.18151100008981302,426.6622651000507,426.86227030004375,432.8624143000343,12.014774900046177,432.9955528000137,432.9955528000137,0.014508400112390518,0.11464220006018877,up,0.7681913999840617,433.82913780002855,5.299999611452222e-05,0.09844149998389184,,439.8628800000297,439.8628800000297,0.02636339998571202,0.13131770002655685,4.0,0.7394647999899462,,,,,,,432.94541540002683,432.94541540002683,420.8622616000357,420.8622616000357,,,,667,Moral,2024-02-12_11h19.38.780,MoralCondition_v2,2022.2.5,29.957250999903362,
9,0,9,0,1,0,1,0,,,,,,,,,,,,,,,,,,,,,,,,,,,,,,,,,,,,,,,,,,,,,,,,,,,440.62903780001216,440.62903780001216,0.007042200013529509,0.09799869998823851,4.0,0.4588011999730952,,,,,,,,,,,,,,667,Moral,2024-02-12_11h19.38.780,MoralCondition_v2,2022.2.5,29.957250999903362,
9,0,9,0,2,0,2,0,,,,,,,,,,,,,,,,,,,,,,,,,,,,,,,,,,,,,,,,,,,,,,,,,,,441.1288018000196,441.1288018000196,0.007079700008034706,0.09931409999262542,4.0,0.5264612000319175,,,,,,,,,,,,,,667,Moral,2024-02-12_11h19.38.780,MoralCondition_v2,2022.2.5,29.957250999903362,
9,0,9,0,3,0,3,0,,,,,,,,,,,,,,,,,,,,,,,,,,,,,,,,,,,,,,,,,,,,,,,,,,,441.6957158000441,441.6957158000441,0.007549000030849129,0.09791630000108853,4.0,0.5245357999810949,,,,,,,,,,,,,,667,Moral,2024-02-12_11h19.38.780,MoralCondition_v2,2022.2.5,29.957250999903362,
9,0,9,0,4,0,4,0,,,,,,,,,,,,,,,,,,,,,,,,,,,,,,,,,,,,,,,,,,,,,,,,,,,442.26225810003234,442.26225810003234,0.0070742000243626535,0.09917100000893697,4.0,0.5599436000338756,,,,,,,,,,,,,,667,Moral,2024-02-12_11h19.38.780,MoralCondition_v2,2022.2.5,29.957250999903362,
9,0,9,0,5,0,5,0,,,,,,,,,,,,,,,,,,,,,,,,,,,,,,,,,,,,,,,,,,,,,,,,,,,442.86234069999773,442.86234069999773,0.007452899997588247,0.09776840003905818,4.0,0.5246873000287451,,,,,,,,,,,,,,667,Moral,2024-02-12_11h19.38.780,MoralCondition_v2,2022.2.5,29.957250999903362,
9,0,9,0,6,0,6,0,,,,,,,,,,,,,,,,,,,,,,,,,,,,,,,,,,,,,,,,,,,,,,,,,,,443.4455930000404,443.4455930000404,0.008020700013730675,0.11424650001572445,4.0,0.7072599999955855,,,,,,,,,,,,,,667,Moral,2024-02-12_11h19.38.780,MoralCondition_v2,2022.2.5,29.957250999903362,
9,0,9,0,,,,,,,,,,,,,,,,,,,,,,,,,,,,,,,,,,,,,,,,,,,,,,,,,,,,,,,,,,,,,444.178829600045,444.178829600045,0.0007363000186160207,0.09919119998812675,4.0,1.1333038000157103,,,,,,,,667,Moral,2024-02-12_11h19.38.780,MoralCondition_v2,2022.2.5,29.957250999903362,
10,0,10,0,0,0,0,0,,,,,,,,,,,,,,,,,,,,,,445.34581710002385,0.0001363000483252108,0.09918420005124062,451.3454949000152,5.999149800045416,451.51210049999645,451.51210049999645,0.051920800062362105,0.16606580006191507,5.999278300034348,457.61200230004033,457.61200230004033,457.61200230004033,0.05572940007550642,0.1658133000601083,463.3121631999966,463.51225110003725,469.5123536000028,11.99931020004442,469.6454847000423,469.6454847000423,0.000148200080730021,0.09906480007339269,up,1.342725900001824,471.028752800019,3.63999861292541e-05,0.09814179997192696,477.02904580003815,477.02904580003815,477.02904580003815,0.006837799970526248,0.09825079998699948,4.0,0.9923800000105985,,,,,,,469.61219760001404,469.61219760001404,457.5123126000399,457.5123126000399,6.09893470001407,6.099338600062765,12.099222800054122,667,Moral,2024-02-12_11h19.38.780,MoralCondition_v2,2022.2.5,29.957250999903362,
10,0,10,0,1,0,1,0,,,,,,,,,,,,,,,,,,,,,,,,,,,,,,,,,,,,,,,,,,,,,,,,,,,478.062158500019,478.062158500019,0.007556999975349754,0.0977089999942109,4.0,0.4581299999845214,,,,,,,,,,,,,,667,Moral,2024-02-12_11h19.38.780,MoralCondition_v2,2022.2.5,29.957250999903362,
10,0,10,0,2,0,2,0,,,,,,,,,,,,,,,,,,,,,,,,,,,,,,,,,,,,,,,,,,,,,,,,,,,478.56212840002263,478.56212840002263,0.006564099981915206,0.09917400003178045,4.0,0.4603006999823265,,,,,,,,,,,,,,667,Moral,2024-02-12_11h19.38.780,MoralCondition_v2,2022.2.5,29.957250999903362,
10,0,10,0,3,0,3,0,,,,,,,,,,,,,,,,,,,,,,,,,,,,,,,,,,,,,,,,,,,,,,,,,,,479.06207500002347,479.06207500002347,0.006643400003667921,0.09929819998797029,4.0,0.7268498000339605,,,,,,,,,,,,,,667,Moral,2024-02-12_11h19.38.780,MoralCondition_v2,2022.2.5,29.957250999903362,
10,0,10,0,4,0,4,0,,,,,,,,,,,,,,,,,,,,,,,,,,,,,,,,,,,,,,,,,,,,,,,,,,,479.82872869999846,479.82872869999846,0.008529399987310171,0.09728250000625849,4.0,0.7562642999691889,,,,,,,,,,,,,,667,Moral,2024-02-12_11h19.38.780,MoralCondition_v2,2022.2.5,29.957250999903362,
10,0,10,0,5,0,5,0,,,,,,,,,,,,,,,,,,,,,,,,,,,,,,,,,,,,,,,,,,,,,,,,,,,480.6287368000485,480.6287368000485,0.0065799999865703285,0.09912959998473525,4.0,0.960517700004857,,,,,,,,,,,,,,667,Moral,2024-02-12_11h19.38.780,MoralCondition_v2,2022.2.5,29.957250999903362,
10,0,10,0,6,0,6,0,,,,,,,,,,,,,,,,,,,,,,,,,,,,,,,,,,,,,,,,,,,,,,,,,,,481.64550650003366,481.64550650003366,0.009134399995673448,0.11583239998435602,4.0,0.7411344000138342,,,,,,,,,,,,,,667,Moral,2024-02-12_11h19.38.780,MoralCondition_v2,2022.2.5,29.957250999903362,
10,0,10,0,,,,,,,,,,,,,,,,,,,,,,,,,,,,,,,,,,,,,,,,,,,,,,,,,,,,,,,,,,,,,482.4120722000371,482.4120722000371,0.0013569999719038606,0.09753149998141453,4.0,0.7973984000273049,,,,,,,,667,Moral,2024-02-12_11h19.38.780,MoralCondition_v2,2022.2.5,29.957250999903362,
11,0,11,0,0,0,0,0,,,,,,,,,,,,,,,,,,,,,,483.24565530003747,0.00013840000610798597,0.09911559999454767,489.22847180004464,6.015361799974926,489.41198850004,489.41198850004,0.052947300020605326,0.16565280000213534,6.032266299996991,495.5455765000079,495.5455765000079,495.5455765000079,0.0870423000305891,0.19912960001965985,501.2453158000135,501.4452911000117,507.4454222000204,12.032391400018241,507.5786192000378,507.5786192000378,0.032446600031107664,0.13218370004324242,up,5.017136999987997,512.6452920000302,4.369998350739479e-05,0.09804680000524968,518.6451174000395,518.6451174000395,518.6451174000395,0.006900399981532246,0.09784200001740828,4.0,5.325567899970338,,,,,,,507.54529590002494,507.54529590002494,495.4119948000298,495.4119948000298,6.0989993999828584,,,667,Moral,2024-02-12_11h19.38.780,MoralCondition_v2,2022.2.5,29.957250999903362,
11,0,11,0,1,0,1,0,,,,,,,,,,,,,,,,,,,,,,,,,,,,,,,,,,,,,,,,,,,,,,,,,,,524.0118849000428,524.0118849000428,0.007405499985907227,0.09903149999445304,4.0,0.826055700017605,,,,,,,,,,,,,,667,Moral,2024-02-12_11h19.38.780,MoralCondition_v2,2022.2.5,29.957250999903362,
11,0,11,0,2,0,2,0,,,,,,,,,,,,,,,,,,,,,,,,,,,,,,,,,,,,,,,,,,,,,,,,,,,524.8783757000347,524.8783757000347,0.006420399993658066,0.09926819999236614,4.0,0.8940937999868765,,,,,,,,,,,,,,667,Moral,2024-02-12_11h19.38.780,MoralCondition_v2,2022.2.5,29.957250999903362,
11,0,11,0,3,0,3,0,,,,,,,,,,,,,,,,,,,,,,,,,,,,,,,,,,,,,,,,,,,,,,,,,,,525.8117974000052,525.8117974000052,0.006609599979128689,0.09909390000393614,4.0,0.8604513000464067,,,,,,,,,,,,,,667,Moral,2024-02-12_11h19.38.780,MoralCondition_v2,2022.2.5,29.957250999903362,
11,0,11,0,4,0,4,0,,,,,,,,,,,,,,,,,,,,,,,,,,,,,,,,,,,,,,,,,,,,,,,,,,,526.7117700000526,526.7117700000526,0.006612600001972169,0.09912670002086088,4.0,0.8603863000171259,,,,,,,,,,,,,,667,Moral,2024-02-12_11h19.38.780,MoralCondition_v2,2022.2.5,29.957250999903362,
11,0,11,0,5,0,5,0,,,,,,,,,,,,,,,,,,,,,,,,,,,,,,,,,,,,,,,,,,,,,,,,,,,527.6119963000529,527.6119963000529,0.007233500014990568,0.09757169999647886,4.0,0.8914182999869809,,,,,,,,,,,,,,667,Moral,2024-02-12_11h19.38.780,MoralCondition_v2,2022.2.5,29.957250999903362,
11,0,11,0,6,0,6,0,,,,,,,,,,,,,,,,,,,,,,,,,,,,,,,,,,,,,,,,,,,,,,,,,,,528.5452900000382,528.5452900000382,0.006551500002387911,0.09937499999068677,4.0,1.1270059999660589,,,,,,,,,,,,,,667,Moral,2024-02-12_11h19.38.780,MoralCondition_v2,2022.2.5,29.957250999903362,
11,0,11,0,,,,,,,,,,,,,,,,,,,,,,,,,,,,,,,,,,,,,,,,,,,,,,,,,,,,,,,,,,,,,529.7118404000066,529.7118404000066,0.0018000000272877514,0.09755629999563098,4.0,1.4969788999878801,,,,,,,,667,Moral,2024-02-12_11h19.38.780,MoralCondition_v2,2022.2.5,29.957250999903362,
12,0,12,0,0,0,0,0,,,,,,,,,,,,,,,,,,,,,,531.2454339000396,0.00027810002211481333,0.097914700047113,537.2618757000309,6.014642900030594,537.4283465000335,537.4283465000335,0.0745406000642106,0.181593100016471,6.014766500040423,543.5117288000183,543.5117288000183,543.5117288000183,0.06560360005823895,0.1647822000668384,549.2118267000187,549.4450967000448,555.4451465000166,12.031242200057022,555.5784426000318,555.5784426000318,0.03134060010779649,0.1311694000614807,down,4.097283200011589,559.7117867000052,4.850002005696297e-05,0.09755120001500472,565.7283748000045,565.7283748000045,565.7283748000045,0.00832660001469776,0.1142528000054881,4.0,0.773530300008133,,,,,,,555.5117723000003,555.5117723000003,543.4287180000101,543.4287180000101,,,,667,Moral,2024-02-12_11h19.38.780,MoralCondition_v2,2022.2.5,29.957250999903362,
12,0,12,0,1,0,1,0,,,,,,,,,,,,,,,,,,,,,,,,,,,,,,,,,,,,,,,,,,,,,,,,,,,566.5282785000163,566.5282785000163,0.007419600035063922,0.09933420002926141,4.0,0.7263048999593593,,,,,,,,,,,,,,667,Moral,2024-02-12_11h19.38.780,MoralCondition_v2,2022.2.5,29.957250999903362,
12,0,12,0,2,0,2,0,,,,,,,,,,,,,,,,,,,,,,,,,,,,,,,,,,,,,,,,,,,,,,,,,,,567.3119974000147,567.3119974000147,0.007636900001671165,0.11416880000615492,4.0,0.4741418000194244,,,,,,,,,,,,,,667,Moral,2024-02-12_11h19.38.780,MoralCondition_v2,2022.2.5,29.957250999903362,
12,0,12,0,3,0,3,0,,,,,,,,,,,,,,,,,,,,,,,,,,,,,,,,,,,,,,,,,,,,,,,,,,,567.8285448999959,567.8285448999959,0.01099059998523444,0.11473239999031648,4.0,0.504670399997849,,,,,,,,,,,,,,667,Moral,2024-02-12_11h19.38.780,MoralCondition_v2,2022.2.5,29.957250999903362,
12,0,12,0,4,0,4,0,,,,,,,,,,,,,,,,,,,,,,,,,,,,,,,,,,,,,,,,,,,,,,,,,,,568.3616317000124,568.3616317000124,0.007666699995752424,0.09798359998967499,4.0,0.4912116999621503,,,,,,,,,,,,,,667,Moral,2024-02-12_11h19.38.780,MoralCondition_v2,2022.2.5,29.957250999903362,
12,0,12,0,5,0,5,0,,,,,,,,,,,,,,,,,,,,,,,,,,,,,,,,,,,,,,,,,,,,,,,,,,,568.8950211000047,568.8950211000047,0.006671000039204955,0.09929060004651546,4.0,0.49356219999026507,,,,,,,,,,,,,,667,Moral,2024-02-12_11h19.38.780,MoralCondition_v2,2022.2.5,29.957250999903362,
12,0,12,0,6,0,6,0,,,,,,,,,,,,,,,,,,,,,,,,,,,,,,,,,,,,,,,,,,,,,,,,,,,569.4284915000317,569.4284915000317,0.006735699949786067,0.09915619995445013,4.0,1.2605376999708824,,,,,,,,,,,,,,667,Moral,2024-02-12_11h19.38.780,MoralCondition_v2,2022.2.5,29.957250999903362,
12,0,12,0,,,,,,,,,,,,,,,,,,,,,,,,,,,,,,,,,,,,,,,,,,,,,,,,,,,,,,,,,,,,,570.7283399000298,570.7283399000298,0.0013651999761350453,0.09933359996648505,4.0,1.0658571000094526,,,,,,,,667,Moral,2024-02-12_11h19.38.780,MoralCondition_v2,2022.2.5,29.957250999903362,
13,0,13,0,0,0,0,0,,,,,,,,,,,,,,,,,,,,,,571.828637700004,0.00013529998250305653,0.09920270001748577,577.8283508000313,5.999149399984162,577.9948764000437,577.9948764000437,0.06667410000227392,0.16583900002297014,5.999350400001276,584.0951238000416,584.0951238000416,584.0951238000416,0.06277160003082827,0.1660245000384748,589.7949329999974,589.9950816000346,595.9947754000314,12.032391200074926,596.1283796000062,596.1283796000062,0.015750600083265454,0.09891580004477873,up,1.7561059999861754,597.911521800037,1.2100033927708864e-05,0.09955440001795068,603.9449257000233,603.9449257000233,603.9449257000233,0.01098030002322048,0.11642030003713444,4.0,1.5395281000528485,,,,,,,596.0781728000147,596.0781728000147,583.9949545999989,583.9949545999989,6.099157100019511,6.099177199997939,,667,Moral,2024-02-12_11h19.38.780,MoralCondition_v2,2022.2.5,29.957250999903362,
13,0,13,0,1,0,1,0,,,,,,,,,,,,,,,,,,,,,,,,,,,,,,,,,,,,,,,,,,,,,,,,,,,605.5117905000225,605.5117905000225,0.007448200020007789,0.09767160000046715,4.0,0.35824770003091544,,,,,,,,,,,,,,667,Moral,2024-02-12_11h19.38.780,MoralCondition_v2,2022.2.5,29.957250999903362,
13,0,13,0,2,0,2,0,,,,,,,,,,,,,,,,,,,,,,,,,,,,,,,,,,,,,,,,,,,,,,,,,,,605.9114607000374,605.9114607000374,0.006464500038418919,0.0993410000228323,4.0,0.3606423999881372,,,,,,,,,,,,,,667,Moral,2024-02-12_11h19.38.780,MoralCondition_v2,2022.2.5,29.957250999903362,
13,0,13,0,3,0,3,0,,,,,,,,,,,,,,,,,,,,,,,,,,,,,,,,,,,,,,,,,,,,,,,,,,,606.3115216000006,606.3115216000006,0.0076345999841578305,0.0983418999821879,4.0,0.3919688999885693,,,,,,,,,,,,,,667,Moral,2024-02-12_11h19.38.780,MoralCondition_v2,2022.2.5,29.957250999903362,
13,0,13,0,4,0,4,0,,,,,,,,,,,,,,,,,,,,,,,,,,,,,,,,,,,,,,,,,,,,,,,,,,,606.7448543000501,606.7448543000501,0.007748099975287914,0.09798299998510629,4.0,0.4912116000195965,,,,,,,,,,,,,,667,Moral,2024-02-12_11h19.38.780,MoralCondition_v2,2022.2.5,29.957250999903362,
13,0,13,0,5,0,5,0,,,,,,,,,,,,,,,,,,,,,,,,,,,,,,,,,,,,,,,,,,,,,,,,,,,607.2784189000377,607.2784189000377,0.0075786999659612775,0.09794810001039878,4.0,0.49099920003209263,,,,,,,,,,,,,,667,Moral,2024-02-12_11h19.38.780,MoralCondition_v2,2022.2.5,29.957250999903362,
13,0,13,0,6,0,6,0,,,,,,,,,,,,,,,,,,,,,,,,,,,,,,,,,,,,,,,,,,,,,,,,,,,607.828504300036,607.828504300036,0.008285899995826185,0.11410280002746731,4.0,0.5070191000122577,,,,,,,,,,,,,,667,Moral,2024-02-12_11h19.38.780,MoralCondition_v2,2022.2.5,29.957250999903362,
13,0,13,0,,,,,,,,,,,,,,,,,,,,,,,,,,,,,,,,,,,,,,,,,,,,,,,,,,,,,,,,,,,,,608.3616137000499,608.3616137000499,0.0012523999903351068,0.09776309999870136,4.0,0.8309614000027068,,,,,,,,667,Moral,2024-02-12_11h19.38.780,MoralCondition_v2,2022.2.5,29.957250999903362,
14,0,14,0,0,0,0,0,,,,,,,,,,,,,,,,,,,,,,609.228449700051,0.00022220000391826034,0.09804840001743287,615.2281751999981,6.0314095000503585,615.4113815000164,615.4113815000164,0.07645070005673915,0.18157200003042817,6.014661500055809,621.5115174000384,621.5115174000384,621.5115174000384,0.06772170006297529,0.1815874000894837,627.2114699000376,627.411447200051,633.411419800017,12.014664700080175,633.5447601000196,633.5447601000196,0.014853600063361228,0.1145097000990063,up,4.1234459999832325,637.7282546000206,4.67000063508749e-05,0.09781690000090748,,643.7445118000032,643.7445118000032,0.02638430002843961,0.11468990001594648,4.0,5.155947399965953,,,,,,,633.5114593000035,633.5114593000035,621.4115443000337,621.4115443000337,,,,667,Moral,2024-02-12_11h19.38.780,MoralCondition_v2,2022.2.5,29.957250999903362,
14,0,14,0,1,0,1,0,,,,,,,,,,,,,,,,,,,,,,,,,,,,,,,,,,,,,,,,,,,,,,,,,,,648.9447206000332,648.9447206000332,0.006993899994995445,0.09779489994980395,4.0,0.5251592000131495,,,,,,,,,,,,,,667,Moral,2024-02-12_11h19.38.780,MoralCondition_v2,2022.2.5,29.957250999903362,
14,0,14,0,2,0,2,0,,,,,,,,,,,,,,,,,,,,,,,,,,,,,,,,,,,,,,,,,,,,,,,,,,,649.5114027000382,649.5114027000382,0.007444799994118512,0.0976964000146836,4.0,0.5244526999886148,,,,,,,,,,,,,,667,Moral,2024-02-12_11h19.38.780,MoralCondition_v2,2022.2.5,29.957250999903362,
14,0,14,0,3,0,3,0,,,,,,,,,,,,,,,,,,,,,,,,,,,,,,,,,,,,,,,,,,,,,,,,,,,650.0948048999999,650.0948048999999,0.009686200006399304,0.11374070000601932,4.0,0.6717932000174187,,,,,,,,,,,,,,667,Moral,2024-02-12_11h19.38.780,MoralCondition_v2,2022.2.5,29.957250999903362,
14,0,14,0,4,0,4,0,,,,,,,,,,,,,,,,,,,,,,,,,,,,,,,,,,,,,,,,,,,,,,,,,,,650.7947655000025,650.7947655000025,0.007680399983655661,0.09795060002943501,4.0,1.4247235999791883,,,,,,,,,,,,,,667,Moral,2024-02-12_11h19.38.780,MoralCondition_v2,2022.2.5,29.957250999903362,
14,0,14,0,5,0,5,0,,,,,,,,,,,,,,,,,,,,,,,,,,,,,,,,,,,,,,,,,,,,,,,,,,,652.278084300051,652.278084300051,0.00846569996792823,0.11450709996279329,4.0,0.5403425000258721,,,,,,,,,,,,,,667,Moral,2024-02-12_11h19.38.780,MoralCondition_v2,2022.2.5,29.957250999903362,
14,0,14,0,6,0,6,0,,,,,,,,,,,,,,,,,,,,,,,,,,,,,,,,,,,,,,,,,,,,,,,,,,,652.8447152000153,652.8447152000153,0.007704799994826317,0.09761900000739843,4.0,0.5244057000381872,,,,,,,,,,,,,,667,Moral,2024-02-12_11h19.38.780,MoralCondition_v2,2022.2.5,29.957250999903362,
14,0,14,0,,,,,,,,,,,,,,,,,,,,,,,,,,,,,,,,,,,,,,,,,,,,,,,,,,,,,,,,,,,,,653.4116245000041,653.4116245000041,0.0017864999826997519,0.09785129997180775,4.0,0.7302960999659263,,,,,,,,667,Moral,2024-02-12_11h19.38.780,MoralCondition_v2,2022.2.5,29.957250999903362,
15,0,15,0,0,0,0,0,,,,,,,,,,,,,,,,,,,,,,654.1783975000144,0.0001338999718427658,0.099216400005389,660.1947030000156,6.015838099992834,660.3612135000294,660.3612135000294,0.07504050002899021,0.18248930003028363,6.01579189999029,666.4614534000284,666.4614534000284,666.4614534000284,0.07227220002096146,0.1826913000550121,672.1613034000038,672.3611473000492,678.3612672000309,12.015819500025827,678.4945865000482,678.4945865000482,0.015993500070180744,0.11577250005211681,up,1.8132845000363886,680.3446074000094,6.140000186860561e-05,0.09769590001087636,686.3443971000379,686.3443971000379,686.3443971000379,0.005121499998494983,0.09776750003220513,4.0,1.5935908000101335,,,,,,,678.4612593000056,678.4612593000056,666.3445402000216,666.3445402000216,,,,667,Moral,2024-02-12_11h19.38.780,MoralCondition_v2,2022.2.5,29.957250999903362,
15,0,15,0,1,0,1,0,,,,,,,,,,,,,,,,,,,,,,,,,,,,,,,,,,,,,,,,,,,,,,,,,,,687.9779253000161,687.9779253000161,0.007377300004009157,0.0979634000104852,4.0,0.7250495000043884,,,,,,,,,,,,,,667,Moral,2024-02-12_11h19.38.780,MoralCondition_v2,2022.2.5,29.957250999903362,
15,0,15,0,2,0,2,0,,,,,,,,,,,,,,,,,,,,,,,,,,,,,,,,,,,,,,,,,,,,,,,,,,,688.7445003000321,688.7445003000321,0.006563200033269823,0.09930660005193204,4.0,0.8270819999743253,,,,,,,,,,,,,,667,Moral,2024-02-12_11h19.38.780,MoralCondition_v2,2022.2.5,29.957250999903362,
15,0,15,0,3,0,3,0,,,,,,,,,,,,,,,,,,,,,,,,,,,,,,,,,,,,,,,,,,,,,,,,,,,689.6278824000037,689.6278824000037,0.009086500038392842,0.11415360000682995,4.0,0.7728911999729462,,,,,,,,,,,,,,667,Moral,2024-02-12_11h19.38.780,MoralCondition_v2,2022.2.5,29.957250999903362,
15,0,15,0,4,0,4,0,,,,,,,,,,,,,,,,,,,,,,,,,,,,,,,,,,,,,,,,,,,,,,,,,,,690.4278010000126,690.4278010000126,0.0067390999756753445,0.09947999997530133,4.0,0.8273086000117473,,,,,,,,,,,,,,667,Moral,2024-02-12_11h19.38.780,MoralCondition_v2,2022.2.5,29.957250999903362,
15,0,15,0,5,0,5,0,,,,,,,,,,,,,,,,,,,,,,,,,,,,,,,,,,,,,,,,,,,,,,,,,,,691.2945122000528,691.2945122000528,0.007267699984367937,0.09924869996029884,4.0,0.8266092999838293,,,,,,,,,,,,,,667,Moral,2024-02-12_11h19.38.780,MoralCondition_v2,2022.2.5,29.957250999903362,
15,0,15,0,6,0,6,0,,,,,,,,,,,,,,,,,,,,,,,,,,,,,,,,,,,,,,,,,,,,,,,,,,,692.1779144000029,692.1779144000029,0.008692900009918958,0.11378250003326684,4.0,0.7729622999904677,,,,,,,,,,,,,,667,Moral,2024-02-12_11h19.38.780,MoralCondition_v2,2022.2.5,29.957250999903362,
15,0,15,0,,,,,,,,,,,,,,,,,,,,,,,,,,,,,,,,,,,,,,,,,,,,,,,,,,,,,,,,,,,,,692.9777101000072,692.9777101000072,0.0016237000236287713,0.09726629999931902,4.0,1.0303461999865249,,,,,,,,667,Moral,2024-02-12_11h19.38.780,MoralCondition_v2,2022.2.5,29.957250999903362,
16,0,16,0,0,0,0,0,,,,,,,,,,,,,,,,,,,,,,694.0448821000173,0.00015029998030513525,0.099265499971807,700.0445055000018,5.999173499993049,700.211272900051,700.211272900051,0.0555803999886848,0.16588560002855957,5.999184900021646,706.3112558000139,706.3112558000139,706.3112558000139,0.05562350002583116,0.16603960003703833,712.0111380000017,712.2111223000102,718.2110892000492,11.999151400057599,718.3444562000223,718.3444562000223,-7.909996202215552e-05,0.09903420007321984,up,2.227416699985042,720.6277550000232,4.510005237534642e-05,0.09798000002047047,726.6276756000007,726.6276756000007,726.6276756000007,0.008587100019212812,0.09779420000268146,4.0,0.9235844000359066,,,,,,,718.3110812000232,718.3110812000232,706.2111424000468,706.2111424000468,6.099156399955973,6.099205399979837,12.099156100011896,667,Moral,2024-02-12_11h19.38.780,MoralCondition_v2,2022.2.5,29.957250999903362,
16,0,16,0,1,0,1,0,,,,,,,,,,,,,,,,,,,,,,,,,,,,,,,,,,,,,,,,,,,,,,,,,,,727.5944550000131,727.5944550000131,0.00681089999852702,0.09911049995571375,4.0,0.4264596999855712,,,,,,,,,,,,,,667,Moral,2024-02-12_11h19.38.780,MoralCondition_v2,2022.2.5,29.957250999903362,
16,0,16,0,2,0,2,0,,,,,,,,,,,,,,,,,,,,,,,,,,,,,,,,,,,,,,,,,,,,,,,,,,,728.06128980004,728.06128980004,0.007811299990862608,0.09790300001623109,4.0,0.42448280000826344,,,,,,,,,,,,,,667,Moral,2024-02-12_11h19.38.780,MoralCondition_v2,2022.2.5,29.957250999903362,
16,0,16,0,3,0,3,0,,,,,,,,,,,,,,,,,,,,,,,,,,,,,,,,,,,,,,,,,,,,,,,,,,,728.5276153000304,728.5276153000304,0.007436399988364428,0.09910769999260083,4.0,0.4593728000181727,,,,,,,,,,,,,,667,Moral,2024-02-12_11h19.38.780,MoralCondition_v2,2022.2.5,29.957250999903362,
16,0,16,0,4,0,4,0,,,,,,,,,,,,,,,,,,,,,,,,,,,,,,,,,,,,,,,,,,,,,,,,,,,729.0445778000285,729.0445778000285,0.007721300004050136,0.11400230001891032,4.0,0.4739791000029072,,,,,,,,,,,,,,667,Moral,2024-02-12_11h19.38.780,MoralCondition_v2,2022.2.5,29.957250999903362,
16,0,16,0,5,0,5,0,,,,,,,,,,,,,,,,,,,,,,,,,,,,,,,,,,,,,,,,,,,,,,,,,,,729.544306900003,729.544306900003,0.0076855000224895775,0.09796820004703477,4.0,0.49138209997909144,,,,,,,,,,,,,,667,Moral,2024-02-12_11h19.38.780,MoralCondition_v2,2022.2.5,29.957250999903362,
16,0,16,0,6,0,6,0,,,,,,,,,,,,,,,,,,,,,,,,,,,,,,,,,,,,,,,,,,,,,,,,,,,730.0777564000455,730.0777564000455,0.006388999987393618,0.09919760003685951,4.0,0.593712100002449,,,,,,,,,,,,,,667,Moral,2024-02-12_11h19.38.780,MoralCondition_v2,2022.2.5,29.957250999903362,
16,0,16,0,,,,,,,,,,,,,,,,,,,,,,,,,,,,,,,,,,,,,,,,,,,,,,,,,,,,,,,,,,,,,730.7111049000523,730.7111049000523,0.0018210000125691295,0.0975602000253275,4.0,0.5633330999989994,,,,,,,,667,Moral,2024-02-12_11h19.38.780,MoralCondition_v2,2022.2.5,29.957250999903362,
17,0,17,0,0,0,0,0,,,,,,,,,,,,,,,,,,,,,,731.311175800045,0.0003836000105366111,0.09758349996991456,737.3109935999964,6.030724200012628,737.4942666999996,737.4942666999996,0.07693590002600104,0.18080979998921975,6.014138400030788,743.5943425000296,743.5943425000296,743.5943425000296,0.07829130004392937,0.18072200001915917,749.2943338000332,749.4946755000274,755.4943761000177,12.014111400058027,755.62737870001,755.62737870001,0.01434060005703941,0.13058190006995574,up,1.8967672000289895,757.5777166000335,4.439998883754015e-05,0.09759590000612661,,763.5942550000036,763.5942550000036,0.02407729998230934,0.11396210000384599,4.0,1.1577844000421464,,,,,,,755.5944387000054,755.5944387000054,743.4943792000413,743.4943792000413,,,,667,Moral,2024-02-12_11h19.38.780,MoralCondition_v2,2022.2.5,29.957250999903362,
17,0,17,0,1,0,1,0,,,,,,,,,,,,,,,,,,,,,,,,,,,,,,,,,,,,,,,,,,,,,,,,,,,764.7942544000107,764.7942544000107,0.008154999988619238,0.09779289999278262,4.0,0.4571200999780558,,,,,,,,,,,,,,667,Moral,2024-02-12_11h19.38.780,MoralCondition_v2,2022.2.5,29.957250999903362,
17,0,17,0,2,0,2,0,,,,,,,,,,,,,,,,,,,,,,,,,,,,,,,,,,,,,,,,,,,,,,,,,,,765.294227800041,765.294227800041,0.007324800011701882,0.09775850002188236,4.0,0.8916422000038438,,,,,,,,,,,,,,667,Moral,2024-02-12_11h19.38.780,MoralCondition_v2,2022.2.5,29.957250999903362,
17,0,17,0,3,0,3,0,,,,,,,,,,,,,,,,,,,,,,,,,,,,,,,,,,,,,,,,,,,,,,,,,,,766.2275604000315,766.2275604000315,0.00654430000577122,0.09933709999313578,4.0,0.660602200019639,,,,,,,,,,,,,,667,Moral,2024-02-12_11h19.38.780,MoralCondition_v2,2022.2.5,29.957250999903362,
17,0,17,0,4,0,4,0,,,,,,,,,,,,,,,,,,,,,,,,,,,,,,,,,,,,,,,,,,,,,,,,,,,766.9275618999964,766.9275618999964,0.007435799983795732,0.09949769999366254,4.0,0.826242400042247,,,,,,,,,,,,,,667,Moral,2024-02-12_11h19.38.780,MoralCondition_v2,2022.2.5,29.957250999903362,
17,0,17,0,5,0,5,0,,,,,,,,,,,,,,,,,,,,,,,,,,,,,,,,,,,,,,,,,,,,,,,,,,,767.7941759999958,767.7941759999958,0.006453400012105703,0.09925710002426058,4.0,0.8604140999959782,,,,,,,,,,,,,,667,Moral,2024-02-12_11h19.38.780,MoralCondition_v2,2022.2.5,29.957250999903362,
17,0,17,0,6,0,6,0,,,,,,,,,,,,,,,,,,,,,,,,,,,,,,,,,,,,,,,,,,,,,,,,,,,768.6941287000082,768.6941287000082,0.0062540999497286975,0.09720259997993708,4.0,0.7919892000500113,,,,,,,,,,,,,,667,Moral,2024-02-12_11h19.38.780,MoralCondition_v2,2022.2.5,29.957250999903362,
17,0,17,0,,,,,,,,,,,,,,,,,,,,,,,,,,,,,,,,,,,,,,,,,,,,,,,,,,,,,,,,,,,,,769.5276471000398,769.5276471000398,0.0013855000142939389,0.09756560000823811,4.0,0.7306597999995574,,,,,,,,667,Moral,2024-02-12_11h19.38.780,MoralCondition_v2,2022.2.5,29.957250999903362,
18,0,18,0,0,0,0,0,,,,,,,,,,,,,,,,,,,,,,770.2945100000361,0.0003166000242345035,0.09797220001928508,776.3108627000474,6.014561300049536,776.477440000046,776.477440000046,0.07064620003802702,0.181474800046999,6.01479530002689,782.5774404000258,782.5774404000258,782.5774404000258,0.06876000005286187,0.18132140004308894,788.2774941000389,788.4774635000504,794.477426700003,12.014486800064333,794.6108007000294,794.6108007000294,0.014700200117658824,0.11446290009189397,down,1.2568044000072405,795.9107442000532,5.3099996875971556e-05,0.09780980000505224,,801.9276226000511,801.9276226000511,0.025161499972455204,0.11462940002093092,4.0,1.1237493999651633,,,,,,,794.5774371000007,794.5774371000007,782.4774966000114,782.4774966000114,,,,667,Moral,2024-02-12_11h19.38.780,MoralCondition_v2,2022.2.5,29.957250999903362,
18,0,18,0,1,0,1,0,,,,,,,,,,,,,,,,,,,,,,,,,,,,,,,,,,,,,,,,,,,,,,,,,,,803.094046400045,803.094046400045,0.006601199973374605,0.09930780000286177,4.0,0.526948899962008,,,,,,,,,,,,,,667,Moral,2024-02-12_11h19.38.780,MoralCondition_v2,2022.2.5,29.957250999903362,
18,0,18,0,2,0,2,0,,,,,,,,,,,,,,,,,,,,,,,,,,,,,,,,,,,,,,,,,,,,,,,,,,,803.6607887000428,803.6607887000428,0.007440800021868199,0.09756329999072477,4.0,0.5246819999883883,,,,,,,,,,,,,,667,Moral,2024-02-12_11h19.38.780,MoralCondition_v2,2022.2.5,29.957250999903362,
18,0,18,0,3,0,3,0,,,,,,,,,,,,,,,,,,,,,,,,,,,,,,,,,,,,,,,,,,,,,,,,,,,804.2443321000319,804.2443321000319,0.008376599987968802,0.11446539999451488,4.0,0.7411591000272892,,,,,,,,,,,,,,667,Moral,2024-02-12_11h19.38.780,MoralCondition_v2,2022.2.5,29.957250999903362,
18,0,18,0,4,0,4,0,,,,,,,,,,,,,,,,,,,,,,,,,,,,,,,,,,,,,,,,,,,,,,,,,,,805.0109206000343,805.0109206000343,0.00643020001007244,0.09899979998590425,4.0,0.6269549999851733,,,,,,,,,,,,,,667,Moral,2024-02-12_11h19.38.780,MoralCondition_v2,2022.2.5,29.957250999903362,
18,0,18,0,5,0,5,0,,,,,,,,,,,,,,,,,,,,,,,,,,,,,,,,,,,,,,,,,,,,,,,,,,,805.694281700009,805.694281700009,0.00776349997613579,0.11439920001430437,4.0,0.8410973999998532,,,,,,,,,,,,,,667,Moral,2024-02-12_11h19.38.780,MoralCondition_v2,2022.2.5,29.957250999903362,
18,0,18,0,6,0,6,0,,,,,,,,,,,,,,,,,,,,,,,,,,,,,,,,,,,,,,,,,,,,,,,,,,,806.5609601000324,806.5609601000324,0.007251099974382669,0.09809799998765811,4.0,0.7253626000019722,,,,,,,,,,,,,,667,Moral,2024-02-12_11h19.38.780,MoralCondition_v2,2022.2.5,29.957250999903362,
18,0,18,0,,,,,,,,,,,,,,,,,,,,,,,,,,,,,,,,,,,,,,,,,,,,,,,,,,,,,,,,,,,,,807.3273841000046,807.3273841000046,0.0007024999940767884,0.099426599976141,4.0,1.066493000020273,,,,,,,,667,Moral,2024-02-12_11h19.38.780,MoralCondition_v2,2022.2.5,29.957250999903362,
19,0,19,0,0,0,0,0,,,,,,,,,,,,,,,,,,,,,,808.4277580000344,0.0003111999831162393,0.09796620003180578,814.4273232000414,6.0311559999827296,814.627266400028,814.627266400028,0.09084250003797933,0.19783660001121461,6.03118730004644,820.7271664,820.7271664,820.7271664,0.08956630004104227,0.19779420003760606,826.4274435000261,826.6275769000058,832.627312000026,12.031131400028244,832.7606357000186,832.7606357000186,0.03130350005812943,0.1310761000495404,down,0.8189809999894351,833.6273004999966,4.710000939667225e-05,0.09784350002883002,839.6271269000135,839.6271269000135,839.6271269000135,0.008824300020933151,0.09763110004132614,4.0,0.9567333000013605,,,,,,,832.7273150000256,832.7273150000256,820.627336900041,820.627336900041,,,,667,Moral,2024-02-12_11h19.38.780,MoralCondition_v2,2022.2.5,29.957250999903362,
19,0,19,0,1,0,1,0,,,,,,,,,,,,,,,,,,,,,,,,,,,,,,,,,,,,,,,,,,,,,,,,,,,840.6275001000031,840.6275001000031,0.006658199999947101,0.0994222000008449,4.0,0.46077269996749237,,,,,,,,,,,,,,667,Moral,2024-02-12_11h19.38.780,MoralCondition_v2,2022.2.5,29.957250999903362,
19,0,19,0,2,0,2,0,,,,,,,,,,,,,,,,,,,,,,,,,,,,,,,,,,,,,,,,,,,,,,,,,,,841.1274379000533,841.1274379000533,0.006591000012122095,0.0994784000213258,4.0,0.5607952999998815,,,,,,,,,,,,,,667,Moral,2024-02-12_11h19.38.780,MoralCondition_v2,2022.2.5,29.957250999903362,
19,0,19,0,3,0,3,0,,,,,,,,,,,,,,,,,,,,,,,,,,,,,,,,,,,,,,,,,,,,,,,,,,,841.7274332000525,841.7274332000525,0.00723759998800233,0.09792089997790754,4.0,0.5583135000197217,,,,,,,,,,,,,,667,Moral,2024-02-12_11h19.38.780,MoralCondition_v2,2022.2.5,29.957250999903362,
19,0,19,0,4,0,4,0,,,,,,,,,,,,,,,,,,,,,,,,,,,,,,,,,,,,,,,,,,,,,,,,,,,842.3441947000101,842.3441947000101,0.008262499992270023,0.1141219999990426,4.0,0.6076728000189178,,,,,,,,,,,,,,667,Moral,2024-02-12_11h19.38.780,MoralCondition_v2,2022.2.5,29.957250999903362,
19,0,19,0,5,0,5,0,,,,,,,,,,,,,,,,,,,,,,,,,,,,,,,,,,,,,,,,,,,,,,,,,,,842.9771998000215,842.9771998000215,0.006748399988282472,0.09913930000038818,4.0,0.7269911000039428,,,,,,,,,,,,,,667,Moral,2024-02-12_11h19.38.780,MoralCondition_v2,2022.2.5,29.957250999903362,
19,0,19,0,6,0,6,0,,,,,,,,,,,,,,,,,,,,,,,,,,,,,,,,,,,,,,,,,,,,,,,,,,,843.7608337000129,843.7608337000129,0.0075576999806798995,0.11476730002323166,4.0,0.6745782000361942,,,,,,,,,,,,,,667,Moral,2024-02-12_11h19.38.780,MoralCondition_v2,2022.2.5,29.957250999903362,
19,0,19,0,,,,,,,,,,,,,,,,,,,,,,,,,,,,,,,,,,,,,,,,,,,,,,,,,,,,,,,,,,,,,844.4605700999964,844.4605700999964,0.0007201000116765499,0.09916370001155883,4.0,0.8664851999492384,,,,,,,,667,Moral,2024-02-12_11h19.38.780,MoralCondition_v2,2022.2.5,29.957250999903362,
