loop.thisRepN,loop.thisTrialN,loop.thisN,loop.thisIndex,evaluate_all_emotions.thisRepN,evaluate_all_emotions.thisTrialN,evaluate_all_emotions.thisN,evaluate_all_emotions.thisIndex,sync_beep_1.started,p_port.started,p_port.stopped,sync_beep_1.stopped,sync_beep_2.started,sync_beep_3.started,sync_beep_3.stopped,sync_beep_4.started,baseline.started,p_port_2.started,p_port_2.stopped,baseline.stopped,p_port_3.started,p_port_3.stopped,Game_Start_Text.started,p_port_4.started,p_port_4.stopped,key_resp.started,key_resp.keys,key_resp.rt,fixation_cross.started,p_port_5.started,p_port_5.stopped,fixation_cross.stopped,p_port_6.started,player_image_intro.started,player_name_intro.started,p_port_7.started,p_port_7.stopped,p_port_8.started,player_image_offer.started,player_name_offer.started,proposed_split.started,p_port_9.started,p_port_9.stopped,proposed_split.stopped,accept_reject.started,p_port_15.started,p_port_15.stopped,accept_reject.stopped,p_port_10.started,arrow_instructions.started,offer_choice.started,p_port_11.started,p_port_11.stopped,offer_choice.keys,offer_choice.rt,Instructions_Affinity_Score.started,p_port_12.started,p_port_12.stopped,Emotion_Image.started,AffinityScore.started,p_port_13.started,p_port_13.stopped,AffinityScore.response,AffinityScore.rt,Instruction.started,Moral_Disgust_Score.started,p_port_14.started,p_port_14.stopped,Moral_Disgust_Score.response,Moral_Disgust_Score.rt,player_image_intro.stopped,player_name_intro.stopped,player_image_offer.stopped,player_name_offer.stopped,Instructions_Affinity_Score.stopped,p_port_6.stopped,p_port_8.stopped,p_port_10.stopped,participant,session,date,expName,psychopyVersion,frameRate,
,,,,,,,,11.548654209438247,0.0008057999657467008,0.11627959995530546,11.87688779993914,12.143553789972794,12.760386689950247,13.077055000001565,13.343637289979961,13.676881299936213,0.002027900074608624,0.09966219996567816,33.676867999951355,19.99954870005604,20.09960980003234,33.7768562999554,8.230004459619522e-05,0.099545200006105,34.22667979996186,space,1.1471306999446824,,,,,,,,,,,,,,,,,,,,,,,,,,,,,,,,,,,,,,,,,,,,,,,,,,,668,Moral,2024-02-15_17h39.07.456,MoralCondition_v2,2022.2.5,29.941796141968588,
0,0,0,0,0,0,0,0,,,,,,,,,,,,,,,,,,,,,35.42684929992538,0.0013058999320492148,0.0983096999116242,41.42684289999306,6.0317216999828815,41.66015769995283,41.66015769995283,0.08831060002557933,0.23164190002717078,6.031569099985063,47.74363319994882,47.74363319994882,47.74363319994882,0.08769720001146197,0.21511740004643798,53.44346640002914,53.61017390002962,6.0149733000434935,6.114913700032048,59.610118399956264,12.014917199965566,59.74347540002782,59.74347540002782,0.015126000042073429,0.11485400004312396,up,0.7980939000844955,60.59346959996037,7.079995702952147e-05,0.09772540000267327,66.62708589993417,66.62708589993417,0.027555300039239228,0.13108660001307726,1.0,4.104574500001036,,,,,,,,,,,,,,,668,Moral,2024-02-15_17h39.07.456,MoralCondition_v2,2022.2.5,29.941796141968588,
0,0,0,0,1,0,1,0,,,,,,,,,,,,,,,,,,,,,,,,,,,,,,,,,,,,,,,,,,,,,,,,,,,70.77691180002876,70.77691180002876,0.01073859992902726,0.11438239994458854,1.0,0.6380300999153405,,,,,,,,,,,,,,,668,Moral,2024-02-15_17h39.07.456,MoralCondition_v2,2022.2.5,29.941796141968588,
0,0,0,0,2,0,2,0,,,,,,,,,,,,,,,,,,,,,,,,,,,,,,,,,,,,,,,,,,,,,,,,,,,71.4603317999281,71.4603317999281,0.010232500033453107,0.11453589994926006,1.0,0.5719165999908,,,,,,,,,,,,,,,668,Moral,2024-02-15_17h39.07.456,MoralCondition_v2,2022.2.5,29.941796141968588,
0,0,0,0,3,0,3,0,,,,,,,,,,,,,,,,,,,,,,,,,,,,,,,,,,,,,,,,,,,,,,,,,,,72.06008359999396,72.06008359999396,0.008743899990804493,0.09889469994232059,7.0,1.3914798999903724,,,,,,,,,,,,,,,668,Moral,2024-02-15_17h39.07.456,MoralCondition_v2,2022.2.5,29.941796141968588,
0,0,0,0,4,0,4,0,,,,,,,,,,,,,,,,,,,,,,,,,,,,,,,,,,,,,,,,,,,,,,,,,,,73.49341200001072,73.49341200001072,0.008701799903064966,0.09778529999312013,1.0,1.4235350000672042,,,,,,,,,,,,,,,668,Moral,2024-02-15_17h39.07.456,MoralCondition_v2,2022.2.5,29.941796141968588,
0,0,0,0,5,0,5,0,,,,,,,,,,,,,,,,,,,,,,,,,,,,,,,,,,,,,,,,,,,,,,,,,,,74.97691939992364,74.97691939992364,0.010010300087742507,0.11420319997705519,1.0,0.4718482999596745,,,,,,,,,,,,,,,668,Moral,2024-02-15_17h39.07.456,MoralCondition_v2,2022.2.5,29.941796141968588,
0,0,0,0,6,0,6,0,,,,,,,,,,,,,,,,,,,,,,,,,,,,,,,,,,,,,,,,,,,,,,,,,,,75.49362389999442,75.49362389999442,0.011328499997034669,0.11416899994947016,1.0,0.5705682999687269,,,,,,,,,,,,,,,668,Moral,2024-02-15_17h39.07.456,MoralCondition_v2,2022.2.5,29.941796141968588,
0,0,0,0,,,,,,,,,,,,,,,,,,,,,,,,,,,,,,,,,,,,,,,,,,,,,,,,,,,,,,,,,,,,,76.09381739993114,76.09381739993114,0.001079500070773065,0.09849090001080185,7.0,1.865366099984385,,,,,,,,,668,Moral,2024-02-15_17h39.07.456,MoralCondition_v2,2022.2.5,29.941796141968588,
1,0,1,0,0,0,0,0,,,,,,,,,,,,,,,,,,,,,77.99371670000255,0.00014000001829117537,0.09906479995697737,84.01007289998233,6.01564849994611,84.17668319994118,84.17668319994118,0.07948009995743632,0.18242550001014024,6.015621599974111,90.26019910001196,90.26019910001196,90.26019910001196,0.06747680006083101,0.16583359998185188,95.95997570001055,96.19335999991745,6.032318599987775,6.1323095000116155,102.19333179993555,12.03228270006366,102.30988009995781,102.30988009995781,0.03222589998040348,0.11556700000073761,down,1.991029900033027,104.34332370001357,1.810002140700817e-05,0.09927929996047169,110.3432178000221,110.3432178000221,0.009937299997545779,0.0991837999317795,6.0,2.7569455000339076,,,,,,,90.17668769997545,90.17668769997545,102.26000349991955,102.26000349991955,110.3432178000221,,,,668,Moral,2024-02-15_17h39.07.456,MoralCondition_v2,2022.2.5,29.941796141968588,
1,0,1,0,1,0,1,0,,,,,,,,,,,,,,,,,,,,,,,,,,,,,,,,,,,,,,,,,,,,,,,,,,,113.16033959994093,113.16033959994093,0.007534699980169535,0.11400890001095831,2.0,2.140786199946888,,,,,,,,,,,,,,,668,Moral,2024-02-15_17h39.07.456,MoralCondition_v2,2022.2.5,29.941796141968588,
1,0,1,0,2,0,2,0,,,,,,,,,,,,,,,,,,,,,,,,,,,,,,,,,,,,,,,,,,,,,,,,,,,115.32678409991786,115.32678409991786,0.006215399946086109,0.09864789992570877,2.0,0.42696080007590353,,,,,,,,,,,,,,,668,Moral,2024-02-15_17h39.07.456,MoralCondition_v2,2022.2.5,29.941796141968588,
1,0,1,0,3,0,3,0,,,,,,,,,,,,,,,,,,,,,,,,,,,,,,,,,,,,,,,,,,,,,,,,,,,115.79337939992547,115.79337939992547,0.006846300093457103,0.09924630005843937,2.0,0.5599826000398025,,,,,,,,,,,,,,,668,Moral,2024-02-15_17h39.07.456,MoralCondition_v2,2022.2.5,29.941796141968588,
1,0,1,0,4,0,4,0,,,,,,,,,,,,,,,,,,,,,,,,,,,,,,,,,,,,,,,,,,,,,,,,,,,116.39331359998323,116.39331359998323,0.00700929993763566,0.09952499996870756,2.0,0.4602790999924764,,,,,,,,,,,,,,,668,Moral,2024-02-15_17h39.07.456,MoralCondition_v2,2022.2.5,29.941796141968588,
1,0,1,0,5,0,5,0,,,,,,,,,,,,,,,,,,,,,,,,,,,,,,,,,,,,,,,,,,,,,,,,,,,116.8931366999168,116.8931366999168,0.010684199980460107,0.09679260000120848,2.0,0.58725380001124,,,,,,,,,,,,,,,668,Moral,2024-02-15_17h39.07.456,MoralCondition_v2,2022.2.5,29.941796141968588,
1,0,1,0,6,0,6,0,,,,,,,,,,,,,,,,,,,,,,,,,,,,,,,,,,,,,,,,,,,,,,,,,,,117.52661319996696,117.52661319996696,0.008347099996171892,0.0975719999987632,2.0,0.8232938000001013,,,,,,,,,,,,,,,668,Moral,2024-02-15_17h39.07.456,MoralCondition_v2,2022.2.5,29.941796141968588,
1,0,1,0,,,,,,,,,,,,,,,,,,,,,,,,,,,,,,,,,,,,,,,,,,,,,,,,,,,,,,,,,,,,,118.39335729996674,118.39335729996674,0.001338499947451055,0.09754999994765967,1.0,3.164282099925913,,,,,,,,,668,Moral,2024-02-15_17h39.07.456,MoralCondition_v2,2022.2.5,29.941796141968588,
2,0,2,0,0,0,0,0,,,,,,,,,,,,,,,,,,,,,121.5933002999518,0.00022320006974041462,0.09816240007057786,127.60993739997502,6.014776900061406,127.79334720002953,127.79334720002953,0.08471550000831485,0.19821940001565963,6.031397100072354,133.87657259998377,133.87657259998377,133.87657259998377,0.08637040003668517,0.18159210006706417,139.57650049997028,139.77658379997592,6.014796000090428,6.114751900080591,145.7765465999255,12.014753400115296,145.90988649998326,145.90988649998326,0.014967700117267668,0.11484950012527406,down,0.4872834999114275,146.44322110002395,8.309993427246809e-05,0.09794639993924648,152.46023620001506,152.46023620001506,0.008663399959914386,0.11457509989850223,7.0,2.307090000016615,,,,,,,133.7932584999362,133.7932584999362,145.87652769999113,145.87652769999113,152.46023620001506,,,,668,Moral,2024-02-15_17h39.07.456,MoralCondition_v2,2022.2.5,29.941796141968588,
2,0,2,0,1,0,1,0,,,,,,,,,,,,,,,,,,,,,,,,,,,,,,,,,,,,,,,,,,,,,,,,,,,154.79323640000075,154.79323640000075,0.006675699958577752,0.09803469991311431,2.0,2.359277099953033,,,,,,,,,,,,,,,668,Moral,2024-02-15_17h39.07.456,MoralCondition_v2,2022.2.5,29.941796141968588,
2,0,2,0,2,0,2,0,,,,,,,,,,,,,,,,,,,,,,,,,,,,,,,,,,,,,,,,,,,,,,,,,,,157.19331629993394,157.19331629993394,0.0076135999988764524,0.0976465999847278,2.0,0.9912204999709502,,,,,,,,,,,,,,,668,Moral,2024-02-15_17h39.07.456,MoralCondition_v2,2022.2.5,29.941796141968588,
2,0,2,0,3,0,3,0,,,,,,,,,,,,,,,,,,,,,,,,,,,,,,,,,,,,,,,,,,,,,,,,,,,158.22650899994187,158.22650899994187,0.008400599937886,0.09718319994863123,5.0,2.090141099994071,,,,,,,,,,,,,,,668,Moral,2024-02-15_17h39.07.456,MoralCondition_v2,2022.2.5,29.941796141968588,
2,0,2,0,4,0,4,0,,,,,,,,,,,,,,,,,,,,,,,,,,,,,,,,,,,,,,,,,,,,,,,,,,,160.359715999919,160.359715999919,0.006919899955391884,0.0982039999216795,2.0,0.9257249000947922,,,,,,,,,,,,,,,668,Moral,2024-02-15_17h39.07.456,MoralCondition_v2,2022.2.5,29.941796141968588,
2,0,2,0,5,0,5,0,,,,,,,,,,,,,,,,,,,,,,,,,,,,,,,,,,,,,,,,,,,,,,,,,,,161.32660739996936,161.32660739996936,0.007231099996715784,0.09777799993753433,2.0,0.4584628000156954,,,,,,,,,,,,,,,668,Moral,2024-02-15_17h39.07.456,MoralCondition_v2,2022.2.5,29.941796141968588,
2,0,2,0,6,0,6,0,,,,,,,,,,,,,,,,,,,,,,,,,,,,,,,,,,,,,,,,,,,,,,,,,,,161.8263840000145,161.8263840000145,0.00580179993994534,0.09929439995903522,2.0,0.8276598000666127,,,,,,,,,,,,,,,668,Moral,2024-02-15_17h39.07.456,MoralCondition_v2,2022.2.5,29.941796141968588,
2,0,2,0,,,,,,,,,,,,,,,,,,,,,,,,,,,,,,,,,,,,,,,,,,,,,,,,,,,,,,,,,,,,,162.69345939997584,162.69345939997584,0.0007264000596478581,0.09909680008422583,2.0,2.1331432999577373,,,,,,,,,668,Moral,2024-02-15_17h39.07.456,MoralCondition_v2,2022.2.5,29.941796141968588,
3,0,3,0,0,0,0,0,,,,,,,,,,,,,,,,,,,,,164.8598066000268,0.0005123999435454607,0.09686719998717308,170.87642370001413,6.013481899979524,171.04321779997554,171.04321779997554,0.06579889997374266,0.18024390004575253,6.01349060004577,177.1263693999499,177.1263693999499,177.1263693999499,0.06360410002525896,0.1634457999607548,182.82639900001232,183.05980259994976,6.030210400000215,6.130147000076249,189.0600205999799,12.03051139996387,189.1930731999455,189.1930731999455,0.030278600053861737,0.1301010000752285,down,0.3720039000036195,189.62641099991743,4.079996142536402e-05,0.09789850004017353,195.64309989998583,195.64309989998583,0.009507899987511337,0.11453889997210354,2.0,1.9394952999427915,,,,,,,177.02629059995525,177.02629059995525,189.12671709991992,189.12671709991992,195.64309989998583,,,,668,Moral,2024-02-15_17h39.07.456,MoralCondition_v2,2022.2.5,29.941796141968588,
3,0,3,0,1,0,1,0,,,,,,,,,,,,,,,,,,,,,,,,,,,,,,,,,,,,,,,,,,,,,,,,,,,197.60972780000884,197.60972780000884,0.0065336000407114625,0.09927620005328208,6.0,1.4936768999323249,,,,,,,,,,,,,,,668,Moral,2024-02-15_17h39.07.456,MoralCondition_v2,2022.2.5,29.941796141968588,
3,0,3,0,2,0,2,0,,,,,,,,,,,,,,,,,,,,,,,,,,,,,,,,,,,,,,,,,,,,,,,,,,,199.1430305999238,199.1430305999238,0.007312600035220385,0.09823940007481724,2.0,1.0922260000370443,,,,,,,,,,,,,,,668,Moral,2024-02-15_17h39.07.456,MoralCondition_v2,2022.2.5,29.941796141968588,
3,0,3,0,3,0,3,0,,,,,,,,,,,,,,,,,,,,,,,,,,,,,,,,,,,,,,,,,,,,,,,,,,,200.27643229998648,200.27643229998648,0.006370099959895015,0.09915259992703795,2.0,0.5610393000533804,,,,,,,,,,,,,,,668,Moral,2024-02-15_17h39.07.456,MoralCondition_v2,2022.2.5,29.941796141968588,
3,0,3,0,4,0,4,0,,,,,,,,,,,,,,,,,,,,,,,,,,,,,,,,,,,,,,,,,,,,,,,,,,,200.89323649997823,200.89323649997823,0.008417800068855286,0.11420750000979751,2.0,1.140207099961117,,,,,,,,,,,,,,,668,Moral,2024-02-15_17h39.07.456,MoralCondition_v2,2022.2.5,29.941796141968588,
3,0,3,0,5,0,5,0,,,,,,,,,,,,,,,,,,,,,,,,,,,,,,,,,,,,,,,,,,,,,,,,,,,202.05976869992446,202.05976869992446,0.00765089993365109,0.09796059993095696,2.0,0.5912289000116289,,,,,,,,,,,,,,,668,Moral,2024-02-15_17h39.07.456,MoralCondition_v2,2022.2.5,29.941796141968588,
3,0,3,0,6,0,6,0,,,,,,,,,,,,,,,,,,,,,,,,,,,,,,,,,,,,,,,,,,,,,,,,,,,202.693077599979,202.693077599979,0.008392999996431172,0.09750540007371455,6.0,1.2231912000570446,,,,,,,,,,,,,,,668,Moral,2024-02-15_17h39.07.456,MoralCondition_v2,2022.2.5,29.941796141968588,
3,0,3,0,,,,,,,,,,,,,,,,,,,,,,,,,,,,,,,,,,,,,,,,,,,,,,,,,,,,,,,,,,,,,203.95955449994653,203.95955449994653,0.0011388000566512346,0.09788170002866536,2.0,1.7646296001039445,,,,,,,,,668,Moral,2024-02-15_17h39.07.456,MoralCondition_v2,2022.2.5,29.941796141968588,
4,0,4,0,0,0,0,0,,,,,,,,,,,,,,,,,,,,,205.75999669998419,0.00027169997338205576,0.09767200006172061,211.77628589991946,6.014324599993415,211.9428705999162,211.9428705999162,0.0686924000037834,0.1809901000233367,6.014278199989349,218.04302510002162,218.04302510002162,218.04302510002162,0.06699040008243173,0.1812332000117749,223.74298109998927,223.94314069999382,6.014488200074993,6.114095100085251,229.9429304000223,12.014350900077261,230.07620889996178,230.07620889996178,0.014388500130735338,0.1142676001181826,down,1.057066399953328,231.1928983000107,4.47999918833375e-05,0.09828389994800091,237.20940809999593,237.20940809999593,0.024593699956312776,0.1150663000298664,1.0,2.558013499947265,,,,,,,217.94295799999963,217.94295799999963,230.042882299982,230.042882299982,,,,,668,Moral,2024-02-15_17h39.07.456,MoralCondition_v2,2022.2.5,29.941796141968588,
4,0,4,0,1,0,1,0,,,,,,,,,,,,,,,,,,,,,,,,,,,,,,,,,,,,,,,,,,,,,,,,,,,239.82635779993143,239.82635779993143,0.00787019997369498,0.1138865000102669,7.0,1.5741425000596792,,,,,,,,,,,,,,,668,Moral,2024-02-15_17h39.07.456,MoralCondition_v2,2022.2.5,29.941796141968588,
4,0,4,0,2,0,2,0,,,,,,,,,,,,,,,,,,,,,,,,,,,,,,,,,,,,,,,,,,,,,,,,,,,241.42622149991803,241.42622149991803,0.006891400087624788,0.0982495000353083,7.0,1.3593249999685213,,,,,,,,,,,,,,,668,Moral,2024-02-15_17h39.07.456,MoralCondition_v2,2022.2.5,29.941796141968588,
4,0,4,0,3,0,3,0,,,,,,,,,,,,,,,,,,,,,,,,,,,,,,,,,,,,,,,,,,,,,,,,,,,242.82612739992328,242.82612739992328,0.007902499986812472,0.09789980005007237,1.0,1.0576506999786943,,,,,,,,,,,,,,,668,Moral,2024-02-15_17h39.07.456,MoralCondition_v2,2022.2.5,29.941796141968588,
4,0,4,0,4,0,4,0,,,,,,,,,,,,,,,,,,,,,,,,,,,,,,,,,,,,,,,,,,,,,,,,,,,243.92632189998403,243.92632189998403,0.007254499942064285,0.09794160001911223,1.0,0.25819149997550994,,,,,,,,,,,,,,,668,Moral,2024-02-15_17h39.07.456,MoralCondition_v2,2022.2.5,29.941796141968588,
4,0,4,0,5,0,5,0,,,,,,,,,,,,,,,,,,,,,,,,,,,,,,,,,,,,,,,,,,,,,,,,,,,244.2262167999288,244.2262167999288,0.006597000057809055,0.09944979997817427,1.0,0.5269865000154823,,,,,,,,,,,,,,,668,Moral,2024-02-15_17h39.07.456,MoralCondition_v2,2022.2.5,29.941796141968588,
4,0,4,0,6,0,6,0,,,,,,,,,,,,,,,,,,,,,,,,,,,,,,,,,,,,,,,,,,,,,,,,,,,244.79293469991535,244.79293469991535,0.00640070007648319,0.09861610003281385,1.0,0.5931243000086397,,,,,,,,,,,,,,,668,Moral,2024-02-15_17h39.07.456,MoralCondition_v2,2022.2.5,29.941796141968588,
4,0,4,0,,,,,,,,,,,,,,,,,,,,,,,,,,,,,,,,,,,,,,,,,,,,,,,,,,,,,,,,,,,,,245.42630449996796,245.42630449996796,0.001258599921129644,0.09825509996153414,1.0,2.898283899994567,,,,,,,,,668,Moral,2024-02-15_17h39.07.456,MoralCondition_v2,2022.2.5,29.941796141968588,
5,0,5,0,0,0,0,0,,,,,,,,,,,,,,,,,,,,,248.35977929993533,0.000242199981585145,0.09774130000732839,254.35949099995196,6.030954399961047,254.55964280001353,254.55964280001353,0.09337040001992136,0.19787350005935878,6.031008500023745,260.65932590002194,260.65932590002194,260.65932590002194,0.08813200006261468,0.19776890007779002,266.3594882999314,266.5595378000289,6.031081700115465,6.130838100099936,272.5594184999354,12.030905900057405,272.6927446000045,272.6927446000045,0.031061700079590082,0.13080360007006675,up,0.8247264999663457,273.5761135999346,4.0899962186813354e-05,0.09769379999488592,279.59255870000925,279.59255870000925,0.024491499993018806,0.11468599992804229,1.0,1.857840499957092,,,,,,,260.55944300000556,260.55944300000556,272.6594153000042,272.6594153000042,,,,,668,Moral,2024-02-15_17h39.07.456,MoralCondition_v2,2022.2.5,29.941796141968588,
5,0,5,0,1,0,1,0,,,,,,,,,,,,,,,,,,,,,,,,,,,,,,,,,,,,,,,,,,,,,,,,,,,281.49273539998103,281.49273539998103,0.0066936000948771834,0.09930440003518015,1.0,0.5935403999174014,,,,,,,,,,,,,,,668,Moral,2024-02-15_17h39.07.456,MoralCondition_v2,2022.2.5,29.941796141968588,
5,0,5,0,2,0,2,0,,,,,,,,,,,,,,,,,,,,,,,,,,,,,,,,,,,,,,,,,,,,,,,,,,,282.1429180999985,282.1429180999985,0.007742899935692549,0.11422019999008626,1.0,0.674034700030461,,,,,,,,,,,,,,,668,Moral,2024-02-15_17h39.07.456,MoralCondition_v2,2022.2.5,29.941796141968588,
5,0,5,0,3,0,3,0,,,,,,,,,,,,,,,,,,,,,,,,,,,,,,,,,,,,,,,,,,,,,,,,,,,282.84275579999667,282.84275579999667,0.006759000010788441,0.09933720005210489,1.0,1.0600201999768615,,,,,,,,,,,,,,,668,Moral,2024-02-15_17h39.07.456,MoralCondition_v2,2022.2.5,29.941796141968588,
5,0,5,0,4,0,4,0,,,,,,,,,,,,,,,,,,,,,,,,,,,,,,,,,,,,,,,,,,,,,,,,,,,283.94260299997404,283.94260299997404,0.007293300004675984,0.09822460007853806,1.0,0.6255305000813678,,,,,,,,,,,,,,,668,Moral,2024-02-15_17h39.07.456,MoralCondition_v2,2022.2.5,29.941796141968588,
5,0,5,0,5,0,5,0,,,,,,,,,,,,,,,,,,,,,,,,,,,,,,,,,,,,,,,,,,,,,,,,,,,284.6093071999494,284.6093071999494,0.006409300025552511,0.09898489993065596,1.0,1.2274220999097452,,,,,,,,,,,,,,,668,Moral,2024-02-15_17h39.07.456,MoralCondition_v2,2022.2.5,29.941796141968588,
5,0,5,0,6,0,6,0,,,,,,,,,,,,,,,,,,,,,,,,,,,,,,,,,,,,,,,,,,,,,,,,,,,285.87631189997774,285.87631189997774,0.007424399955198169,0.09758239996153861,7.0,1.0576555000152439,,,,,,,,,,,,,,,668,Moral,2024-02-15_17h39.07.456,MoralCondition_v2,2022.2.5,29.941796141968588,
5,0,5,0,,,,,,,,,,,,,,,,,,,,,,,,,,,,,,,,,,,,,,,,,,,,,,,,,,,,,,,,,,,,,286.976121100015,286.976121100015,0.0007003999780863523,0.09892599994782358,7.0,1.8994137999834493,,,,,,,,,668,Moral,2024-02-15_17h39.07.456,MoralCondition_v2,2022.2.5,29.941796141968588,
6,0,6,0,0,0,0,0,,,,,,,,,,,,,,,,,,,,,288.90967830002774,0.00037889997474849224,0.09729549998883158,294.909446900012,6.030769199947827,295.10915229993407,295.10915229993407,0.08631099993363023,0.1972871000180021,6.030830399948172,301.20939019997604,301.20939019997604,301.20939019997604,0.0876810000045225,0.19754049996845424,306.9092700999463,307.1092937999638,6.030606199987233,6.130520900012925,313.1092210999923,12.030632399953902,313.2425648999633,313.2425648999633,0.03078500006813556,0.13051210006233305,down,0.55490689992439,313.8425849999767,4.950002767145634e-05,0.09775720001198351,319.85928099998273,319.85928099998273,0.023206799989566207,0.11454740003682673,7.0,1.6591687999898568,,,,,,,301.1093053999357,301.1093053999357,313.2092952999519,313.2092952999519,,,,,668,Moral,2024-02-15_17h39.07.456,MoralCondition_v2,2022.2.5,29.941796141968588,
6,0,6,0,1,0,1,0,,,,,,,,,,,,,,,,,,,,,,,,,,,,,,,,,,,,,,,,,,,,,,,,,,,321.57604369998444,321.57604369998444,0.008035600068978965,0.11459330003708601,7.0,1.1745190999936312,,,,,,,,,,,,,,,668,Moral,2024-02-15_17h39.07.456,MoralCondition_v2,2022.2.5,29.941796141968588,
6,0,6,0,2,0,2,0,,,,,,,,,,,,,,,,,,,,,,,,,,,,,,,,,,,,,,,,,,,,,,,,,,,322.7758774999529,322.7758774999529,0.007688699988648295,0.09751760005019605,1.0,0.9242986999452114,,,,,,,,,,,,,,,668,Moral,2024-02-15_17h39.07.456,MoralCondition_v2,2022.2.5,29.941796141968588,
6,0,6,0,3,0,3,0,,,,,,,,,,,,,,,,,,,,,,,,,,,,,,,,,,,,,,,,,,,,,,,,,,,323.74263390002307,323.74263390002307,0.007359400042332709,0.09809009998571128,1.0,0.3250114999245852,,,,,,,,,,,,,,,668,Moral,2024-02-15_17h39.07.456,MoralCondition_v2,2022.2.5,29.941796141968588,
6,0,6,0,4,0,4,0,,,,,,,,,,,,,,,,,,,,,,,,,,,,,,,,,,,,,,,,,,,,,,,,,,,324.10931919992436,324.10931919992436,0.007233400014229119,0.09781230008229613,1.0,0.4584537000628188,,,,,,,,,,,,,,,668,Moral,2024-02-15_17h39.07.456,MoralCondition_v2,2022.2.5,29.941796141968588,
6,0,6,0,5,0,5,0,,,,,,,,,,,,,,,,,,,,,,,,,,,,,,,,,,,,,,,,,,,,,,,,,,,324.6091128999833,324.6091128999833,0.006991500034928322,0.09737450000829995,1.0,0.4916447999421507,,,,,,,,,,,,,,,668,Moral,2024-02-15_17h39.07.456,MoralCondition_v2,2022.2.5,29.941796141968588,
6,0,6,0,6,0,6,0,,,,,,,,,,,,,,,,,,,,,,,,,,,,,,,,,,,,,,,,,,,,,,,,,,,325.1595081000123,325.1595081000123,0.012277800007723272,0.11484259995631874,1.0,0.5367517000995576,,,,,,,,,,,,,,,668,Moral,2024-02-15_17h39.07.456,MoralCondition_v2,2022.2.5,29.941796141968588,
6,0,6,0,,,,,,,,,,,,,,,,,,,,,,,,,,,,,,,,,,,,,,,,,,,,,,,,,,,,,,,,,,,,,325.72587550000753,325.72587550000753,0.0016692000208422542,0.09762170002795756,1.0,2.363840500009246,,,,,,,,,668,Moral,2024-02-15_17h39.07.456,MoralCondition_v2,2022.2.5,29.941796141968588,
7,0,7,0,0,0,0,0,,,,,,,,,,,,,,,,,,,,,328.1258730000118,0.0002442999975755811,0.09823119989596307,334.1258664999623,6.031626499956474,334.3260649999138,334.3260649999138,0.08548599993810058,0.19841269997414201,6.031491199973971,340.42606620001607,340.42606620001607,340.42606620001607,0.08559789997525513,0.19836699997540563,346.1256916000275,346.3258305999916,6.03153919999022,6.131464599980973,352.325769099989,12.031480800011195,352.45924220001325,352.45924220001325,0.03169410000555217,0.1314161999616772,up,1.5535206000786275,354.0590813999297,4.870002157986164e-05,0.09781220008153468,360.05909909994807,360.05909909994807,0.005639999988488853,0.09765120001975447,7.0,1.893102900008671,,,,,,,340.3259271000279,340.3259271000279,352.4257935999194,352.4257935999194,360.05909909994807,,,,668,Moral,2024-02-15_17h39.07.456,MoralCondition_v2,2022.2.5,29.941796141968588,
7,0,7,0,1,0,1,0,,,,,,,,,,,,,,,,,,,,,,,,,,,,,,,,,,,,,,,,,,,,,,,,,,,362.0092062000185,362.0092062000185,0.0077436999417841434,0.11427489994093776,1.0,1.40759670000989,,,,,,,,,,,,,,,668,Moral,2024-02-15_17h39.07.456,MoralCondition_v2,2022.2.5,29.941796141968588,
7,0,7,0,2,0,2,0,,,,,,,,,,,,,,,,,,,,,,,,,,,,,,,,,,,,,,,,,,,,,,,,,,,363.44221509993076,363.44221509993076,0.006594200036488473,0.09919470001477748,1.0,0.2941315999487415,,,,,,,,,,,,,,,668,Moral,2024-02-15_17h39.07.456,MoralCondition_v2,2022.2.5,29.941796141968588,
7,0,7,0,3,0,3,0,,,,,,,,,,,,,,,,,,,,,,,,,,,,,,,,,,,,,,,,,,,,,,,,,,,363.77568700001575,363.77568700001575,0.006645600078627467,0.09939590003341436,1.0,0.29339949996210635,,,,,,,,,,,,,,,668,Moral,2024-02-15_17h39.07.456,MoralCondition_v2,2022.2.5,29.941796141968588,
7,0,7,0,4,0,4,0,,,,,,,,,,,,,,,,,,,,,,,,,,,,,,,,,,,,,,,,,,,,,,,,,,,364.1089985999279,364.1089985999279,0.006543399998918176,0.09904999996069819,1.0,0.32687250000890344,,,,,,,,,,,,,,,668,Moral,2024-02-15_17h39.07.456,MoralCondition_v2,2022.2.5,29.941796141968588,
7,0,7,0,5,0,5,0,,,,,,,,,,,,,,,,,,,,,,,,,,,,,,,,,,,,,,,,,,,,,,,,,,,364.4757710000267,364.4757710000267,0.006942400010302663,0.09749670000746846,1.0,0.5247767999535426,,,,,,,,,,,,,,,668,Moral,2024-02-15_17h39.07.456,MoralCondition_v2,2022.2.5,29.941796141968588,
7,0,7,0,6,0,6,0,,,,,,,,,,,,,,,,,,,,,,,,,,,,,,,,,,,,,,,,,,,,,,,,,,,365.0423453999683,365.0423453999683,0.009999200003221631,0.09788590006064624,1.0,0.488660900038667,,,,,,,,,,,,,,,668,Moral,2024-02-15_17h39.07.456,MoralCondition_v2,2022.2.5,29.941796141968588,
7,0,7,0,,,,,,,,,,,,,,,,,,,,,,,,,,,,,,,,,,,,,,,,,,,,,,,,,,,,,,,,,,,,,365.57592339999974,365.57592339999974,0.0007000999758020043,0.09933490003459156,7.0,1.4329595000017434,,,,,,,,,668,Moral,2024-02-15_17h39.07.456,MoralCondition_v2,2022.2.5,29.941796141968588,
8,0,8,0,0,0,0,0,,,,,,,,,,,,,,,,,,,,,367.0427410999546,0.0003223000094294548,0.0972546999109909,373.0590187999187,6.0138452999526635,373.2257332999725,373.2257332999725,0.06984769995324314,0.18085300002712756,6.013865199987777,379.3257048999658,379.3257048999658,379.3257048999658,0.06818549998570234,0.18077430000994354,385.0256198999705,385.2254744999809,6.013695499976166,6.113842400023714,391.225523000001,12.013756799977273,391.35901389992796,391.35901389992796,0.014002299983985722,0.11361750005744398,down,1.1337547999573871,392.5422620999161,3.50000336766243e-05,0.09810120007023215,398.55887069995515,398.55887069995515,0.023001400055363774,0.11485840007662773,7.0,1.9928009000141174,,,,,,,379.2256749999942,379.2256749999942,391.32556479994673,391.32556479994673,,,,,668,Moral,2024-02-15_17h39.07.456,MoralCondition_v2,2022.2.5,29.941796141968588,
8,0,8,0,1,0,1,0,,,,,,,,,,,,,,,,,,,,,,,,,,,,,,,,,,,,,,,,,,,,,,,,,,,400.5921895999927,400.5921895999927,0.008506500045768917,0.09909580007661134,1.0,1.7247724999906495,,,,,,,,,,,,,,,668,Moral,2024-02-15_17h39.07.456,MoralCondition_v2,2022.2.5,29.941796141968588,
8,0,8,0,2,0,2,0,,,,,,,,,,,,,,,,,,,,,,,,,,,,,,,,,,,,,,,,,,,,,,,,,,,402.3588362999726,402.3588362999726,0.007219600025564432,0.09805649996269494,1.0,0.5249622000847012,,,,,,,,,,,,,,,668,Moral,2024-02-15_17h39.07.456,MoralCondition_v2,2022.2.5,29.941796141968588,
8,0,8,0,3,0,3,0,,,,,,,,,,,,,,,,,,,,,,,,,,,,,,,,,,,,,,,,,,,,,,,,,,,402.92549179994967,402.92549179994967,0.006936199963092804,0.09885289997328073,1.0,0.693081000004895,,,,,,,,,,,,,,,668,Moral,2024-02-15_17h39.07.456,MoralCondition_v2,2022.2.5,29.941796141968588,
8,0,8,0,4,0,4,0,,,,,,,,,,,,,,,,,,,,,,,,,,,,,,,,,,,,,,,,,,,,,,,,,,,403.6589771999279,403.6589771999279,0.007234299904666841,0.09806419990491122,7.0,1.2250088000437245,,,,,,,,,,,,,,,668,Moral,2024-02-15_17h39.07.456,MoralCondition_v2,2022.2.5,29.941796141968588,
8,0,8,0,5,0,5,0,,,,,,,,,,,,,,,,,,,,,,,,,,,,,,,,,,,,,,,,,,,,,,,,,,,404.9421776999952,404.9421776999952,0.008306700037792325,0.1142904000589624,1.0,0.9072473999112844,,,,,,,,,,,,,,,668,Moral,2024-02-15_17h39.07.456,MoralCondition_v2,2022.2.5,29.941796141968588,
8,0,8,0,6,0,6,0,,,,,,,,,,,,,,,,,,,,,,,,,,,,,,,,,,,,,,,,,,,,,,,,,,,405.8755839000223,405.8755839000223,0.007075599976815283,0.09815380000509322,1.0,0.49213570007123053,,,,,,,,,,,,,,,668,Moral,2024-02-15_17h39.07.456,MoralCondition_v2,2022.2.5,29.941796141968588,
8,0,8,0,,,,,,,,,,,,,,,,,,,,,,,,,,,,,,,,,,,,,,,,,,,,,,,,,,,,,,,,,,,,,406.4090189000126,406.4090189000126,0.0006701999809592962,0.09921289992053062,1.0,2.1328228999627754,,,,,,,,,668,Moral,2024-02-15_17h39.07.456,MoralCondition_v2,2022.2.5,29.941796141968588,
9,0,9,0,0,0,0,0,,,,,,,,,,,,,,,,,,,,,408.57559939997736,0.0001354000996798277,0.09907760005444288,414.5923285000026,6.015677300048992,414.7588857000228,414.7588857000228,0.07919720001518726,0.1823467001086101,6.0158833001041785,420.8588552000001,420.8588552000001,420.8588552000001,0.07671860011760145,0.18255560006946325,426.5588020000141,426.7587575999787,6.015636200085282,6.115757800056599,432.7587705999613,12.015677700052038,432.89219199994113,432.89219199994113,0.015781200141645968,0.11560990009456873,up,0.7448002999881282,433.69207699992694,3.899994771927595e-05,0.09801469999365509,439.7253671999788,439.7253671999788,0.025352900032885373,0.13143880001734942,1.0,1.8741398999700323,,,,,,,420.74198369996157,420.74198369996157,432.858710099943,432.858710099943,,,,,668,Moral,2024-02-15_17h39.07.456,MoralCondition_v2,2022.2.5,29.941796141968588,
9,0,9,0,1,0,1,0,,,,,,,,,,,,,,,,,,,,,,,,,,,,,,,,,,,,,,,,,,,,,,,,,,,441.62536679999903,441.62536679999903,0.0063377999467775226,0.09893690003082156,5.0,2.027038700063713,,,,,,,,,,,,,,,668,Moral,2024-02-15_17h39.07.456,MoralCondition_v2,2022.2.5,29.941796141968588,
9,0,9,0,2,0,2,0,,,,,,,,,,,,,,,,,,,,,,,,,,,,,,,,,,,,,,,,,,,,,,,,,,,443.692156599951,443.692156599951,0.006468800012953579,0.0990134000312537,1.0,1.426892300019972,,,,,,,,,,,,,,,668,Moral,2024-02-15_17h39.07.456,MoralCondition_v2,2022.2.5,29.941796141968588,
9,0,9,0,3,0,3,0,,,,,,,,,,,,,,,,,,,,,,,,,,,,,,,,,,,,,,,,,,,,,,,,,,,445.1588923999807,445.1588923999807,0.006749199936166406,0.09721209993585944,1.0,1.2581992000341415,,,,,,,,,,,,,,,668,Moral,2024-02-15_17h39.07.456,MoralCondition_v2,2022.2.5,29.941796141968588,
9,0,9,0,4,0,4,0,,,,,,,,,,,,,,,,,,,,,,,,,,,,,,,,,,,,,,,,,,,,,,,,,,,446.4585517999949,446.4585517999949,0.007061399985104799,0.09926759998779744,5.0,2.059826400014572,,,,,,,,,,,,,,,668,Moral,2024-02-15_17h39.07.456,MoralCondition_v2,2022.2.5,29.941796141968588,
9,0,9,0,5,0,5,0,,,,,,,,,,,,,,,,,,,,,,,,,,,,,,,,,,,,,,,,,,,,,,,,,,,448.5585422000149,448.5585422000149,0.006383099942468107,0.09914720000233501,1.0,1.293978999950923,,,,,,,,,,,,,,,668,Moral,2024-02-15_17h39.07.456,MoralCondition_v2,2022.2.5,29.941796141968588,
9,0,9,0,6,0,6,0,,,,,,,,,,,,,,,,,,,,,,,,,,,,,,,,,,,,,,,,,,,,,,,,,,,449.89200509991497,449.89200509991497,0.007156399893574417,0.0973164999159053,1.0,0.5578479999676347,,,,,,,,,,,,,,,668,Moral,2024-02-15_17h39.07.456,MoralCondition_v2,2022.2.5,29.941796141968588,
9,0,9,0,,,,,,,,,,,,,,,,,,,,,,,,,,,,,,,,,,,,,,,,,,,,,,,,,,,,,,,,,,,,,450.4921802999452,450.4921802999452,0.001291800057515502,0.09791160002350807,3.0,4.7976713998941705,,,,,,,,,668,Moral,2024-02-15_17h39.07.456,MoralCondition_v2,2022.2.5,29.941796141968588,
10,0,10,0,0,0,0,0,,,,,,,,,,,,,,,,,,,,,455.3255890000146,0.0002128001069650054,0.09810430009383708,461.3252636999823,6.031524899997748,461.50842009996995,461.50842009996995,0.07022380002308637,0.18141680012922734,6.014891000115313,467.6089239999419,467.6089239999419,467.6089239999419,0.07463550008833408,0.1816627001389861,473.30852710001636,473.50866509997286,6.014895500149578,6.114718900062144,479.50850699993316,12.014725900138728,479.6420777000021,479.6420777000021,0.014991800067946315,0.11467840010300279,down,1.3627901000436395,481.04186619992834,4.329998046159744e-05,0.09750089992303401,487.0751571999863,487.0751571999863,0.025363099994137883,0.130696399952285,7.0,2.2730306000448763,,,,,,,467.5086002999451,467.5086002999451,479.60854379995726,479.60854379995726,,,,,668,Moral,2024-02-15_17h39.07.456,MoralCondition_v2,2022.2.5,29.941796141968588,
10,0,10,0,1,0,1,0,,,,,,,,,,,,,,,,,,,,,,,,,,,,,,,,,,,,,,,,,,,,,,,,,,,489.39211749995593,489.39211749995593,0.010361399967223406,0.11385239998344332,1.0,1.1380135000217706,,,,,,,,,,,,,,,668,Moral,2024-02-15_17h39.07.456,MoralCondition_v2,2022.2.5,29.941796141968588,
10,0,10,0,2,0,2,0,,,,,,,,,,,,,,,,,,,,,,,,,,,,,,,,,,,,,,,,,,,,,,,,,,,490.5583146000281,490.5583146000281,0.006494500092230737,0.09935680008493364,1.0,0.5270272999769077,,,,,,,,,,,,,,,668,Moral,2024-02-15_17h39.07.456,MoralCondition_v2,2022.2.5,29.941796141968588,
10,0,10,0,3,0,3,0,,,,,,,,,,,,,,,,,,,,,,,,,,,,,,,,,,,,,,,,,,,,,,,,,,,491.1251684000017,491.1251684000017,0.006418400094844401,0.09916520002298057,1.0,0.5272534999530762,,,,,,,,,,,,,,,668,Moral,2024-02-15_17h39.07.456,MoralCondition_v2,2022.2.5,29.941796141968588,
10,0,10,0,4,0,4,0,,,,,,,,,,,,,,,,,,,,,,,,,,,,,,,,,,,,,,,,,,,,,,,,,,,491.6917621999746,491.6917621999746,0.007028399966657162,0.09768210002221167,7.0,1.1915764000732452,,,,,,,,,,,,,,,668,Moral,2024-02-15_17h39.07.456,MoralCondition_v2,2022.2.5,29.941796141968588,
10,0,10,0,5,0,5,0,,,,,,,,,,,,,,,,,,,,,,,,,,,,,,,,,,,,,,,,,,,,,,,,,,,492.9250116000185,492.9250116000185,0.006436200113967061,0.09904100000858307,1.0,0.927220799960196,,,,,,,,,,,,,,,668,Moral,2024-02-15_17h39.07.456,MoralCondition_v2,2022.2.5,29.941796141968588,
10,0,10,0,6,0,6,0,,,,,,,,,,,,,,,,,,,,,,,,,,,,,,,,,,,,,,,,,,,,,,,,,,,493.8919524999801,493.8919524999801,0.006940999999642372,0.09934229997452348,1.0,0.5602809999836609,,,,,,,,,,,,,,,668,Moral,2024-02-15_17h39.07.456,MoralCondition_v2,2022.2.5,29.941796141968588,
10,0,10,0,,,,,,,,,,,,,,,,,,,,,,,,,,,,,,,,,,,,,,,,,,,,,,,,,,,,,,,,,,,,,494.4917087999638,494.4917087999638,0.0007023999933153391,0.0991922999965027,1.0,1.8330308999866247,,,,,,,,,668,Moral,2024-02-15_17h39.07.456,MoralCondition_v2,2022.2.5,29.941796141968588,
11,0,11,0,0,0,0,0,,,,,,,,,,,,,,,,,,,,,496.358627300011,0.00037269992753863335,0.09771949995774776,502.3584034999367,6.0310186999849975,502.5418559999671,502.5418559999671,0.07508430001325905,0.18099789996631444,6.0142148999730125,508.6417966999579,508.6417966999579,508.6417966999579,0.07318820001091808,0.1811811999650672,514.3417986999266,514.5417036999715,6.014323899988085,6.114400999969803,520.5416726999683,12.014295100001618,520.6749827999156,520.6749827999156,0.01444409997202456,0.1142414000350982,down,0.6186219999799505,521.3416700999951,6.54000323265791e-05,0.09779629996046424,527.3588750999188,527.3588750999188,0.025127500062808394,0.1145562999881804,1.0,2.8570899000624195,,,,,,,508.54170369997155,508.54170369997155,520.641623799922,520.641623799922,,,,,668,Moral,2024-02-15_17h39.07.456,MoralCondition_v2,2022.2.5,29.941796141968588,
11,0,11,0,1,0,1,0,,,,,,,,,,,,,,,,,,,,,,,,,,,,,,,,,,,,,,,,,,,,,,,,,,,530.2581983000273,530.2581983000273,0.007679400034248829,0.09743520000483841,1.0,0.5909344999818131,,,,,,,,,,,,,,,668,Moral,2024-02-15_17h39.07.456,MoralCondition_v2,2022.2.5,29.941796141968588,
11,0,11,0,2,0,2,0,,,,,,,,,,,,,,,,,,,,,,,,,,,,,,,,,,,,,,,,,,,,,,,,,,,530.9085849999683,530.9085849999683,0.009102399926632643,0.11479949997738004,7.0,1.2400114999618381,,,,,,,,,,,,,,,668,Moral,2024-02-15_17h39.07.456,MoralCondition_v2,2022.2.5,29.941796141968588,
11,0,11,0,3,0,3,0,,,,,,,,,,,,,,,,,,,,,,,,,,,,,,,,,,,,,,,,,,,,,,,,,,,532.1749191000126,532.1749191000126,0.007235000026412308,0.0992683001095429,1.0,2.226422999985516,,,,,,,,,,,,,,,668,Moral,2024-02-15_17h39.07.456,MoralCondition_v2,2022.2.5,29.941796141968588,
11,0,11,0,4,0,4,0,,,,,,,,,,,,,,,,,,,,,,,,,,,,,,,,,,,,,,,,,,,,,,,,,,,534.4416002000216,534.4416002000216,0.006852600025013089,0.09914299997035414,1.0,0.6934445999795571,,,,,,,,,,,,,,,668,Moral,2024-02-15_17h39.07.456,MoralCondition_v2,2022.2.5,29.941796141968588,
11,0,11,0,5,0,5,0,,,,,,,,,,,,,,,,,,,,,,,,,,,,,,,,,,,,,,,,,,,,,,,,,,,535.1748403999954,535.1748403999954,0.007382699986919761,0.09933019999880344,1.0,0.5929222999839112,,,,,,,,,,,,,,,668,Moral,2024-02-15_17h39.07.456,MoralCondition_v2,2022.2.5,29.941796141968588,
11,0,11,0,6,0,6,0,,,,,,,,,,,,,,,,,,,,,,,,,,,,,,,,,,,,,,,,,,,,,,,,,,,535.8253636999289,535.8253636999289,0.007366999983787537,0.11355200002435595,7.0,1.3739951000316069,,,,,,,,,,,,,,,668,Moral,2024-02-15_17h39.07.456,MoralCondition_v2,2022.2.5,29.941796141968588,
11,0,11,0,,,,,,,,,,,,,,,,,,,,,,,,,,,,,,,,,,,,,,,,,,,,,,,,,,,,,,,,,,,,,537.2249709999887,537.2249709999887,0.0011761999921873212,0.09797150001395494,1.0,1.5980619000038132,,,,,,,,,668,Moral,2024-02-15_17h39.07.456,MoralCondition_v2,2022.2.5,29.941796141968588,
12,0,12,0,0,0,0,0,,,,,,,,,,,,,,,,,,,,,538.8584984999616,0.00013960001524537802,0.09931760001927614,544.8584524999605,5.999406700022519,545.0248876999831,545.0248876999831,0.05491279996931553,0.16621119994670153,5.999241900048219,551.1247725000139,551.1247725000139,551.1247725000139,0.060758600011467934,0.16609389998484403,556.8249326000223,557.0248522999464,5.999198900070041,6.099374899989925,563.0247978999978,11.99914590001572,563.1581581999781,563.1581581999781,-3.899994771927595e-05,0.09880030003841966,up,0.43083729990758,563.6248289999785,3.360002301633358e-05,0.09807720000389963,569.6416506000096,569.6416506000096,0.0089372000657022,0.11487350007519126,1.0,1.4069305999437347,,,,,,,551.0248548999662,551.0248548999662,563.124804400024,563.124804400024,569.6416506000096,6.099154399940744,6.099209500011057,12.099157099961303,668,Moral,2024-02-15_17h39.07.456,MoralCondition_v2,2022.2.5,29.941796141968588,
12,0,12,0,1,0,1,0,,,,,,,,,,,,,,,,,,,,,,,,,,,,,,,,,,,,,,,,,,,,,,,,,,,571.0746855000034,571.0746855000034,0.006206999998539686,0.09928680001758039,1.0,0.6273847999982536,,,,,,,,,,,,,,,668,Moral,2024-02-15_17h39.07.456,MoralCondition_v2,2022.2.5,29.941796141968588,
12,0,12,0,2,0,2,0,,,,,,,,,,,,,,,,,,,,,,,,,,,,,,,,,,,,,,,,,,,,,,,,,,,571.7413407999557,571.7413407999557,0.006520899944007397,0.09918679995462298,1.0,0.4938308000564575,,,,,,,,,,,,,,,668,Moral,2024-02-15_17h39.07.456,MoralCondition_v2,2022.2.5,29.941796141968588,
12,0,12,0,3,0,3,0,,,,,,,,,,,,,,,,,,,,,,,,,,,,,,,,,,,,,,,,,,,,,,,,,,,572.2745968999807,572.2745968999807,0.006566899945028126,0.09951599990017712,1.0,0.5268769999966025,,,,,,,,,,,,,,,668,Moral,2024-02-15_17h39.07.456,MoralCondition_v2,2022.2.5,29.941796141968588,
12,0,12,0,4,0,4,0,,,,,,,,,,,,,,,,,,,,,,,,,,,,,,,,,,,,,,,,,,,,,,,,,,,572.8415007999865,572.8415007999865,0.006675900076515973,0.09922800003550947,1.0,0.7602335999254137,,,,,,,,,,,,,,,668,Moral,2024-02-15_17h39.07.456,MoralCondition_v2,2022.2.5,29.941796141968588,
12,0,12,0,5,0,5,0,,,,,,,,,,,,,,,,,,,,,,,,,,,,,,,,,,,,,,,,,,,,,,,,,,,573.6414316999726,573.6414316999726,0.008696499979123473,0.09759459993802011,7.0,1.1233859999338165,,,,,,,,,,,,,,,668,Moral,2024-02-15_17h39.07.456,MoralCondition_v2,2022.2.5,29.941796141968588,
12,0,12,0,6,0,6,0,,,,,,,,,,,,,,,,,,,,,,,,,,,,,,,,,,,,,,,,,,,,,,,,,,,574.8080437999452,574.8080437999452,0.007363100070506334,0.09822480008006096,1.0,1.1919353000121191,,,,,,,,,,,,,,,668,Moral,2024-02-15_17h39.07.456,MoralCondition_v2,2022.2.5,29.941796141968588,
12,0,12,0,,,,,,,,,,,,,,,,,,,,,,,,,,,,,,,,,,,,,,,,,,,,,,,,,,,,,,,,,,,,,576.0414482000051,576.0414482000051,0.0013362999306991696,0.09741179994307458,7.0,1.8307386999949813,,,,,,,,,668,Moral,2024-02-15_17h39.07.456,MoralCondition_v2,2022.2.5,29.941796141968588,
13,0,13,0,0,0,0,0,,,,,,,,,,,,,,,,,,,,,577.9082714000251,0.0003795000957325101,0.09674330009147525,583.924757599947,6.013694400084205,584.0912996999687,584.0912996999687,0.0734933001222089,0.18027640006039292,6.013512400095351,590.1913930999581,590.1913930999581,590.1913930999581,0.07277240010444075,0.18050010013394058,595.8913331999211,596.0911597999511,6.0133441000944,6.113596900133416,602.0912923000287,12.013529500109144,602.2247255999828,602.2247255999828,0.01374070008751005,0.11345240008085966,up,1.3805187999969348,603.6414866999257,4.199997056275606e-05,0.09758820000570267,609.6414389000274,609.6414389000274,0.00846719997934997,0.09763329999987036,1.0,2.656706999987364,,,,,,,590.0745411999524,590.0745411999524,602.1912902999902,602.1912902999902,609.6414389000274,,,,668,Moral,2024-02-15_17h39.07.456,MoralCondition_v2,2022.2.5,29.941796141968588,
13,0,13,0,1,0,1,0,,,,,,,,,,,,,,,,,,,,,,,,,,,,,,,,,,,,,,,,,,,,,,,,,,,612.3411527000135,612.3411527000135,0.007310000015422702,0.09783480002079159,1.0,0.4917724000988528,,,,,,,,,,,,,,,668,Moral,2024-02-15_17h39.07.456,MoralCondition_v2,2022.2.5,29.941796141968588,
13,0,13,0,2,0,2,0,,,,,,,,,,,,,,,,,,,,,,,,,,,,,,,,,,,,,,,,,,,,,,,,,,,612.8912447999464,612.8912447999464,0.009195999940857291,0.1156230999622494,1.0,0.6072589999530464,,,,,,,,,,,,,,,668,Moral,2024-02-15_17h39.07.456,MoralCondition_v2,2022.2.5,29.941796141968588,
13,0,13,0,3,0,3,0,,,,,,,,,,,,,,,,,,,,,,,,,,,,,,,,,,,,,,,,,,,,,,,,,,,613.524503899971,613.524503899971,0.006521100061945617,0.09917529998347163,5.0,1.9268858000868931,,,,,,,,,,,,,,,668,Moral,2024-02-15_17h39.07.456,MoralCondition_v2,2022.2.5,29.941796141968588,
13,0,13,0,4,0,4,0,,,,,,,,,,,,,,,,,,,,,,,,,,,,,,,,,,,,,,,,,,,,,,,,,,,615.4912468999391,615.4912468999391,0.007058899966068566,0.09794430003967136,5.0,1.3250000000698492,,,,,,,,,,,,,,,668,Moral,2024-02-15_17h39.07.456,MoralCondition_v2,2022.2.5,29.941796141968588,
13,0,13,0,5,0,5,0,,,,,,,,,,,,,,,,,,,,,,,,,,,,,,,,,,,,,,,,,,,,,,,,,,,616.858031700016,616.858031700016,0.006235000095330179,0.09920400008559227,1.0,0.994166599935852,,,,,,,,,,,,,,,668,Moral,2024-02-15_17h39.07.456,MoralCondition_v2,2022.2.5,29.941796141968588,
13,0,13,0,6,0,6,0,,,,,,,,,,,,,,,,,,,,,,,,,,,,,,,,,,,,,,,,,,,,,,,,,,,617.8912802999839,617.8912802999839,0.006877300096675754,0.09802320005837828,1.0,0.25881559995468706,,,,,,,,,,,,,,,668,Moral,2024-02-15_17h39.07.456,MoralCondition_v2,2022.2.5,29.941796141968588,
13,0,13,0,,,,,,,,,,,,,,,,,,,,,,,,,,,,,,,,,,,,,,,,,,,,,,,,,,,,,,,,,,,,,618.1913787999656,618.1913787999656,0.0013364999322220683,0.09802079992368817,3.0,2.597560300026089,,,,,,,,,668,Moral,2024-02-15_17h39.07.456,MoralCondition_v2,2022.2.5,29.941796141968588,
14,0,14,0,0,0,0,0,,,,,,,,,,,,,,,,,,,,,620.8248859000159,0.00015239999629557133,0.09944589994847775,626.824520999915,5.999341799993999,626.9910583000164,626.9910583000164,0.05307280004490167,0.16602030000649393,5.999505000072531,633.0912075999659,633.0912075999659,633.0912075999659,0.054674900020472705,0.16624520008917898,638.7912600999698,638.9912680999842,5.999526100000367,6.099319300032221,644.9910749000264,11.999335400061682,645.1244275999488,645.1244275999488,0.00021080009173601866,0.09926790010649711,down,1.9763233000412583,647.1410629999591,5.340005736798048e-05,0.09781589999329299,653.1743743999396,653.1743743999396,0.02535790007095784,0.13103000004775822,1.0,1.7067229999229312,,,,,,,632.9911394999363,632.9911394999363,645.0911068000132,645.0911068000132,,6.099266899982467,6.099427300039679,12.099345599999651,668,Moral,2024-02-15_17h39.07.456,MoralCondition_v2,2022.2.5,29.941796141968588,
14,0,14,0,1,0,1,0,,,,,,,,,,,,,,,,,,,,,,,,,,,,,,,,,,,,,,,,,,,,,,,,,,,654.9245634999825,654.9245634999825,0.007982300012372434,0.11417680000886321,6.0,1.507187100010924,,,,,,,,,,,,,,,668,Moral,2024-02-15_17h39.07.456,MoralCondition_v2,2022.2.5,29.941796141968588,
14,0,14,0,2,0,2,0,,,,,,,,,,,,,,,,,,,,,,,,,,,,,,,,,,,,,,,,,,,,,,,,,,,656.4578308999771,656.4578308999771,0.0065691000781953335,0.09920450008939952,1.0,1.393500900012441,,,,,,,,,,,,,,,668,Moral,2024-02-15_17h39.07.456,MoralCondition_v2,2022.2.5,29.941796141968588,
14,0,14,0,3,0,3,0,,,,,,,,,,,,,,,,,,,,,,,,,,,,,,,,,,,,,,,,,,,,,,,,,,,657.9080454999348,657.9080454999348,0.00817580008879304,0.1141227000625804,1.0,0.5737260999158025,,,,,,,,,,,,,,,668,Moral,2024-02-15_17h39.07.456,MoralCondition_v2,2022.2.5,29.941796141968588,
14,0,14,0,4,0,4,0,,,,,,,,,,,,,,,,,,,,,,,,,,,,,,,,,,,,,,,,,,,,,,,,,,,658.5246533999452,658.5246533999452,0.007858199998736382,0.11431029997766018,6.0,1.2074387999018654,,,,,,,,,,,,,,,668,Moral,2024-02-15_17h39.07.456,MoralCondition_v2,2022.2.5,29.941796141968588,
14,0,14,0,5,0,5,0,,,,,,,,,,,,,,,,,,,,,,,,,,,,,,,,,,,,,,,,,,,,,,,,,,,659.7575926999561,659.7575926999561,0.00650590006262064,0.09908309997990727,1.0,1.4270727999974042,,,,,,,,,,,,,,,668,Moral,2024-02-15_17h39.07.456,MoralCondition_v2,2022.2.5,29.941796141968588,
14,0,14,0,6,0,6,0,,,,,,,,,,,,,,,,,,,,,,,,,,,,,,,,,,,,,,,,,,,,,,,,,,,661.224392700009,661.224392700009,0.0067189999390393496,0.09829719993285835,1.0,0.6258779000490904,,,,,,,,,,,,,,,668,Moral,2024-02-15_17h39.07.456,MoralCondition_v2,2022.2.5,29.941796141968588,
14,0,14,0,,,,,,,,,,,,,,,,,,,,,,,,,,,,,,,,,,,,,,,,,,,,,,,,,,,,,,,,,,,,,661.8911884999834,661.8911884999834,0.0007082999218255281,0.09920950001105666,2.0,1.366243099910207,,,,,,,,,668,Moral,2024-02-15_17h39.07.456,MoralCondition_v2,2022.2.5,29.941796141968588,
15,0,15,0,0,0,0,0,,,,,,,,,,,,,,,,,,,,,663.2910287999548,0.00041019998025149107,0.09713499993085861,669.3076196999755,6.013863299973309,669.4741198000265,669.4741198000265,0.0720478999428451,0.1802891999250278,6.01373349991627,675.5744162999326,675.5744162999326,675.5744162999326,0.07235289993695915,0.18058099993504584,681.2742547999369,681.4742657999741,6.0138238000217825,6.113687600009143,687.4742789999582,12.013786699972115,687.6076116999611,687.6076116999611,0.014065800001844764,0.11377729999367148,up,3.8776457998901606,691.5241967999609,3.670004662126303e-05,0.09817190002650023,697.5581918000244,697.5581918000244,0.0251307999715209,0.13140680000651628,1.0,1.407242099987343,,,,,,,675.4742689999985,675.4742689999985,687.5743297999725,687.5743297999725,,,,,668,Moral,2024-02-15_17h39.07.456,MoralCondition_v2,2022.2.5,29.941796141968588,
15,0,15,0,1,0,1,0,,,,,,,,,,,,,,,,,,,,,,,,,,,,,,,,,,,,,,,,,,,,,,,,,,,698.9908953999402,698.9908953999402,0.0061802000273019075,0.09914740000385791,1.0,0.5271699000149965,,,,,,,,,,,,,,,668,Moral,2024-02-15_17h39.07.456,MoralCondition_v2,2022.2.5,29.941796141968588,
15,0,15,0,2,0,2,0,,,,,,,,,,,,,,,,,,,,,,,,,,,,,,,,,,,,,,,,,,,,,,,,,,,699.5572527999757,699.5572527999757,0.007212200085632503,0.09779849997721612,1.0,0.49173739994876087,,,,,,,,,,,,,,,668,Moral,2024-02-15_17h39.07.456,MoralCondition_v2,2022.2.5,29.941796141968588,
15,0,15,0,3,0,3,0,,,,,,,,,,,,,,,,,,,,,,,,,,,,,,,,,,,,,,,,,,,,,,,,,,,700.0908169000177,700.0908169000177,0.0073448000475764275,0.09799869998823851,7.0,1.6583578999852762,,,,,,,,,,,,,,,668,Moral,2024-02-15_17h39.07.456,MoralCondition_v2,2022.2.5,29.941796141968588,
15,0,15,0,4,0,4,0,,,,,,,,,,,,,,,,,,,,,,,,,,,,,,,,,,,,,,,,,,,,,,,,,,,701.790840899921,701.790840899921,0.006973300012759864,0.09899840003345162,1.0,1.2266384999966249,,,,,,,,,,,,,,,668,Moral,2024-02-15_17h39.07.456,MoralCondition_v2,2022.2.5,29.941796141968588,
15,0,15,0,5,0,5,0,,,,,,,,,,,,,,,,,,,,,,,,,,,,,,,,,,,,,,,,,,,,,,,,,,,703.0575007000007,703.0575007000007,0.006999799981713295,0.09793550008907914,1.0,0.5921581001020968,,,,,,,,,,,,,,,668,Moral,2024-02-15_17h39.07.456,MoralCondition_v2,2022.2.5,29.941796141968588,
15,0,15,0,6,0,6,0,,,,,,,,,,,,,,,,,,,,,,,,,,,,,,,,,,,,,,,,,,,,,,,,,,,703.6908240999328,703.6908240999328,0.006624600035138428,0.09851160005200654,1.0,0.8261822999920696,,,,,,,,,,,,,,,668,Moral,2024-02-15_17h39.07.456,MoralCondition_v2,2022.2.5,29.941796141968588,
15,0,15,0,,,,,,,,,,,,,,,,,,,,,,,,,,,,,,,,,,,,,,,,,,,,,,,,,,,,,,,,,,,,,704.5573516000295,704.5573516000295,0.0022012999979779124,0.09766780002973974,7.0,1.89651520003099,,,,,,,,,668,Moral,2024-02-15_17h39.07.456,MoralCondition_v2,2022.2.5,29.941796141968588,
16,0,16,0,0,0,0,0,,,,,,,,,,,,,,,,,,,,,706.4910405999981,0.00014540005940943956,0.09932540007866919,712.4907446999568,5.999225500039756,712.6573663000017,712.6573663000017,0.053767100092954934,0.16584250004962087,5.999116500024684,718.7572213999229,718.7572213999229,718.7572213999229,0.05232880008406937,0.1657098000869155,724.457364599919,724.6575031999964,5.999337000073865,6.099154300056398,730.6574981999584,11.99932940013241,730.7907233999576,730.7907233999576,1.5100114978849888e-05,0.0991211001528427,up,0.5508018999826163,731.4073807999957,4.800001624971628e-05,0.0976852000458166,737.423838299932,737.423838299932,0.02493369998410344,0.11432020005304366,1.0,1.2901560999453068,,,,,,,718.6407427999657,718.6407427999657,730.7573299999349,730.7573299999349,,6.099236500100233,6.09896650002338,12.099154700059444,668,Moral,2024-02-15_17h39.07.456,MoralCondition_v2,2022.2.5,29.941796141968588,
16,0,16,0,1,0,1,0,,,,,,,,,,,,,,,,,,,,,,,,,,,,,,,,,,,,,,,,,,,,,,,,,,,738.7739247999853,738.7739247999853,0.007201600004918873,0.11472360009793192,1.0,0.5086906999349594,,,,,,,,,,,,,,,668,Moral,2024-02-15_17h39.07.456,MoralCondition_v2,2022.2.5,29.941796141968588,
16,0,16,0,2,0,2,0,,,,,,,,,,,,,,,,,,,,,,,,,,,,,,,,,,,,,,,,,,,,,,,,,,,739.3074496999616,739.3074496999616,0.007462000008672476,0.09852680005133152,1.0,0.4921659999527037,,,,,,,,,,,,,,,668,Moral,2024-02-15_17h39.07.456,MoralCondition_v2,2022.2.5,29.941796141968588,
16,0,16,0,3,0,3,0,,,,,,,,,,,,,,,,,,,,,,,,,,,,,,,,,,,,,,,,,,,,,,,,,,,739.8405494999606,739.8405494999606,0.0062692000064998865,0.09904929995536804,1.0,0.4938362999819219,,,,,,,,,,,,,,,668,Moral,2024-02-15_17h39.07.456,MoralCondition_v2,2022.2.5,29.941796141968588,
16,0,16,0,4,0,4,0,,,,,,,,,,,,,,,,,,,,,,,,,,,,,,,,,,,,,,,,,,,,,,,,,,,740.3740185999777,740.3740185999777,0.0073216999880969524,0.09929629997350276,1.0,0.79302420001477,,,,,,,,,,,,,,,668,Moral,2024-02-15_17h39.07.456,MoralCondition_v2,2022.2.5,29.941796141968588,
16,0,16,0,5,0,5,0,,,,,,,,,,,,,,,,,,,,,,,,,,,,,,,,,,,,,,,,,,,,,,,,,,,741.2073511999333,741.2073511999333,0.0065385999623686075,0.09893650002777576,7.0,3.3949540000176057,,,,,,,,,,,,,,,668,Moral,2024-02-15_17h39.07.456,MoralCondition_v2,2022.2.5,29.941796141968588,
16,0,16,0,6,0,6,0,,,,,,,,,,,,,,,,,,,,,,,,,,,,,,,,,,,,,,,,,,,,,,,,,,,744.6407837999286,744.6407837999286,0.0068703999277204275,0.09826919995248318,1.0,2.159344199928455,,,,,,,,,,,,,,,668,Moral,2024-02-15_17h39.07.456,MoralCondition_v2,2022.2.5,29.941796141968588,
16,0,16,0,,,,,,,,,,,,,,,,,,,,,,,,,,,,,,,,,,,,,,,,,,,,,,,,,,,,,,,,,,,,,746.8406129999785,746.8406129999785,0.0006903000175952911,0.09909949998836964,7.0,2.0665320000844076,,,,,,,,,668,Moral,2024-02-15_17h39.07.456,MoralCondition_v2,2022.2.5,29.941796141968588,
17,0,17,0,0,0,0,0,,,,,,,,,,,,,,,,,,,,,748.9408751999727,0.00023259990848600864,0.09832559991627932,754.940549199935,6.031384899979457,755.1407697999384,755.1407697999384,0.08999809995293617,0.19823809992522,6.03153919999022,761.2404440999962,761.2404440999962,761.2404440999962,0.08816849999129772,0.19803890003822744,766.9405581000028,767.1404962999513,6.031329300021753,6.13126850000117,773.1407379999291,12.031581799965352,773.2739583000075,773.2739583000075,0.03153609996661544,0.13123950001318008,up,0.9315954999765381,774.2404637000291,4.650000482797623e-05,0.09792460000608116,780.2738199000014,780.2738199000014,0.027400500024668872,0.13123519998043776,1.0,2.8714539000065997,,,,,,,761.1405076999217,761.1405076999217,773.2405251999153,773.2405251999153,,,,,668,Moral,2024-02-15_17h39.07.456,MoralCondition_v2,2022.2.5,29.941796141968588,
17,0,17,0,1,0,1,0,,,,,,,,,,,,,,,,,,,,,,,,,,,,,,,,,,,,,,,,,,,,,,,,,,,783.1737513999688,783.1737513999688,0.007630800013430417,0.09761890000663698,1.0,0.4911440999712795,,,,,,,,,,,,,,,668,Moral,2024-02-15_17h39.07.456,MoralCondition_v2,2022.2.5,29.941796141968588,
17,0,17,0,2,0,2,0,,,,,,,,,,,,,,,,,,,,,,,,,,,,,,,,,,,,,,,,,,,,,,,,,,,783.7071773000062,783.7071773000062,0.007514999946579337,0.09772960003465414,1.0,0.5579143000068143,,,,,,,,,,,,,,,668,Moral,2024-02-15_17h39.07.456,MoralCondition_v2,2022.2.5,29.941796141968588,
17,0,17,0,3,0,3,0,,,,,,,,,,,,,,,,,,,,,,,,,,,,,,,,,,,,,,,,,,,,,,,,,,,784.3070809999481,784.3070809999481,0.007442599977366626,0.09767920000012964,7.0,1.6580585000338033,,,,,,,,,,,,,,,668,Moral,2024-02-15_17h39.07.456,MoralCondition_v2,2022.2.5,29.941796141968588,
17,0,17,0,4,0,4,0,,,,,,,,,,,,,,,,,,,,,,,,,,,,,,,,,,,,,,,,,,,,,,,,,,,786.0070175000001,786.0070175000001,0.0072228999342769384,0.09784269996453077,1.0,1.22513529995922,,,,,,,,,,,,,,,668,Moral,2024-02-15_17h39.07.456,MoralCondition_v2,2022.2.5,29.941796141968588,
17,0,17,0,5,0,5,0,,,,,,,,,,,,,,,,,,,,,,,,,,,,,,,,,,,,,,,,,,,,,,,,,,,787.2739504999481,787.2739504999481,0.007426599971950054,0.09781079995445907,1.0,0.49143329996149987,,,,,,,,,,,,,,,668,Moral,2024-02-15_17h39.07.456,MoralCondition_v2,2022.2.5,29.941796141968588,
17,0,17,0,6,0,6,0,,,,,,,,,,,,,,,,,,,,,,,,,,,,,,,,,,,,,,,,,,,,,,,,,,,787.8070670999587,787.8070670999587,0.006784899975173175,0.09853790001943707,1.0,0.9260189000051469,,,,,,,,,,,,,,,668,Moral,2024-02-15_17h39.07.456,MoralCondition_v2,2022.2.5,29.941796141968588,
17,0,17,0,,,,,,,,,,,,,,,,,,,,,,,,,,,,,,,,,,,,,,,,,,,,,,,,,,,,,,,,,,,,,788.773814599961,788.773814599961,0.0013334000250324607,0.09768490004353225,7.0,0.7642467999830842,,,,,,,,,668,Moral,2024-02-15_17h39.07.456,MoralCondition_v2,2022.2.5,29.941796141968588,
18,0,18,0,0,0,0,0,,,,,,,,,,,,,,,,,,,,,789.5738465000177,0.00014080002438277006,0.09908770001493394,795.5737216999987,5.9992727999342605,795.7403533000033,795.7403533000033,0.06337410002015531,0.16590639995411038,5.9991947000380605,801.8403739000205,801.8403739000205,801.8403739000205,0.06494880001991987,0.16588129999581724,807.5403048999142,807.7403177999659,5.999204899999313,6.099054099991918,813.7404393999605,11.9993056000676,813.8736160999397,813.8736160999397,-0.0002970999339595437,0.09883380006067455,down,1.3714490999700502,815.3069461999694,4.7600013203918934e-05,0.09776350005995482,821.3073460999876,821.3073460999876,0.009472400066442788,0.09801760001573712,1.0,1.989446199964732,,,,,,,801.7403215999948,801.7403215999948,813.8402453999734,813.8402453999734,821.3073460999876,6.099215399939567,6.099201499950141,12.099177800002508,668,Moral,2024-02-15_17h39.07.456,MoralCondition_v2,2022.2.5,29.941796141968588,
18,0,18,0,1,0,1,0,,,,,,,,,,,,,,,,,,,,,,,,,,,,,,,,,,,,,,,,,,,,,,,,,,,823.3403439000249,823.3403439000249,0.008751000044867396,0.0973199000582099,7.0,1.4563104000408202,,,,,,,,,,,,,,,668,Moral,2024-02-15_17h39.07.456,MoralCondition_v2,2022.2.5,29.941796141968588,
18,0,18,0,2,0,2,0,,,,,,,,,,,,,,,,,,,,,,,,,,,,,,,,,,,,,,,,,,,,,,,,,,,824.856969299959,824.856969299959,0.007493600016459823,0.11411490000318736,7.0,1.207745400024578,,,,,,,,,,,,,,,668,Moral,2024-02-15_17h39.07.456,MoralCondition_v2,2022.2.5,29.941796141968588,
18,0,18,0,3,0,3,0,,,,,,,,,,,,,,,,,,,,,,,,,,,,,,,,,,,,,,,,,,,,,,,,,,,826.0902233999223,826.0902233999223,0.007760699954815209,0.09825749997980893,1.0,1.4249931999947876,,,,,,,,,,,,,,,668,Moral,2024-02-15_17h39.07.456,MoralCondition_v2,2022.2.5,29.941796141968588,
18,0,18,0,4,0,4,0,,,,,,,,,,,,,,,,,,,,,,,,,,,,,,,,,,,,,,,,,,,,,,,,,,,827.5569718999323,827.5569718999323,0.008484999998472631,0.0981362999882549,1.0,0.7570925999898463,,,,,,,,,,,,,,,668,Moral,2024-02-15_17h39.07.456,MoralCondition_v2,2022.2.5,29.941796141968588,
18,0,18,0,5,0,5,0,,,,,,,,,,,,,,,,,,,,,,,,,,,,,,,,,,,,,,,,,,,,,,,,,,,828.3568977999967,828.3568977999967,0.006571999983862042,0.09907819994259626,1.0,0.8603253000183031,,,,,,,,,,,,,,,668,Moral,2024-02-15_17h39.07.456,MoralCondition_v2,2022.2.5,29.941796141968588,
18,0,18,0,6,0,6,0,,,,,,,,,,,,,,,,,,,,,,,,,,,,,,,,,,,,,,,,,,,,,,,,,,,829.2569531999761,829.2569531999761,0.006906300084665418,0.09932310006115586,1.0,0.7600144000025466,,,,,,,,,,,,,,,668,Moral,2024-02-15_17h39.07.456,MoralCondition_v2,2022.2.5,29.941796141968588,
18,0,18,0,,,,,,,,,,,,,,,,,,,,,,,,,,,,,,,,,,,,,,,,,,,,,,,,,,,,,,,,,,,,,830.0570782999275,830.0570782999275,0.001267799991182983,0.09795730002224445,1.0,2.364406200009398,,,,,,,,,668,Moral,2024-02-15_17h39.07.456,MoralCondition_v2,2022.2.5,29.941796141968588,
19,0,19,0,0,0,0,0,,,,,,,,,,,,,,,,,,,,,832.456923599937,0.0002552999649196863,0.09823660005349666,838.4735390000278,6.01474989997223,838.6399963999866,838.6399963999866,0.06958550005219877,0.1814328000182286,6.01477370003704,844.7404112999793,844.7404112999793,844.7404112999793,0.07002420001663268,0.18151360005140305,850.4401413999731,850.6401199999964,6.01474540005438,6.114702700055204,856.6401269999333,12.014754800125957,856.7734270999208,856.7734270999208,0.014891500119119883,0.11480010009836406,up,1.407228700001724,858.240096100024,1.819990575313568e-05,0.09942859993316233,864.2567470999202,864.2567470999202,0.01065259997267276,0.11595959996338934,1.0,1.0731287999078631,,,,,,,844.6401321999729,844.6401321999729,856.7401105000172,856.7401105000172,864.2567470999202,,,,668,Moral,2024-02-15_17h39.07.456,MoralCondition_v2,2022.2.5,29.941796141968588,
19,0,19,0,1,0,1,0,,,,,,,,,,,,,,,,,,,,,,,,,,,,,,,,,,,,,,,,,,,,,,,,,,,865.3733636999968,865.3733636999968,0.008139599929563701,0.11432970000896603,1.0,0.640519900014624,,,,,,,,,,,,,,,668,Moral,2024-02-15_17h39.07.456,MoralCondition_v2,2022.2.5,29.941796141968588,
19,0,19,0,2,0,2,0,,,,,,,,,,,,,,,,,,,,,,,,,,,,,,,,,,,,,,,,,,,,,,,,,,,866.0401327,866.0401327,0.0066732000559568405,0.09951130009721965,1.0,1.6604684999911115,,,,,,,,,,,,,,,668,Moral,2024-02-15_17h39.07.456,MoralCondition_v2,2022.2.5,29.941796141968588,
19,0,19,0,3,0,3,0,,,,,,,,,,,,,,,,,,,,,,,,,,,,,,,,,,,,,,,,,,,,,,,,,,,867.7401162999449,867.7401162999449,0.007254500058479607,0.09783700003754348,1.0,0.925272399908863,,,,,,,,,,,,,,,668,Moral,2024-02-15_17h39.07.456,MoralCondition_v2,2022.2.5,29.941796141968588,
19,0,19,0,4,0,4,0,,,,,,,,,,,,,,,,,,,,,,,,,,,,,,,,,,,,,,,,,,,,,,,,,,,868.7067685999209,868.7067685999209,0.00643030006904155,0.09901590005028993,1.0,0.6605487000197172,,,,,,,,,,,,,,,668,Moral,2024-02-15_17h39.07.456,MoralCondition_v2,2022.2.5,29.941796141968588,
19,0,19,0,5,0,5,0,,,,,,,,,,,,,,,,,,,,,,,,,,,,,,,,,,,,,,,,,,,,,,,,,,,869.4067583000287,869.4067583000287,0.006494999979622662,0.09826240001711994,7.0,1.4595885999733582,,,,,,,,,,,,,,,668,Moral,2024-02-15_17h39.07.456,MoralCondition_v2,2022.2.5,29.941796141968588,
19,0,19,0,6,0,6,0,,,,,,,,,,,,,,,,,,,,,,,,,,,,,,,,,,,,,,,,,,,,,,,,,,,870.9235771999229,870.9235771999229,0.008710999973118305,0.11447490006685257,1.0,0.9733149000676349,,,,,,,,,,,,,,,668,Moral,2024-02-15_17h39.07.456,MoralCondition_v2,2022.2.5,29.941796141968588,
19,0,19,0,,,,,,,,,,,,,,,,,,,,,,,,,,,,,,,,,,,,,,,,,,,,,,,,,,,,,,,,,,,,,871.9234682000242,871.9234682000242,0.0015647000400349498,0.09772650001104921,7.0,2.897242599981837,,,,,,,,,668,Moral,2024-02-15_17h39.07.456,MoralCondition_v2,2022.2.5,29.941796141968588,
