loop.thisRepN,loop.thisTrialN,loop.thisN,loop.thisIndex,evaluate_all_emotions.thisRepN,evaluate_all_emotions.thisTrialN,evaluate_all_emotions.thisN,evaluate_all_emotions.thisIndex,sync_beep_1.started,p_port.started,p_port.stopped,sync_beep_1.stopped,sync_beep_2.started,sync_beep_2.stopped,sync_beep_3.started,sync_beep_3.stopped,sync_beep_4.started,sync_beep_4.stopped,baseline.started,p_port_2.started,p_port_2.stopped,baseline.stopped,p_port_3.started,Game_Start_Text.started,p_port_4.started,p_port_4.stopped,key_resp.started,key_resp.keys,key_resp.rt,fixation_cross.started,p_port_5.started,p_port_5.stopped,fixation_cross.stopped,p_port_6.started,p_port_6.stopped,player_image_intro.started,player_name_intro.started,p_port_7.started,p_port_7.stopped,p_port_8.started,player_image_offer.started,player_name_offer.started,proposed_split.started,p_port_9.started,p_port_9.stopped,proposed_split.stopped,accept_reject.started,p_port_15.started,p_port_15.stopped,accept_reject.stopped,p_port_10.started,player_image_offer.stopped,player_name_offer.stopped,p_port_10.stopped,arrow_instructions.started,offer_choice.started,p_port_11.started,p_port_11.stopped,offer_choice.keys,offer_choice.rt,Instructions_Affinity_Score.started,p_port_12.started,p_port_12.stopped,Emotion_Image.started,AffinityScore.started,p_port_13.started,p_port_13.stopped,AffinityScore.response,AffinityScore.rt,Instruction.started,Moral_Disgust_Score.started,p_port_14.started,p_port_14.stopped,Moral_Disgust_Score.response,Moral_Disgust_Score.rt,player_image_intro.stopped,player_name_intro.stopped,Instructions_Affinity_Score.stopped,p_port_8.stopped,participant,session,date,expName,psychopyVersion,frameRate,
,,,,,,,,21.176402419991792,0.0007939999923110008,0.11941789998672903,21.50703199999407,21.756775390030818,22.05674139992334,22.356826989818366,22.673394500045106,22.956759289978073,23.273414899827912,23.273414899827912,0.01932159997522831,0.11934270011261106,43.27364389994182,20.019564300077036,43.40681069996208,0.019459599861875176,0.13582149986177683,43.87346939998679,space,3.6561503000557423,,,,,,,,,,,,,,,,,,,,,,,,,,,,,,,,,,,,,,,,,,,,,,,,,,,669,Moral,2024-02-20_12h32.56.620,MoralCondition_v2,2022.2.5,30.036091362465715,
0,0,0,0,0,0,0,0,,,,,,,,,,,,,,,,,,,,,,47.57341880002059,0.0007380000315606594,0.0993939999025315,53.57334390003234,5.999367999844253,6.099201099947095,53.79012639983557,53.79012639983557,0.08296429994516075,0.21604879992082715,6.016032999847084,59.87341060000472,59.87341060000472,59.87341060000472,0.0772233996540308,0.1995254997164011,65.5734298999887,65.74009289988317,5.999391299672425,6.09944779984653,71.74003879982047,11.99933939985931,71.8734066998586,71.8734066998586,12.09945369977504,71.8734066998586,71.8734066998586,0.0003887997008860111,0.09929609973914921,up,1.3847523001022637,73.30682789999992,6.600003689527512e-05,0.09731370001100004,79.34032059996389,79.34032059996389,0.03084300016053021,0.1305286001879722,3.0,2.9679456998128444,,,,,,,,,,,669,Moral,2024-02-20_12h32.56.620,MoralCondition_v2,2022.2.5,30.036091362465715,
0,0,0,0,1,0,1,0,,,,,,,,,,,,,,,,,,,,,,,,,,,,,,,,,,,,,,,,,,,,,,,,,,,,,,,,82.356935699936,82.356935699936,0.015418399823829532,0.11571929999627173,2.0,2.0680283999536186,,,,,,,,,,,669,Moral,2024-02-20_12h32.56.620,MoralCondition_v2,2022.2.5,30.036091362465715,
0,0,0,0,2,0,2,0,,,,,,,,,,,,,,,,,,,,,,,,,,,,,,,,,,,,,,,,,,,,,,,,,,,,,,,,84.47342769987881,84.47342769987881,0.012428200105205178,0.11635370017029345,2.0,2.0044840001501143,,,,,,,,,,,669,Moral,2024-02-20_12h32.56.620,MoralCondition_v2,2022.2.5,30.036091362465715,
0,0,0,0,3,0,3,0,,,,,,,,,,,,,,,,,,,,,,,,,,,,,,,,,,,,,,,,,,,,,,,,,,,,,,,,86.50661699986085,86.50661699986085,0.012657599989324808,0.0990325000602752,1.0,2.1875652000308037,,,,,,,,,,,669,Moral,2024-02-20_12h32.56.620,MoralCondition_v2,2022.2.5,30.036091362465715,
0,0,0,0,4,0,4,0,,,,,,,,,,,,,,,,,,,,,,,,,,,,,,,,,,,,,,,,,,,,,,,,,,,,,,,,88.75661829998717,88.75661829998717,0.015192300081253052,0.11443460010923445,1.0,1.2003248000983149,,,,,,,,,,,669,Moral,2024-02-20_12h32.56.620,MoralCondition_v2,2022.2.5,30.036091362465715,
0,0,0,0,5,0,5,0,,,,,,,,,,,,,,,,,,,,,,,,,,,,,,,,,,,,,,,,,,,,,,,,,,,,,,,,90.00679420004599,90.00679420004599,0.015219199936836958,0.11441399995237589,1.0,1.7001977001782507,,,,,,,,,,,669,Moral,2024-02-20_12h32.56.620,MoralCondition_v2,2022.2.5,30.036091362465715,
0,0,0,0,6,0,6,0,,,,,,,,,,,,,,,,,,,,,,,,,,,,,,,,,,,,,,,,,,,,,,,,,,,,,,,,91.7568230999168,91.7568230999168,0.013841000152751803,0.1138401001226157,6.0,2.034326999913901,,,,,,,,,,,669,Moral,2024-02-20_12h32.56.620,MoralCondition_v2,2022.2.5,30.036091362465715,
0,0,0,0,,,,,,,,,,,,,,,,,,,,,,,,,,,,,,,,,,,,,,,,,,,,,,,,,,,,,,,,,,,,,,,,,,93.82329329987988,93.82329329987988,0.0006994002033025026,0.09920940012671053,7.0,3.6666057999245822,,,,,669,Moral,2024-02-20_12h32.56.620,MoralCondition_v2,2022.2.5,30.036091362465715,
1,0,1,0,0,0,0,0,,,,,,,,,,,,,,,,,,,,,,97.52360900002532,0.00036079995334148407,0.09676919993944466,103.53999499999918,6.013443300034851,,103.70647650002502,103.70647650002502,0.07715989975258708,0.18008889979682863,6.013390699867159,109.80649139988236,109.80649139988236,109.80649139988236,0.06650659977458417,0.18008799967356026,115.50664289994165,115.70665439986624,6.013428999809548,6.113383599789813,121.70665309997275,12.01344529981725,121.80664570000954,121.80664570000954,,121.83991159987636,121.83991159987636,0.01359139964915812,0.11349959974177182,up,1.2495782000478357,123.13998089986853,4.4999876990914345e-05,0.09794659982435405,129.13977999985218,129.13977999985218,0.010412599891424179,0.09803889994509518,2.0,1.9551739001180977,,,,,,,109.7066909999121,109.7066909999121,129.13977999985218,,669,Moral,2024-02-20_12h32.56.620,MoralCondition_v2,2022.2.5,30.036091362465715,
1,0,1,0,1,0,1,0,,,,,,,,,,,,,,,,,,,,,,,,,,,,,,,,,,,,,,,,,,,,,,,,,,,,,,,,131.1567263000179,131.1567263000179,0.008150199893862009,0.11450799996964633,2.0,1.7738324999809265,,,,,,,,,,,669,Moral,2024-02-20_12h32.56.620,MoralCondition_v2,2022.2.5,30.036091362465715,
1,0,1,0,2,0,2,0,,,,,,,,,,,,,,,,,,,,,,,,,,,,,,,,,,,,,,,,,,,,,,,,,,,,,,,,132.95681219990365,132.95681219990365,0.007828900124877691,0.09759770007804036,1.0,1.3910016000736505,,,,,,,,,,,669,Moral,2024-02-20_12h32.56.620,MoralCondition_v2,2022.2.5,30.036091362465715,
1,0,1,0,3,0,3,0,,,,,,,,,,,,,,,,,,,,,,,,,,,,,,,,,,,,,,,,,,,,,,,,,,,,,,,,134.3898499000352,134.3898499000352,0.008194000227376819,0.09918760019354522,2.0,1.5263200998306274,,,,,,,,,,,669,Moral,2024-02-20_12h32.56.620,MoralCondition_v2,2022.2.5,30.036091362465715,
1,0,1,0,4,0,4,0,,,,,,,,,,,,,,,,,,,,,,,,,,,,,,,,,,,,,,,,,,,,,,,,,,,,,,,,135.95658729993738,135.95658729993738,0.0061685999389737844,0.09849820006638765,6.0,1.993752600159496,,,,,,,,,,,669,Moral,2024-02-20_12h32.56.620,MoralCondition_v2,2022.2.5,30.036091362465715,
1,0,1,0,5,0,5,0,,,,,,,,,,,,,,,,,,,,,,,,,,,,,,,,,,,,,,,,,,,,,,,,,,,,,,,,137.98986219987273,137.98986219987273,0.008628999814391136,0.09917379985563457,2.0,1.5249745999462903,,,,,,,,,,,669,Moral,2024-02-20_12h32.56.620,MoralCondition_v2,2022.2.5,30.036091362465715,
1,0,1,0,6,0,6,0,,,,,,,,,,,,,,,,,,,,,,,,,,,,,,,,,,,,,,,,,,,,,,,,,,,,,,,,139.57331050001085,139.57331050001085,0.007806600071489811,0.1139208001550287,3.0,2.073805399937555,,,,,,,,,,,669,Moral,2024-02-20_12h32.56.620,MoralCondition_v2,2022.2.5,30.036091362465715,
1,0,1,0,,,,,,,,,,,,,,,,,,,,,,,,,,,,,,,,,,,,,,,,,,,,,,,,,,,,,,,,,,,,,,,,,,141.67338169994764,141.67338169994764,0.0011887000873684883,0.09802920022048056,7.0,2.1980757999699563,,,,,669,Moral,2024-02-20_12h32.56.620,MoralCondition_v2,2022.2.5,30.036091362465715,
2,0,2,0,0,0,0,0,,,,,,,,,,,,,,,,,,,,,,143.9067875999026,0.0003597000613808632,0.09751360001973808,149.92321070004255,6.0141750001348555,,150.08982809982263,150.08982809982263,0.06864189985208213,0.1808420999441296,6.01411970006302,156.17319639981724,156.17319639981724,156.17319639981724,0.06959309987723827,0.16436739987693727,161.87329789996147,162.1067047000397,6.03099639993161,6.130935499910265,168.10640509985387,12.030655299779028,168.17323990003206,168.17323990003206,,168.24005979998037,168.24005979998037,0.031038499670103192,0.13092319970019162,down,0.5457486000377685,168.83969329996035,4.730001091957092e-05,0.09812569990754128,174.8731656000018,174.8731656000018,0.0260109999217093,0.1313968999311328,5.0,2.172984699951485,,,,,,,156.08988599991426,156.08988599991426,,,669,Moral,2024-02-20_12h32.56.620,MoralCondition_v2,2022.2.5,30.036091362465715,
2,0,2,0,1,0,1,0,,,,,,,,,,,,,,,,,,,,,,,,,,,,,,,,,,,,,,,,,,,,,,,,,,,,,,,,177.07313419994898,177.07313419994898,0.006878799991682172,0.09949550009332597,1.0,1.559924499830231,,,,,,,,,,,669,Moral,2024-02-20_12h32.56.620,MoralCondition_v2,2022.2.5,30.036091362465715,
2,0,2,0,2,0,2,0,,,,,,,,,,,,,,,,,,,,,,,,,,,,,,,,,,,,,,,,,,,,,,,,,,,,,,,,178.67341109993868,178.67341109993868,0.00776329985819757,0.09826879994943738,6.0,2.058459300082177,,,,,,,,,,,669,Moral,2024-02-20_12h32.56.620,MoralCondition_v2,2022.2.5,30.036091362465715,
2,0,2,0,3,0,3,0,,,,,,,,,,,,,,,,,,,,,,,,,,,,,,,,,,,,,,,,,,,,,,,,,,,,,,,,180.79014779999852,180.79014779999852,0.007824599975720048,0.11409950000233948,5.0,1.307180699892342,,,,,,,,,,,669,Moral,2024-02-20_12h32.56.620,MoralCondition_v2,2022.2.5,30.036091362465715,
2,0,2,0,4,0,4,0,,,,,,,,,,,,,,,,,,,,,,,,,,,,,,,,,,,,,,,,,,,,,,,,,,,,,,,,182.14019589987583,182.14019589987583,0.010105299996212125,0.11424460005946457,5.0,2.1052383000496775,,,,,,,,,,,669,Moral,2024-02-20_12h32.56.620,MoralCondition_v2,2022.2.5,30.036091362465715,
2,0,2,0,5,0,5,0,,,,,,,,,,,,,,,,,,,,,,,,,,,,,,,,,,,,,,,,,,,,,,,,,,,,,,,,184.27325269998983,184.27325269998983,0.0070349001325666904,0.09800270013511181,5.0,1.2254214999265969,,,,,,,,,,,669,Moral,2024-02-20_12h32.56.620,MoralCondition_v2,2022.2.5,30.036091362465715,
2,0,2,0,6,0,6,0,,,,,,,,,,,,,,,,,,,,,,,,,,,,,,,,,,,,,,,,,,,,,,,,,,,,,,,,185.53956019994803,185.53956019994803,0.007691400125622749,0.09782709996215999,7.0,1.358126699924469,,,,,,,,,,,669,Moral,2024-02-20_12h32.56.620,MoralCondition_v2,2022.2.5,30.036091362465715,
2,0,2,0,,,,,,,,,,,,,,,,,,,,,,,,,,,,,,,,,,,,,,,,,,,,,,,,,,,,,,,,,,,,,,,,,,186.93981649982743,186.93981649982743,0.0007134999614208937,0.09906829986721277,2.0,2.43288809992373,,,,,669,Moral,2024-02-20_12h32.56.620,MoralCondition_v2,2022.2.5,30.036091362465715,
3,0,3,0,0,0,0,0,,,,,,,,,,,,,,,,,,,,,,189.40675850003026,0.00021210010163486004,0.09922180022113025,195.42315389984287,6.015783300157636,,195.62296529999003,195.62296529999003,0.10935760010033846,0.21565990010276437,6.0159229000564665,201.6897050999105,201.6897050999105,201.6897050999105,0.07740750000812113,0.1826953999698162,207.3897983999923,207.58980019995943,6.015855599893257,6.115699999965727,213.58972659986466,12.015762399882078,213.68972379993647,213.68972379993647,,213.70624400000088,213.70624400000088,0.01593719981610775,0.09901799983344972,up,1.2471499999519438,214.98975940002128,5.079992115497589e-05,0.09767439984716475,221.02334319986403,221.02334319986403,0.025964299915358424,0.13076129998080432,2.0,1.9058529001194984,,,,,,,,,,,669,Moral,2024-02-20_12h32.56.620,MoralCondition_v2,2022.2.5,30.036091362465715,
3,0,3,0,1,0,1,0,,,,,,,,,,,,,,,,,,,,,,,,,,,,,,,,,,,,,,,,,,,,,,,,,,,,,,,,222.9564767999109,222.9564767999109,0.007093300111591816,0.09798160009086132,1.0,1.2254512999206781,,,,,,,,,,,669,Moral,2024-02-20_12h32.56.620,MoralCondition_v2,2022.2.5,30.036091362465715,
3,0,3,0,2,0,2,0,,,,,,,,,,,,,,,,,,,,,,,,,,,,,,,,,,,,,,,,,,,,,,,,,,,,,,,,224.22280730004422,224.22280730004422,0.007699500070884824,0.09761149995028973,6.0,1.7574928998947144,,,,,,,,,,,669,Moral,2024-02-20_12h32.56.620,MoralCondition_v2,2022.2.5,30.036091362465715,
3,0,3,0,3,0,3,0,,,,,,,,,,,,,,,,,,,,,,,,,,,,,,,,,,,,,,,,,,,,,,,,,,,,,,,,226.02323369984515,226.02323369984515,0.007856499869376421,0.09761910000815988,2.0,1.4910093999933451,,,,,,,,,,,669,Moral,2024-02-20_12h32.56.620,MoralCondition_v2,2022.2.5,30.036091362465715,
3,0,3,0,4,0,4,0,,,,,,,,,,,,,,,,,,,,,,,,,,,,,,,,,,,,,,,,,,,,,,,,,,,,,,,,227.55687249987386,227.55687249987386,0.009204499889165163,0.09780019987374544,2.0,1.4227432999759912,,,,,,,,,,,669,Moral,2024-02-20_12h32.56.620,MoralCondition_v2,2022.2.5,30.036091362465715,
3,0,3,0,5,0,5,0,,,,,,,,,,,,,,,,,,,,,,,,,,,,,,,,,,,,,,,,,,,,,,,,,,,,,,,,229.02305239997804,229.02305239997804,0.007224200060591102,0.09798020008020103,2.0,0.8919979999773204,,,,,,,,,,,669,Moral,2024-02-20_12h32.56.620,MoralCondition_v2,2022.2.5,30.036091362465715,
3,0,3,0,6,0,6,0,,,,,,,,,,,,,,,,,,,,,,,,,,,,,,,,,,,,,,,,,,,,,,,,,,,,,,,,229.95636429986916,229.95636429986916,0.00746170012280345,0.09782429994083941,2.0,0.8916290001943707,,,,,,,,,,,669,Moral,2024-02-20_12h32.56.620,MoralCondition_v2,2022.2.5,30.036091362465715,
3,0,3,0,,,,,,,,,,,,,,,,,,,,,,,,,,,,,,,,,,,,,,,,,,,,,,,,,,,,,,,,,,,,,,,,,,230.88990039983764,230.88990039983764,0.0007424000650644302,0.09927859995514154,7.0,3.0003605999518186,,,,,669,Moral,2024-02-20_12h32.56.620,MoralCondition_v2,2022.2.5,30.036091362465715,
4,0,4,0,0,0,0,0,,,,,,,,,,,,,,,,,,,,,,233.92328149988316,0.0001575998030602932,0.09906909987330437,239.9230319999624,5.99902469990775,6.098970499821007,240.08961429982446,240.08961429982446,0.05807949975132942,0.16567039978690445,5.999031499726698,246.1895767999813,246.1895767999813,246.1895767999813,0.056129499804228544,0.1658544996753335,251.8897209998686,252.12300059990957,6.032337499782443,6.132298999698833,258.123222499853,11.999207299668342,258.1896126999054,258.1896126999054,12.098958499729633,258.22279889998026,258.22279889998026,-0.0001771003007888794,0.09894689964130521,up,0.5305429000873119,258.78963309992105,4.959991201758385e-05,0.09801690001040697,264.8230701999273,264.8230701999273,0.027177299838513136,0.13143119984306395,2.0,2.171805700054392,,,,,,,246.08962269988842,246.08962269988842,,6.098994399886578,669,Moral,2024-02-20_12h32.56.620,MoralCondition_v2,2022.2.5,30.036091362465715,
4,0,4,0,1,0,1,0,,,,,,,,,,,,,,,,,,,,,,,,,,,,,,,,,,,,,,,,,,,,,,,,,,,,,,,,267.0230209999718,267.0230209999718,0.00797239993698895,0.09753539995290339,1.0,1.1238739001564682,,,,,,,,,,,669,Moral,2024-02-20_12h32.56.620,MoralCondition_v2,2022.2.5,30.036091362465715,
4,0,4,0,2,0,2,0,,,,,,,,,,,,,,,,,,,,,,,,,,,,,,,,,,,,,,,,,,,,,,,,,,,,,,,,268.1895901998505,268.1895901998505,0.007002400001510978,0.09940979979000986,1.0,0.6599669000133872,,,,,,,,,,,669,Moral,2024-02-20_12h32.56.620,MoralCondition_v2,2022.2.5,30.036091362465715,
4,0,4,0,3,0,3,0,,,,,,,,,,,,,,,,,,,,,,,,,,,,,,,,,,,,,,,,,,,,,,,,,,,,,,,,268.9065576000139,268.9065576000139,0.00873570004478097,0.11382069997489452,2.0,1.0063453000038862,,,,,,,,,,,669,Moral,2024-02-20_12h32.56.620,MoralCondition_v2,2022.2.5,30.036091362465715,
4,0,4,0,4,0,4,0,,,,,,,,,,,,,,,,,,,,,,,,,,,,,,,,,,,,,,,,,,,,,,,,,,,,,,,,269.9398372999858,269.9398372999858,0.00943330000154674,0.09753599995747209,6.0,1.7890128998551518,,,,,,,,,,,669,Moral,2024-02-20_12h32.56.620,MoralCondition_v2,2022.2.5,30.036091362465715,
4,0,4,0,5,0,5,0,,,,,,,,,,,,,,,,,,,,,,,,,,,,,,,,,,,,,,,,,,,,,,,,,,,,,,,,271.78971019992605,271.78971019992605,0.010161200072616339,0.1142835000064224,2.0,1.1386285999324173,,,,,,,,,,,669,Moral,2024-02-20_12h32.56.620,MoralCondition_v2,2022.2.5,30.036091362465715,
4,0,4,0,6,0,6,0,,,,,,,,,,,,,,,,,,,,,,,,,,,,,,,,,,,,,,,,,,,,,,,,,,,,,,,,272.95615969994105,272.95615969994105,0.007128099910914898,0.09910809993743896,2.0,1.2932159998454154,,,,,,,,,,,669,Moral,2024-02-20_12h32.56.620,MoralCondition_v2,2022.2.5,30.036091362465715,
4,0,4,0,,,,,,,,,,,,,,,,,,,,,,,,,,,,,,,,,,,,,,,,,,,,,,,,,,,,,,,,,,,,,,,,,,274.28957359981723,274.28957359981723,0.00110809993930161,0.09809280000627041,7.0,1.6982449998613447,,,,,669,Moral,2024-02-20_12h32.56.620,MoralCondition_v2,2022.2.5,30.036091362465715,
5,0,5,0,0,0,0,0,,,,,,,,,,,,,,,,,,,,,,276.0231822000351,0.00024509988725185394,0.0987479998730123,282.03955939994194,6.0152501000557095,,282.2228226000443,282.2228226000443,0.0883473998401314,0.19844709988683462,6.031963099958375,288.3229726999998,288.3229726999998,288.3229726999998,0.08464929973706603,0.19883809983730316,294.02284360001795,294.22292179986835,6.03177379979752,6.131780799711123,300.2228572999593,12.031785099767148,300.3228515998926,300.3228515998926,,300.356259400025,300.356259400025,0.03194729960523546,0.131700299680233,up,0.34118520002812147,300.7561870999634,4.20999713242054e-05,0.09785680007189512,306.7898861998692,306.7898861998692,0.025841900147497654,0.13125990005210042,2.0,2.1729524000547826,,,,,,,288.22291149990633,288.22291149990633,,,669,Moral,2024-02-20_12h32.56.620,MoralCondition_v2,2022.2.5,30.036091362465715,
5,0,5,0,1,0,1,0,,,,,,,,,,,,,,,,,,,,,,,,,,,,,,,,,,,,,,,,,,,,,,,,,,,,,,,,308.9895675999578,308.9895675999578,0.006570700090378523,0.09901889995671809,2.0,0.7937089998740703,,,,,,,,,,,669,Moral,2024-02-20_12h32.56.620,MoralCondition_v2,2022.2.5,30.036091362465715,
5,0,5,0,2,0,2,0,,,,,,,,,,,,,,,,,,,,,,,,,,,,,,,,,,,,,,,,,,,,,,,,,,,,,,,,309.8228203000035,309.8228203000035,0.007039299933239818,0.09909059992060065,1.0,0.95968719990924,,,,,,,,,,,669,Moral,2024-02-20_12h32.56.620,MoralCondition_v2,2022.2.5,30.036091362465715,
5,0,5,0,3,0,3,0,,,,,,,,,,,,,,,,,,,,,,,,,,,,,,,,,,,,,,,,,,,,,,,,,,,,,,,,310.8230822000187,310.8230822000187,0.0075888000428676605,0.09803600003942847,2.0,0.7582439000252634,,,,,,,,,,,669,Moral,2024-02-20_12h32.56.620,MoralCondition_v2,2022.2.5,30.036091362465715,
5,0,5,0,4,0,4,0,,,,,,,,,,,,,,,,,,,,,,,,,,,,,,,,,,,,,,,,,,,,,,,,,,,,,,,,311.63949680002406,311.63949680002406,0.007745299953967333,0.11406959989108145,2.0,1.3408139999955893,,,,,,,,,,,669,Moral,2024-02-20_12h32.56.620,MoralCondition_v2,2022.2.5,30.036091362465715,
5,0,5,0,5,0,5,0,,,,,,,,,,,,,,,,,,,,,,,,,,,,,,,,,,,,,,,,,,,,,,,,,,,,,,,,313.0061448998749,313.0061448998749,0.0067927001509815454,0.0991843999363482,6.0,2.9936432999093086,,,,,,,,,,,669,Moral,2024-02-20_12h32.56.620,MoralCondition_v2,2022.2.5,30.036091362465715,
5,0,5,0,6,0,6,0,,,,,,,,,,,,,,,,,,,,,,,,,,,,,,,,,,,,,,,,,,,,,,,,,,,,,,,,316.03934699995443,316.03934699995443,0.009454400045797229,0.09916389989666641,1.0,1.2906797998584807,,,,,,,,,,,669,Moral,2024-02-20_12h32.56.620,MoralCondition_v2,2022.2.5,30.036091362465715,
5,0,5,0,,,,,,,,,,,,,,,,,,,,,,,,,,,,,,,,,,,,,,,,,,,,,,,,,,,,,,,,,,,,,,,,,,317.37294369982556,317.37294369982556,0.0006903000175952911,0.09911229996941984,7.0,1.2994876001030207,,,,,669,Moral,2024-02-20_12h32.56.620,MoralCondition_v2,2022.2.5,30.036091362465715,
6,0,6,0,0,0,0,0,,,,,,,,,,,,,,,,,,,,,,318.7061842000112,0.00015869992785155773,0.09919360000640154,324.7227231999859,6.016041999915615,,324.9060708999168,324.9060708999168,0.09465119987726212,0.19940719986334443,5.999295499874279,330.97277819993906,330.97277819993906,330.97277819993906,0.06092269974760711,0.16607259982265532,336.6727644999046,336.87271779985167,5.999054399784654,6.099145699758083,342.8725601998158,12.032440199749544,342.955834900029,342.955834900029,,343.02260449994355,343.02260449994355,0.015800999710336328,0.1155251997988671,down,0.9794059998821467,344.0227458998561,1.0600080713629723e-05,0.08304270007647574,350.03961269999854,350.03961269999854,0.011232900200411677,0.0999226002022624,6.0,1.889770200010389,,,,,,,330.97277819993906,330.97277819993906,350.03961269999854,6.099301599897444,669,Moral,2024-02-20_12h32.56.620,MoralCondition_v2,2022.2.5,30.036091362465715,
6,0,6,0,1,0,1,0,,,,,,,,,,,,,,,,,,,,,,,,,,,,,,,,,,,,,,,,,,,,,,,,,,,,,,,,351.98939849995077,351.98939849995077,0.009167300071567297,0.11481559998355806,7.0,1.306654900079593,,,,,,,,,,,669,Moral,2024-02-20_12h32.56.620,MoralCondition_v2,2022.2.5,30.036091362465715,
6,0,6,0,2,0,2,0,,,,,,,,,,,,,,,,,,,,,,,,,,,,,,,,,,,,,,,,,,,,,,,,,,,,,,,,353.3226089000236,353.3226089000236,0.006412100046873093,0.09919360000640154,1.0,2.427115600090474,,,,,,,,,,,669,Moral,2024-02-20_12h32.56.620,MoralCondition_v2,2022.2.5,30.036091362465715,
6,0,6,0,3,0,3,0,,,,,,,,,,,,,,,,,,,,,,,,,,,,,,,,,,,,,,,,,,,,,,,,,,,,,,,,355.7894764000084,355.7894764000084,0.006958800135180354,0.09838850004598498,6.0,1.55915980017744,,,,,,,,,,,669,Moral,2024-02-20_12h32.56.620,MoralCondition_v2,2022.2.5,30.036091362465715,
6,0,6,0,4,0,4,0,,,,,,,,,,,,,,,,,,,,,,,,,,,,,,,,,,,,,,,,,,,,,,,,,,,,,,,,357.40629830001853,357.40629830001853,0.007249800022691488,0.11414219997823238,5.0,1.6410778001882136,,,,,,,,,,,669,Moral,2024-02-20_12h32.56.620,MoralCondition_v2,2022.2.5,30.036091362465715,
6,0,6,0,5,0,5,0,,,,,,,,,,,,,,,,,,,,,,,,,,,,,,,,,,,,,,,,,,,,,,,,,,,,,,,,359.0726268000435,359.0726268000435,0.007510400144383311,0.09776280005462468,6.0,1.491431999951601,,,,,,,,,,,669,Moral,2024-02-20_12h32.56.620,MoralCondition_v2,2022.2.5,30.036091362465715,
6,0,6,0,6,0,6,0,,,,,,,,,,,,,,,,,,,,,,,,,,,,,,,,,,,,,,,,,,,,,,,,,,,,,,,,360.60619720001705,360.60619720001705,0.007711599813774228,0.09788999985903502,7.0,1.2583237001672387,,,,,,,,,,,669,Moral,2024-02-20_12h32.56.620,MoralCondition_v2,2022.2.5,30.036091362465715,
6,0,6,0,,,,,,,,,,,,,,,,,,,,,,,,,,,,,,,,,,,,,,,,,,,,,,,,,,,,,,,,,,,,,,,,,,361.90596350003034,361.90596350003034,0.0011701001785695553,0.09807480010204017,2.0,2.264818500028923,,,,,669,Moral,2024-02-20_12h32.56.620,MoralCondition_v2,2022.2.5,30.036091362465715,
7,0,7,0,0,0,0,0,,,,,,,,,,,,,,,,,,,,,,364.2063937999774,0.0002539998386055231,0.09793869988061488,370.20599329983816,6.031362199923024,,370.4059409999754,370.4059409999754,0.08955259993672371,0.1980575998313725,6.031233699759468,376.50595699995756,376.50595699995756,376.50595699995756,0.09096229984425008,0.19793819985352457,382.20606349990703,382.4060039999895,6.03144279983826,6.131285399664193,388.4057865999639,12.031069599790499,388.5059896998573,388.5059896998573,,388.5392211000435,388.5392211000435,0.03150709974579513,0.13124969974160194,up,1.214836100116372,389.805897800019,4.0800077840685844e-05,0.09791600005701184,395.8393720998429,395.8393720998429,0.02581120003014803,0.13131839991547167,2.0,2.773233199957758,,,,,,,376.40601879986934,376.40601879986934,,,669,Moral,2024-02-20_12h32.56.620,MoralCondition_v2,2022.2.5,30.036091362465715,
7,0,7,0,1,0,1,0,,,,,,,,,,,,,,,,,,,,,,,,,,,,,,,,,,,,,,,,,,,,,,,,,,,,,,,,398.6395842998754,398.6395842998754,0.007090999977663159,0.09793940000236034,2.0,0.7255029000807554,,,,,,,,,,,669,Moral,2024-02-20_12h32.56.620,MoralCondition_v2,2022.2.5,30.036091362465715,
7,0,7,0,2,0,2,0,,,,,,,,,,,,,,,,,,,,,,,,,,,,,,,,,,,,,,,,,,,,,,,,,,,,,,,,399.4058997000102,399.4058997000102,0.006619600113481283,0.09892849996685982,2.0,0.6599950999952853,,,,,,,,,,,669,Moral,2024-02-20_12h32.56.620,MoralCondition_v2,2022.2.5,30.036091362465715,
7,0,7,0,3,0,3,0,,,,,,,,,,,,,,,,,,,,,,,,,,,,,,,,,,,,,,,,,,,,,,,,,,,,,,,,400.1057555999141,400.1057555999141,0.007493299897760153,0.09775690012611449,2.0,0.624448399990797,,,,,,,,,,,669,Moral,2024-02-20_12h32.56.620,MoralCondition_v2,2022.2.5,30.036091362465715,
7,0,7,0,4,0,4,0,,,,,,,,,,,,,,,,,,,,,,,,,,,,,,,,,,,,,,,,,,,,,,,,,,,,,,,,400.78951249993406,400.78951249993406,0.007687899982556701,0.11424749996513128,1.0,1.2075060999486595,,,,,,,,,,,669,Moral,2024-02-20_12h32.56.620,MoralCondition_v2,2022.2.5,30.036091362465715,
7,0,7,0,5,0,5,0,,,,,,,,,,,,,,,,,,,,,,,,,,,,,,,,,,,,,,,,,,,,,,,,,,,,,,,,402.02242519985884,402.02242519985884,0.007611799985170364,0.09924530005082488,6.0,2.7260096999816597,,,,,,,,,,,669,Moral,2024-02-20_12h32.56.620,MoralCondition_v2,2022.2.5,30.036091362465715,
7,0,7,0,6,0,6,0,,,,,,,,,,,,,,,,,,,,,,,,,,,,,,,,,,,,,,,,,,,,,,,,,,,,,,,,404.78915289998986,404.78915289998986,0.007478099782019854,0.09811119991354644,1.0,1.3582345000468194,,,,,,,,,,,669,Moral,2024-02-20_12h32.56.620,MoralCondition_v2,2022.2.5,30.036091362465715,
7,0,7,0,,,,,,,,,,,,,,,,,,,,,,,,,,,,,,,,,,,,,,,,,,,,,,,,,,,,,,,,,,,,,,,,,,406.1892975999508,406.1892975999508,0.0007177998777478933,0.09940439998172224,7.0,2.9331529000774026,,,,,669,Moral,2024-02-20_12h32.56.620,MoralCondition_v2,2022.2.5,30.036091362465715,
8,0,8,0,0,0,0,0,,,,,,,,,,,,,,,,,,,,,,409.1562194998842,0.0002976998221129179,0.09738239995203912,415.1558672999963,6.030804299982265,,415.35571969999,415.35571969999,0.08394289971329272,0.1974333997350186,6.030581699684262,421.4557788998354,421.4557788998354,421.4557788998354,0.0869773996528238,0.19747999962419271,427.1558425000403,427.35580309992656,6.030771999619901,6.1307154996320605,433.355801000027,12.030832099728286,433.45574550004676,433.45574550004676,,433.4890954999719,433.4890954999719,0.030848299618810415,0.1305564995855093,up,1.3284718999639153,434.85576880001463,4.0800077840685844e-05,0.09770740009844303,440.872617200017,440.872617200017,0.008917500032112002,0.1143690999597311,5.0,2.473166400101036,,,,,,,421.355852099834,421.355852099834,440.872617200017,,669,Moral,2024-02-20_12h32.56.620,MoralCondition_v2,2022.2.5,30.036091362465715,
8,0,8,0,1,0,1,0,,,,,,,,,,,,,,,,,,,,,,,,,,,,,,,,,,,,,,,,,,,,,,,,,,,,,,,,443.3893643999472,443.3893643999472,0.007619600044563413,0.11448840005323291,5.0,1.841251199832186,,,,,,,,,,,669,Moral,2024-02-20_12h32.56.620,MoralCondition_v2,2022.2.5,30.036091362465715,
8,0,8,0,2,0,2,0,,,,,,,,,,,,,,,,,,,,,,,,,,,,,,,,,,,,,,,,,,,,,,,,,,,,,,,,445.25576249998994,445.25576249998994,0.007603800157085061,0.09810049994848669,5.0,0.9248784000519663,,,,,,,,,,,669,Moral,2024-02-20_12h32.56.620,MoralCondition_v2,2022.2.5,30.036091362465715,
8,0,8,0,3,0,3,0,,,,,,,,,,,,,,,,,,,,,,,,,,,,,,,,,,,,,,,,,,,,,,,,,,,,,,,,446.23940419987775,446.23940419987775,0.007755599915981293,0.11422790004871786,2.0,1.8075133000966161,,,,,,,,,,,669,Moral,2024-02-20_12h32.56.620,MoralCondition_v2,2022.2.5,30.036091362465715,
8,0,8,0,4,0,4,0,,,,,,,,,,,,,,,,,,,,,,,,,,,,,,,,,,,,,,,,,,,,,,,,,,,,,,,,448.0891401998233,448.0891401998233,0.00822139997035265,0.11478770012035966,7.0,1.507365700090304,,,,,,,,,,,669,Moral,2024-02-20_12h32.56.620,MoralCondition_v2,2022.2.5,30.036091362465715,
8,0,8,0,5,0,5,0,,,,,,,,,,,,,,,,,,,,,,,,,,,,,,,,,,,,,,,,,,,,,,,,,,,,,,,,449.63920879992656,449.63920879992656,0.007568000117316842,0.1142168000806123,5.0,2.0745202000252903,,,,,,,,,,,669,Moral,2024-02-20_12h32.56.620,MoralCondition_v2,2022.2.5,30.036091362465715,
8,0,8,0,6,0,6,0,,,,,,,,,,,,,,,,,,,,,,,,,,,,,,,,,,,,,,,,,,,,,,,,,,,,,,,,451.73935969988815,451.73935969988815,0.007433099905028939,0.09809369989670813,5.0,0.8918254999443889,,,,,,,,,,,669,Moral,2024-02-20_12h32.56.620,MoralCondition_v2,2022.2.5,30.036091362465715,
8,0,8,0,,,,,,,,,,,,,,,,,,,,,,,,,,,,,,,,,,,,,,,,,,,,,,,,,,,,,,,,,,,,,,,,,,452.6722780999262,452.6722780999262,0.0013551001902669668,0.09764050017111003,2.0,2.7976398998871446,,,,,669,Moral,2024-02-20_12h32.56.620,MoralCondition_v2,2022.2.5,30.036091362465715,
9,0,9,0,0,0,0,0,,,,,,,,,,,,,,,,,,,,,,455.50599369988777,0.0002840999513864517,0.0977063998579979,461.50567530002445,6.031038400018588,,461.6888816000428,461.6888816000428,0.07070499984547496,0.1812637997791171,6.01429419987835,467.78906310000457,467.78906310000457,467.78906310000457,0.07333819987252355,0.18112859968096018,473.489158899989,473.6892726998776,6.014626999851316,6.114308799849823,479.6891502998769,12.014506299747154,479.7889451999217,479.7889451999217,,479.8222743999213,479.8222743999213,0.014480899786576629,0.11425909958779812,up,0.19532529986463487,480.05572039983235,4.2800093069672585e-05,0.09801489999517798,486.07212489983067,486.07212489983067,0.02697590016759932,0.11476110015064478,2.0,2.7222074000164866,,,,,,,467.6889726999216,467.6889726999216,,,669,Moral,2024-02-20_12h32.56.620,MoralCondition_v2,2022.2.5,30.036091362465715,
9,0,9,0,1,0,1,0,,,,,,,,,,,,,,,,,,,,,,,,,,,,,,,,,,,,,,,,,,,,,,,,,,,,,,,,488.83899439987727,488.83899439987727,0.0068638999946415424,0.09906789986416698,2.0,0.6932062001433223,,,,,,,,,,,669,Moral,2024-02-20_12h32.56.620,MoralCondition_v2,2022.2.5,30.036091362465715,
9,0,9,0,2,0,2,0,,,,,,,,,,,,,,,,,,,,,,,,,,,,,,,,,,,,,,,,,,,,,,,,,,,,,,,,489.58914709999226,489.58914709999226,0.008847400080412626,0.11461040005087852,2.0,0.6400603000074625,,,,,,,,,,,669,Moral,2024-02-20_12h32.56.620,MoralCondition_v2,2022.2.5,30.036091362465715,
9,0,9,0,3,0,3,0,,,,,,,,,,,,,,,,,,,,,,,,,,,,,,,,,,,,,,,,,,,,,,,,,,,,,,,,490.2555835999083,490.2555835999083,0.007660800125449896,0.09766259999014437,6.0,2.058013599831611,,,,,,,,,,,669,Moral,2024-02-20_12h32.56.620,MoralCondition_v2,2022.2.5,30.036091362465715,
9,0,9,0,4,0,4,0,,,,,,,,,,,,,,,,,,,,,,,,,,,,,,,,,,,,,,,,,,,,,,,,,,,,,,,,492.3721642999444,492.3721642999444,0.009224700042977929,0.11401199991814792,2.0,1.5725217000581324,,,,,,,,,,,669,Moral,2024-02-20_12h32.56.620,MoralCondition_v2,2022.2.5,30.036091362465715,
9,0,9,0,5,0,5,0,,,,,,,,,,,,,,,,,,,,,,,,,,,,,,,,,,,,,,,,,,,,,,,,,,,,,,,,493.9720888999291,493.9720888999291,0.007825299864634871,0.09786399989388883,1.0,1.057833099970594,,,,,,,,,,,669,Moral,2024-02-20_12h32.56.620,MoralCondition_v2,2022.2.5,30.036091362465715,
9,0,9,0,6,0,6,0,,,,,,,,,,,,,,,,,,,,,,,,,,,,,,,,,,,,,,,,,,,,,,,,,,,,,,,,495.08907829993404,495.08907829993404,0.008375900099053979,0.11430849996395409,2.0,1.9739294000901282,,,,,,,,,,,669,Moral,2024-02-20_12h32.56.620,MoralCondition_v2,2022.2.5,30.036091362465715,
9,0,9,0,,,,,,,,,,,,,,,,,,,,,,,,,,,,,,,,,,,,,,,,,,,,,,,,,,,,,,,,,,,,,,,,,,497.08910780004226,497.08910780004226,0.0007113998290151358,0.09929429995827377,6.0,2.099831199971959,,,,,669,Moral,2024-02-20_12h32.56.620,MoralCondition_v2,2022.2.5,30.036091362465715,
10,0,10,0,0,0,0,0,,,,,,,,,,,,,,,,,,,,,,499.22237279987894,0.00041019986383616924,0.09727279981598258,505.2222458999604,6.030747599899769,,505.45548979984596,505.45548979984596,0.11704119993373752,0.23065639985725284,6.030623799888417,511.522502399981,511.522502399981,511.522502399981,0.08305119979195297,0.19762189965695143,517.222163700033,517.4222088998649,6.030767999822274,6.1306482998188585,523.4221281998325,12.030612799804658,523.5221587999258,523.5221587999258,,523.5557124998886,523.5557124998886,0.030848399735987186,0.13057999964803457,up,0.45392250013537705,524.0554317999631,1.1299969628453255e-05,0.09920980012975633,530.0722370999865,530.0722370999865,0.026161100016906857,0.11569340014830232,2.0,2.2907916998956352,,,,,,,,,,,669,Moral,2024-02-20_12h32.56.620,MoralCondition_v2,2022.2.5,30.036091362465715,
10,0,10,0,1,0,1,0,,,,,,,,,,,,,,,,,,,,,,,,,,,,,,,,,,,,,,,,,,,,,,,,,,,,,,,,532.4053911999799,532.4053911999799,0.007866399828344584,0.09743429999798536,6.0,1.4909111999440938,,,,,,,,,,,669,Moral,2024-02-20_12h32.56.620,MoralCondition_v2,2022.2.5,30.036091362465715,
10,0,10,0,2,0,2,0,,,,,,,,,,,,,,,,,,,,,,,,,,,,,,,,,,,,,,,,,,,,,,,,,,,,,,,,533.9386422999669,533.9386422999669,0.006969599984586239,0.09747140016406775,1.0,1.4251000999938697,,,,,,,,,,,669,Moral,2024-02-20_12h32.56.620,MoralCondition_v2,2022.2.5,30.036091362465715,
10,0,10,0,3,0,3,0,,,,,,,,,,,,,,,,,,,,,,,,,,,,,,,,,,,,,,,,,,,,,,,,,,,,,,,,535.4054921998177,535.4054921998177,0.007564800092950463,0.09828889998607337,1.0,0.5582838000264019,,,,,,,,,,,669,Moral,2024-02-20_12h32.56.620,MoralCondition_v2,2022.2.5,30.036091362465715,
10,0,10,0,4,0,4,0,,,,,,,,,,,,,,,,,,,,,,,,,,,,,,,,,,,,,,,,,,,,,,,,,,,,,,,,536.022258099867,536.022258099867,0.008765199920162559,0.1145331000443548,2.0,1.0734919998794794,,,,,,,,,,,669,Moral,2024-02-20_12h32.56.620,MoralCondition_v2,2022.2.5,30.036091362465715,
10,0,10,0,5,0,5,0,,,,,,,,,,,,,,,,,,,,,,,,,,,,,,,,,,,,,,,,,,,,,,,,,,,,,,,,537.1219887998886,537.1219887998886,0.007429799996316433,0.09771519992500544,2.0,0.4248519998509437,,,,,,,,,,,669,Moral,2024-02-20_12h32.56.620,MoralCondition_v2,2022.2.5,30.036091362465715,
10,0,10,0,6,0,6,0,,,,,,,,,,,,,,,,,,,,,,,,,,,,,,,,,,,,,,,,,,,,,,,,,,,,,,,,537.6053855998907,537.6053855998907,0.009971000021323562,0.1145166999194771,2.0,0.43886610004119575,,,,,,,,,,,669,Moral,2024-02-20_12h32.56.620,MoralCondition_v2,2022.2.5,30.036091362465715,
10,0,10,0,,,,,,,,,,,,,,,,,,,,,,,,,,,,,,,,,,,,,,,,,,,,,,,,,,,,,,,,,,,,,,,,,,538.0721030000132,538.0721030000132,0.002035900019109249,0.09724429994821548,6.0,1.6965289001818746,,,,,669,Moral,2024-02-20_12h32.56.620,MoralCondition_v2,2022.2.5,30.036091362465715,
11,0,11,0,0,0,0,0,,,,,,,,,,,,,,,,,,,,,,539.8057847998571,0.00016709999181330204,0.09935889998450875,545.8220854999963,6.0158464999403805,,545.9889658999164,545.9889658999164,0.07223759987391531,0.18275329982861876,6.015986199956387,552.0888073998503,552.0888073998503,552.0888073998503,0.0668529998511076,0.18278019991703331,557.7886679999065,557.988714999985,6.015900699887425,6.115752799902111,563.9890058999881,12.016278199851513,564.0886490000412,564.0886490000412,,564.1219772000331,564.1219772000331,0.016029999824240804,0.11576709966175258,up,0.40718310000374913,564.5888165999204,4.720012657344341e-05,0.09785270015709102,570.6222977000289,570.6222977000289,0.024930800078436732,0.1312857000157237,2.0,2.107322200201452,,,,,,,551.9886922999285,551.9886922999285,,,669,Moral,2024-02-20_12h32.56.620,MoralCondition_v2,2022.2.5,30.036091362465715,
11,0,11,0,1,0,1,0,,,,,,,,,,,,,,,,,,,,,,,,,,,,,,,,,,,,,,,,,,,,,,,,,,,,,,,,572.7554162000306,572.7554162000306,0.007271799957379699,0.09847530000843108,2.0,0.8254520997870713,,,,,,,,,,,669,Moral,2024-02-20_12h32.56.620,MoralCondition_v2,2022.2.5,30.036091362465715,
11,0,11,0,2,0,2,0,,,,,,,,,,,,,,,,,,,,,,,,,,,,,,,,,,,,,,,,,,,,,,,,,,,,,,,,573.62211570004,573.62211570004,0.007604100042954087,0.09859520010650158,6.0,1.5923083999659866,,,,,,,,,,,669,Moral,2024-02-20_12h32.56.620,MoralCondition_v2,2022.2.5,30.036091362465715,
11,0,11,0,3,0,3,0,,,,,,,,,,,,,,,,,,,,,,,,,,,,,,,,,,,,,,,,,,,,,,,,,,,,,,,,575.2551900998224,575.2551900998224,0.00712329987436533,0.09817149979062378,1.0,0.9254168998450041,,,,,,,,,,,669,Moral,2024-02-20_12h32.56.620,MoralCondition_v2,2022.2.5,30.036091362465715,
11,0,11,0,4,0,4,0,,,,,,,,,,,,,,,,,,,,,,,,,,,,,,,,,,,,,,,,,,,,,,,,,,,,,,,,576.2218466999475,576.2218466999475,0.006533399922773242,0.09895600005984306,2.0,1.126933499937877,,,,,,,,,,,669,Moral,2024-02-20_12h32.56.620,MoralCondition_v2,2022.2.5,30.036091362465715,
11,0,11,0,5,0,5,0,,,,,,,,,,,,,,,,,,,,,,,,,,,,,,,,,,,,,,,,,,,,,,,,,,,,,,,,577.3884727000259,577.3884727000259,0.00814920011907816,0.09804500010795891,2.0,1.0911581998225302,,,,,,,,,,,669,Moral,2024-02-20_12h32.56.620,MoralCondition_v2,2022.2.5,30.036091362465715,
11,0,11,0,6,0,6,0,,,,,,,,,,,,,,,,,,,,,,,,,,,,,,,,,,,,,,,,,,,,,,,,,,,,,,,,578.5389794998337,578.5389794998337,0.00864370004273951,0.11478800000622869,1.0,1.2404058000538498,,,,,,,,,,,669,Moral,2024-02-20_12h32.56.620,MoralCondition_v2,2022.2.5,30.036091362465715,
11,0,11,0,,,,,,,,,,,,,,,,,,,,,,,,,,,,,,,,,,,,,,,,,,,,,,,,,,,,,,,,,,,,,,,,,,579.8053168999031,579.8053168999031,0.001222300110384822,0.09823130001313984,6.0,1.2646600999869406,,,,,669,Moral,2024-02-20_12h32.56.620,MoralCondition_v2,2022.2.5,30.036091362465715,
12,0,12,0,0,0,0,0,,,,,,,,,,,,,,,,,,,,,,581.105276199989,0.00017719995230436325,0.09867940004914999,587.1052692998201,6.032018400030211,,587.3053600999992,587.3053600999992,0.09096969990059733,0.1989552997983992,6.03195340000093,593.3885558999609,593.3885558999609,593.3885558999609,0.07598959980532527,0.1822301996871829,599.0885842998978,599.2885363998357,6.015242799883708,6.115236399695277,605.288765499834,12.015497999731451,605.388561999891,605.388561999891,,605.421876899898,605.421876899898,0.015496599720790982,0.11534609971567988,down,1.3954827000852674,606.8552097999491,4.4899992644786835e-05,0.09797749994322658,612.8716960998718,612.8716960998718,0.01124090002849698,0.11447819997556508,6.0,2.437766999937594,,,,,,,593.2884130999446,593.2884130999446,612.8716960998718,,669,Moral,2024-02-20_12h32.56.620,MoralCondition_v2,2022.2.5,30.036091362465715,
12,0,12,0,1,0,1,0,,,,,,,,,,,,,,,,,,,,,,,,,,,,,,,,,,,,,,,,,,,,,,,,,,,,,,,,615.3383921999484,615.3383921999484,0.007260699989274144,0.09818969992920756,1.0,1.9587626999709755,,,,,,,,,,,669,Moral,2024-02-20_12h32.56.620,MoralCondition_v2,2022.2.5,30.036091362465715,
12,0,12,0,2,0,2,0,,,,,,,,,,,,,,,,,,,,,,,,,,,,,,,,,,,,,,,,,,,,,,,,,,,,,,,,617.3385172998533,617.3385172998533,0.006244299933314323,0.09894639998674393,5.0,2.2936048000119627,,,,,,,,,,,669,Moral,2024-02-20_12h32.56.620,MoralCondition_v2,2022.2.5,30.036091362465715,
12,0,12,0,3,0,3,0,,,,,,,,,,,,,,,,,,,,,,,,,,,,,,,,,,,,,,,,,,,,,,,,,,,,,,,,619.6887000999413,619.6887000999413,0.008411299902945757,0.11445539980195463,6.0,1.173646500101313,,,,,,,,,,,669,Moral,2024-02-20_12h32.56.620,MoralCondition_v2,2022.2.5,30.036091362465715,
12,0,12,0,4,0,4,0,,,,,,,,,,,,,,,,,,,,,,,,,,,,,,,,,,,,,,,,,,,,,,,,,,,,,,,,620.8886896998156,620.8886896998156,0.0071664999704808,0.09799770009703934,6.0,0.8256558000575751,,,,,,,,,,,669,Moral,2024-02-20_12h32.56.620,MoralCondition_v2,2022.2.5,30.036091362465715,
12,0,12,0,5,0,5,0,,,,,,,,,,,,,,,,,,,,,,,,,,,,,,,,,,,,,,,,,,,,,,,,,,,,,,,,621.755286199972,621.755286199972,0.008421100210398436,0.09734320011921227,7.0,1.0566459000110626,,,,,,,,,,,669,Moral,2024-02-20_12h32.56.620,MoralCondition_v2,2022.2.5,30.036091362465715,
12,0,12,0,6,0,6,0,,,,,,,,,,,,,,,,,,,,,,,,,,,,,,,,,,,,,,,,,,,,,,,,,,,,,,,,622.8719881998841,622.8719881998841,0.008951399940997362,0.11458829999901354,7.0,0.5732394000515342,,,,,,,,,,,669,Moral,2024-02-20_12h32.56.620,MoralCondition_v2,2022.2.5,30.036091362465715,
12,0,12,0,,,,,,,,,,,,,,,,,,,,,,,,,,,,,,,,,,,,,,,,,,,,,,,,,,,,,,,,,,,,,,,,,,623.47194879991,623.47194879991,0.0006919000297784805,0.09915990009903908,1.0,1.4329810000490397,,,,,669,Moral,2024-02-20_12h32.56.620,MoralCondition_v2,2022.2.5,30.036091362465715,
13,0,13,0,0,0,0,0,,,,,,,,,,,,,,,,,,,,,,624.9388398998417,0.00017550005577504635,0.0993669000454247,630.9552406999283,6.015908900182694,,631.1217665998265,631.1217665998265,0.07146700005978346,0.1828189000952989,6.015933099901304,637.2219795000274,637.2219795000274,637.2219795000274,0.07054789992980659,0.1828246999066323,642.921604800038,643.1217338999268,6.015934399794787,6.1159077999182045,649.1216947999783,12.015967099927366,649.2217218999285,649.2217218999285,,649.255065199919,649.255065199919,0.01607049978338182,0.11584529979154468,up,0.28223780007101595,649.5717174999882,4.0899962186813354e-05,0.09786739991977811,655.588394299848,655.588394299848,0.00901399995200336,0.11451999982818961,6.0,3.3066203999333084,,,,,,,637.1218624999747,637.1218624999747,655.588394299848,,669,Moral,2024-02-20_12h32.56.620,MoralCondition_v2,2022.2.5,30.036091362465715,
13,0,13,0,1,0,1,0,,,,,,,,,,,,,,,,,,,,,,,,,,,,,,,,,,,,,,,,,,,,,,,,,,,,,,,,658.9216012000106,658.9216012000106,0.0073991999961435795,0.09812940005213022,2.0,2.158276499947533,,,,,,,,,,,669,Moral,2024-02-20_12h32.56.620,MoralCondition_v2,2022.2.5,30.036091362465715,
13,0,13,0,2,0,2,0,,,,,,,,,,,,,,,,,,,,,,,,,,,,,,,,,,,,,,,,,,,,,,,,,,,,,,,,661.1215460998937,661.1215460998937,0.006559799890965223,0.09925480000674725,7.0,1.5602953999768943,,,,,,,,,,,669,Moral,2024-02-20_12h32.56.620,MoralCondition_v2,2022.2.5,30.036091362465715,
13,0,13,0,3,0,3,0,,,,,,,,,,,,,,,,,,,,,,,,,,,,,,,,,,,,,,,,,,,,,,,,,,,,,,,,662.7217094998341,662.7217094998341,0.007692399900406599,0.09937619999982417,6.0,1.1258759999182075,,,,,,,,,,,669,Moral,2024-02-20_12h32.56.620,MoralCondition_v2,2022.2.5,30.036091362465715,
13,0,13,0,4,0,4,0,,,,,,,,,,,,,,,,,,,,,,,,,,,,,,,,,,,,,,,,,,,,,,,,,,,,,,,,663.888194500003,663.888194500003,0.006436199881136417,0.09914099983870983,6.0,0.8604967999272048,,,,,,,,,,,669,Moral,2024-02-20_12h32.56.620,MoralCondition_v2,2022.2.5,30.036091362465715,
13,0,13,0,5,0,5,0,,,,,,,,,,,,,,,,,,,,,,,,,,,,,,,,,,,,,,,,,,,,,,,,,,,,,,,,664.7884611999616,664.7884611999616,0.006803700001910329,0.09926620009355247,6.0,1.5601570999715477,,,,,,,,,,,669,Moral,2024-02-20_12h32.56.620,MoralCondition_v2,2022.2.5,30.036091362465715,
13,0,13,0,6,0,6,0,,,,,,,,,,,,,,,,,,,,,,,,,,,,,,,,,,,,,,,,,,,,,,,,,,,,,,,,666.3883358999155,666.3883358999155,0.007517700083553791,0.09796479996293783,7.0,1.4913419999647886,,,,,,,,,,,669,Moral,2024-02-20_12h32.56.620,MoralCondition_v2,2022.2.5,30.036091362465715,
13,0,13,0,,,,,,,,,,,,,,,,,,,,,,,,,,,,,,,,,,,,,,,,,,,,,,,,,,,,,,,,,,,,,,,,,,667.9217816998716,667.9217816998716,0.0014043000992387533,0.09760460001416504,2.0,1.2974966000765562,,,,,669,Moral,2024-02-20_12h32.56.620,MoralCondition_v2,2022.2.5,30.036091362465715,
14,0,14,0,0,0,0,0,,,,,,,,,,,,,,,,,,,,,,669.2551257999148,0.00012100022286176682,0.09929620008915663,675.2549437000416,5.999250500230119,6.099214700050652,675.4216660999227,675.4216660999227,0.05871729995124042,0.16611370001919568,5.999322599964216,681.5381568998564,681.5381568998564,681.5381568998564,0.06908379984088242,0.1824916999321431,687.2383750998415,687.4382396999281,6.015889100031927,6.115905199898407,693.4382605999708,12.015904699917883,693.5382138998248,693.5382138998248,,693.5715812998824,693.5715812998824,0.016066799871623516,0.11583069991320372,up,0.4940434000454843,694.1050263999496,6.250012665987015e-05,0.09773610020056367,700.1217738999985,700.1217738999985,0.008888700045645237,0.11451350012794137,2.0,2.273304400034249,,,,,,,681.4048820999451,681.4048820999451,700.1217738999985,,669,Moral,2024-02-20_12h32.56.620,MoralCondition_v2,2022.2.5,30.036091362465715,
14,0,14,0,1,0,1,0,,,,,,,,,,,,,,,,,,,,,,,,,,,,,,,,,,,,,,,,,,,,,,,,,,,,,,,,702.4385247000027,702.4385247000027,0.007862200029194355,0.11399650014936924,2.0,0.7072483000811189,,,,,,,,,,,669,Moral,2024-02-20_12h32.56.620,MoralCondition_v2,2022.2.5,30.036091362465715,
14,0,14,0,2,0,2,0,,,,,,,,,,,,,,,,,,,,,,,,,,,,,,,,,,,,,,,,,,,,,,,,,,,,,,,,703.1714657000266,703.1714657000266,0.008857199922204018,0.09809699980542064,2.0,1.023633100092411,,,,,,,,,,,669,Moral,2024-02-20_12h32.56.620,MoralCondition_v2,2022.2.5,30.036091362465715,
14,0,14,0,3,0,3,0,,,,,,,,,,,,,,,,,,,,,,,,,,,,,,,,,,,,,,,,,,,,,,,,,,,,,,,,704.2382028000429,704.2382028000429,0.0076929000206291676,0.09793989988975227,1.0,1.0578952000942081,,,,,,,,,,,669,Moral,2024-02-20_12h32.56.620,MoralCondition_v2,2022.2.5,30.036091362465715,
14,0,14,0,4,0,4,0,,,,,,,,,,,,,,,,,,,,,,,,,,,,,,,,,,,,,,,,,,,,,,,,,,,,,,,,705.3381939998362,705.3381939998362,0.007457399973645806,0.09777550003491342,2.0,1.2585750999860466,,,,,,,,,,,669,Moral,2024-02-20_12h32.56.620,MoralCondition_v2,2022.2.5,30.036091362465715,
14,0,14,0,5,0,5,0,,,,,,,,,,,,,,,,,,,,,,,,,,,,,,,,,,,,,,,,,,,,,,,,,,,,,,,,706.6548116998747,706.6548116998747,0.010842100018635392,0.11453629983589053,2.0,0.5048829999286681,,,,,,,,,,,669,Moral,2024-02-20_12h32.56.620,MoralCondition_v2,2022.2.5,30.036091362465715,
14,0,14,0,6,0,6,0,,,,,,,,,,,,,,,,,,,,,,,,,,,,,,,,,,,,,,,,,,,,,,,,,,,,,,,,707.1880458998494,707.1880458998494,0.006753199966624379,0.09920509997755289,6.0,1.3938545999117196,,,,,,,,,,,669,Moral,2024-02-20_12h32.56.620,MoralCondition_v2,2022.2.5,30.036091362465715,
14,0,14,0,,,,,,,,,,,,,,,,,,,,,,,,,,,,,,,,,,,,,,,,,,,,,,,,,,,,,,,,,,,,,,,,,,708.6215725999791,708.6215725999791,0.0009838000405579805,0.09929820010438561,6.0,1.03262780001387,,,,,669,Moral,2024-02-20_12h32.56.620,MoralCondition_v2,2022.2.5,30.036091362465715,
15,0,15,0,0,0,0,0,,,,,,,,,,,,,,,,,,,,,,709.6885738999117,0.0003315000794827938,0.09790469985455275,715.704969599843,6.01455709990114,,715.8714062999934,715.8714062999934,0.06884159985929728,0.18118889979086816,6.014665699796751,721.9716254000086,721.9716254000086,721.9716254000086,0.06889819982461631,0.18142259982414544,727.6714767999947,727.8715911998879,6.014677899889648,6.114738099742681,733.8715699999593,12.014660599874333,733.9714203998446,733.9714203998446,,734.0047802999616,734.0047802999616,0.01465529971756041,0.11445639957673848,up,0.4531326999422163,734.5047486999538,2.7900096029043198e-05,0.09869310003705323,740.5216667000204,740.5216667000204,0.02456349995918572,0.11520890006795526,2.0,2.4583443999290466,,,,,,,721.8714953998569,721.8714953998569,,,669,Moral,2024-02-20_12h32.56.620,MoralCondition_v2,2022.2.5,30.036091362465715,
15,0,15,0,1,0,1,0,,,,,,,,,,,,,,,,,,,,,,,,,,,,,,,,,,,,,,,,,,,,,,,,,,,,,,,,743.0213562999852,743.0213562999852,0.006539399968460202,0.09914699988439679,2.0,0.9936309999320656,,,,,,,,,,,669,Moral,2024-02-20_12h32.56.620,MoralCondition_v2,2022.2.5,30.036091362465715,
15,0,15,0,2,0,2,0,,,,,,,,,,,,,,,,,,,,,,,,,,,,,,,,,,,,,,,,,,,,,,,,,,,,,,,,744.071725100046,744.071725100046,0.008327499963343143,0.11458120006136596,1.0,1.207039900124073,,,,,,,,,,,669,Moral,2024-02-20_12h32.56.620,MoralCondition_v2,2022.2.5,30.036091362465715,
15,0,15,0,3,0,3,0,,,,,,,,,,,,,,,,,,,,,,,,,,,,,,,,,,,,,,,,,,,,,,,,,,,,,,,,745.3046533998568,745.3046533998568,0.006513700122013688,0.09904440003447235,2.0,1.0604099999181926,,,,,,,,,,,669,Moral,2024-02-20_12h32.56.620,MoralCondition_v2,2022.2.5,30.036091362465715,
15,0,15,0,4,0,4,0,,,,,,,,,,,,,,,,,,,,,,,,,,,,,,,,,,,,,,,,,,,,,,,,,,,,,,,,746.404827499995,746.404827499995,0.007902699988335371,0.09751729993149638,6.0,2.12424820009619,,,,,,,,,,,669,Moral,2024-02-20_12h32.56.620,MoralCondition_v2,2022.2.5,30.036091362465715,
15,0,15,0,5,0,5,0,,,,,,,,,,,,,,,,,,,,,,,,,,,,,,,,,,,,,,,,,,,,,,,,,,,,,,,,748.5713682998903,748.5713682998903,0.006486700149253011,0.09918850008398294,2.0,1.827072799904272,,,,,,,,,,,669,Moral,2024-02-20_12h32.56.620,MoralCondition_v2,2022.2.5,30.036091362465715,
15,0,15,0,6,0,6,0,,,,,,,,,,,,,,,,,,,,,,,,,,,,,,,,,,,,,,,,,,,,,,,,,,,,,,,,750.4381641999353,750.4381641999353,0.00671169999986887,0.09903749986551702,2.0,0.7602013999130577,,,,,,,,,,,669,Moral,2024-02-20_12h32.56.620,MoralCondition_v2,2022.2.5,30.036091362465715,
15,0,15,0,,,,,,,,,,,,,,,,,,,,,,,,,,,,,,,,,,,,,,,,,,,,,,,,,,,,,,,,,,,,,,,,,,751.2380133999977,751.2380133999977,0.0012914999388158321,0.09783060010522604,6.0,1.8975557999219745,,,,,669,Moral,2024-02-20_12h32.56.620,MoralCondition_v2,2022.2.5,30.036091362465715,
16,0,16,0,0,0,0,0,,,,,,,,,,,,,,,,,,,,,,753.171682999935,0.00021209986880421638,0.09914890001527965,759.187988899881,6.01574349985458,,759.3549424998928,759.3549424998928,0.07630329974927008,0.1824884999077767,6.015601799823344,765.4546284000389,765.4546284000389,765.4546284000389,0.07338739978149533,0.1823260998353362,771.1546684999485,771.3546502999961,6.015684699639678,6.115600599674508,777.3546346998774,12.015612699789926,777.4546071998775,777.4546071998775,,777.487942900043,777.487942900043,0.01581219956278801,0.11558289965614676,up,0.8095400999300182,778.3546328998636,4.739989526569843e-05,0.09776460006833076,784.3714594999328,784.3714594999328,0.008871299913153052,0.11461970000527799,6.0,1.8064989999402314,,,,,,,765.3547461999115,765.3547461999115,784.3714594999328,,669,Moral,2024-02-20_12h32.56.620,MoralCondition_v2,2022.2.5,30.036091362465715,
16,0,16,0,1,0,1,0,,,,,,,,,,,,,,,,,,,,,,,,,,,,,,,,,,,,,,,,,,,,,,,,,,,,,,,,786.2046453999355,786.2046453999355,0.00700360001064837,0.09820459992624819,2.0,1.0921604000031948,,,,,,,,,,,669,Moral,2024-02-20_12h32.56.620,MoralCondition_v2,2022.2.5,30.036091362465715,
16,0,16,0,2,0,2,0,,,,,,,,,,,,,,,,,,,,,,,,,,,,,,,,,,,,,,,,,,,,,,,,,,,,,,,,787.3380411998369,787.3380411998369,0.006668600020930171,0.09918080014176667,1.0,1.4271610998548567,,,,,,,,,,,669,Moral,2024-02-20_12h32.56.620,MoralCondition_v2,2022.2.5,30.036091362465715,
16,0,16,0,3,0,3,0,,,,,,,,,,,,,,,,,,,,,,,,,,,,,,,,,,,,,,,,,,,,,,,,,,,,,,,,788.8044183000457,788.8044183000457,0.006657700054347515,0.09908369998447597,2.0,1.0269519998691976,,,,,,,,,,,669,Moral,2024-02-20_12h32.56.620,MoralCondition_v2,2022.2.5,30.036091362465715,
16,0,16,0,4,0,4,0,,,,,,,,,,,,,,,,,,,,,,,,,,,,,,,,,,,,,,,,,,,,,,,,,,,,,,,,789.8712348998524,789.8712348998524,0.0068604000844061375,0.09916620003059506,1.0,1.193648299900815,,,,,,,,,,,669,Moral,2024-02-20_12h32.56.620,MoralCondition_v2,2022.2.5,30.036091362465715,
16,0,16,0,5,0,5,0,,,,,,,,,,,,,,,,,,,,,,,,,,,,,,,,,,,,,,,,,,,,,,,,,,,,,,,,791.1212532999925,791.1212532999925,0.008142600068822503,0.11413310002535582,2.0,0.7071859000716358,,,,,,,,,,,669,Moral,2024-02-20_12h32.56.620,MoralCondition_v2,2022.2.5,30.036091362465715,
16,0,16,0,6,0,6,0,,,,,,,,,,,,,,,,,,,,,,,,,,,,,,,,,,,,,,,,,,,,,,,,,,,,,,,,791.8545219998341,791.8545219998341,0.007182200206443667,0.09812039998359978,2.0,0.7585150999948382,,,,,,,,,,,669,Moral,2024-02-20_12h32.56.620,MoralCondition_v2,2022.2.5,30.036091362465715,
16,0,16,0,,,,,,,,,,,,,,,,,,,,,,,,,,,,,,,,,,,,,,,,,,,,,,,,,,,,,,,,,,,,,,,,,,792.6546512998175,792.6546512998175,0.0011515000369399786,0.09832199988886714,6.0,1.5651859000790864,,,,,669,Moral,2024-02-20_12h32.56.620,MoralCondition_v2,2022.2.5,30.036091362465715,
17,0,17,0,0,0,0,0,,,,,,,,,,,,,,,,,,,,,,794.2549570000265,0.00015360000543296337,0.09920119983144104,800.2545820998494,5.999229199951515,6.0990648998413235,800.4213401000015,800.4213401000015,0.053395999828353524,0.16603139974176884,5.999212899710983,806.5211124999914,806.5211124999914,806.5211124999914,0.05493879970163107,0.16573769971728325,812.221192699857,812.4211877000052,5.999097099760547,6.09909199969843,818.4211846999824,11.999107399722561,818.5212032999843,818.5212032999843,12.09913759981282,818.5544836998452,818.5544836998452,2.0599691197276115e-05,0.09899249952286482,up,0.2952272999100387,818.8878847998567,3.4499913454055786e-05,0.09808199992403388,824.9044272999745,824.9044272999745,0.025841000024229288,0.11480259988456964,7.0,2.723501200089231,,,,,,,806.421259299852,806.421259299852,,6.099173299735412,669,Moral,2024-02-20_12h32.56.620,MoralCondition_v2,2022.2.5,30.036091362465715,
17,0,17,0,1,0,1,0,,,,,,,,,,,,,,,,,,,,,,,,,,,,,,,,,,,,,,,,,,,,,,,,,,,,,,,,827.688155699987,827.688155699987,0.008305000141263008,0.11392520018853247,6.0,1.5733591001480818,,,,,,,,,,,669,Moral,2024-02-20_12h32.56.620,MoralCondition_v2,2022.2.5,30.036091362465715,
17,0,17,0,2,0,2,0,,,,,,,,,,,,,,,,,,,,,,,,,,,,,,,,,,,,,,,,,,,,,,,,,,,,,,,,829.287739199819,829.287739199819,0.007110100006684661,0.09740249998867512,6.0,2.058062299853191,,,,,,,,,,,669,Moral,2024-02-20_12h32.56.620,MoralCondition_v2,2022.2.5,30.036091362465715,
17,0,17,0,3,0,3,0,,,,,,,,,,,,,,,,,,,,,,,,,,,,,,,,,,,,,,,,,,,,,,,,,,,,,,,,831.4048503998201,831.4048503998201,0.008788299979642034,0.11433429992757738,6.0,0.6064806999638677,,,,,,,,,,,669,Moral,2024-02-20_12h32.56.620,MoralCondition_v2,2022.2.5,30.036091362465715,
17,0,17,0,4,0,4,0,,,,,,,,,,,,,,,,,,,,,,,,,,,,,,,,,,,,,,,,,,,,,,,,,,,,,,,,832.037922399817,832.037922399817,0.006410899804905057,0.09921409981325269,6.0,0.6271088998764753,,,,,,,,,,,669,Moral,2024-02-20_12h32.56.620,MoralCondition_v2,2022.2.5,30.036091362465715,
17,0,17,0,5,0,5,0,,,,,,,,,,,,,,,,,,,,,,,,,,,,,,,,,,,,,,,,,,,,,,,,,,,,,,,,832.7045589999761,832.7045589999761,0.007800299907103181,0.09821179998107255,6.0,0.7251087999902666,,,,,,,,,,,669,Moral,2024-02-20_12h32.56.620,MoralCondition_v2,2022.2.5,30.036091362465715,
17,0,17,0,6,0,6,0,,,,,,,,,,,,,,,,,,,,,,,,,,,,,,,,,,,,,,,,,,,,,,,,,,,,,,,,833.4711495998781,833.4711495998781,0.007043200079351664,0.0979021000675857,7.0,1.4253827999345958,,,,,,,,,,,669,Moral,2024-02-20_12h32.56.620,MoralCondition_v2,2022.2.5,30.036091362465715,
17,0,17,0,,,,,,,,,,,,,,,,,,,,,,,,,,,,,,,,,,,,,,,,,,,,,,,,,,,,,,,,,,,,,,,,,,834.9378221000079,834.9378221000079,0.001366599928587675,0.0977870998904109,2.0,3.097893500002101,,,,,669,Moral,2024-02-20_12h32.56.620,MoralCondition_v2,2022.2.5,30.036091362465715,
18,0,18,0,0,0,0,0,,,,,,,,,,,,,,,,,,,,,,838.0711435999256,0.00013830000534653664,0.09909630008041859,844.0877674999647,6.01564330002293,,844.2542600999586,844.2542600999586,0.07224459992721677,0.1823009999934584,6.015779499895871,850.3543163998984,850.3543163998984,850.3543163998984,0.07191759999841452,0.18243349995464087,856.0543945999816,856.2544849999249,6.015776499873027,6.115603599930182,862.2543466999196,12.015708899823949,862.3543457000051,862.3543457000051,,862.3876695998479,862.3876695998479,0.015779299894347787,0.1156464999075979,down,1.2373871998861432,863.6876954999752,4.520011134445667e-05,0.11439189990051091,869.7045289999805,869.7045289999805,0.009102900046855211,0.11461940011940897,6.0,1.8400439000688493,,,,,,,850.2543915999122,850.2543915999122,869.7045289999805,,669,Moral,2024-02-20_12h32.56.620,MoralCondition_v2,2022.2.5,30.036091362465715,
18,0,18,0,1,0,1,0,,,,,,,,,,,,,,,,,,,,,,,,,,,,,,,,,,,,,,,,,,,,,,,,,,,,,,,,871.57103799982,871.57103799982,0.006435000104829669,0.09922580001875758,6.0,0.7270339000970125,,,,,,,,,,,669,Moral,2024-02-20_12h32.56.620,MoralCondition_v2,2022.2.5,30.036091362465715,
18,0,18,0,2,0,2,0,,,,,,,,,,,,,,,,,,,,,,,,,,,,,,,,,,,,,,,,,,,,,,,,,,,,,,,,872.3376193998847,872.3376193998847,0.007338100112974644,0.09816300007514656,7.0,1.458367699990049,,,,,,,,,,,669,Moral,2024-02-20_12h32.56.620,MoralCondition_v2,2022.2.5,30.036091362465715,
18,0,18,0,3,0,3,0,,,,,,,,,,,,,,,,,,,,,,,,,,,,,,,,,,,,,,,,,,,,,,,,,,,,,,,,873.8378146998584,873.8378146998584,0.007549300091341138,0.09822480008006096,6.0,1.058347700163722,,,,,,,,,,,669,Moral,2024-02-20_12h32.56.620,MoralCondition_v2,2022.2.5,30.036091362465715,
18,0,18,0,4,0,4,0,,,,,,,,,,,,,,,,,,,,,,,,,,,,,,,,,,,,,,,,,,,,,,,,,,,,,,,,874.9375747998711,874.9375747998711,0.008110699942335486,0.09826510003767908,6.0,1.82442760001868,,,,,,,,,,,669,Moral,2024-02-20_12h32.56.620,MoralCondition_v2,2022.2.5,30.036091362465715,
18,0,18,0,5,0,5,0,,,,,,,,,,,,,,,,,,,,,,,,,,,,,,,,,,,,,,,,,,,,,,,,,,,,,,,,876.8042825998273,876.8042825998273,0.00628019985742867,0.09883639984764159,2.0,2.5267252000048757,,,,,,,,,,,669,Moral,2024-02-20_12h32.56.620,MoralCondition_v2,2022.2.5,30.036091362465715,
18,0,18,0,6,0,6,0,,,,,,,,,,,,,,,,,,,,,,,,,,,,,,,,,,,,,,,,,,,,,,,,,,,,,,,,879.3707850999199,879.3707850999199,0.007706000003963709,0.09788810019381344,7.0,1.3914745000656694,,,,,,,,,,,669,Moral,2024-02-20_12h32.56.620,MoralCondition_v2,2022.2.5,30.036091362465715,
18,0,18,0,,,,,,,,,,,,,,,,,,,,,,,,,,,,,,,,,,,,,,,,,,,,,,,,,,,,,,,,,,,,,,,,,,880.8042788999155,880.8042788999155,0.0012340999674052,0.0982039999216795,2.0,1.6650276998989284,,,,,669,Moral,2024-02-20_12h32.56.620,MoralCondition_v2,2022.2.5,30.036091362465715,
19,0,19,0,0,0,0,0,,,,,,,,,,,,,,,,,,,,,,882.5045105000027,0.0005073000211268663,0.09740650001913309,888.5042407999281,6.030664500081912,,888.7044343999587,888.7044343999587,0.08448809990659356,0.197569299954921,6.030625100014731,894.8042917998973,894.8042917998973,894.8042917998973,0.08450759993866086,0.19754139985889196,900.5042047000024,900.7043460998684,6.0307604998815805,6.130487599875778,906.7044013999403,12.030799399828538,906.8042788999155,906.8042788999155,,906.8375599000137,906.8375599000137,0.030796499690040946,0.1306053998414427,up,0.9316400999668986,907.8041713999119,3.700004890561104e-05,0.09782300004735589,913.8210181000177,913.8210181000177,0.010208900086581707,0.11456479993648827,1.0,2.3054260001517832,,,,,,,894.7042463999242,894.7042463999242,913.8210181000177,,669,Moral,2024-02-20_12h32.56.620,MoralCondition_v2,2022.2.5,30.036091362465715,
19,0,19,0,1,0,1,0,,,,,,,,,,,,,,,,,,,,,,,,,,,,,,,,,,,,,,,,,,,,,,,,,,,,,,,,916.1708573999349,916.1708573999349,0.010630799923092127,0.11460279999300838,2.0,1.0382271998096257,,,,,,,,,,,669,Moral,2024-02-20_12h32.56.620,MoralCondition_v2,2022.2.5,30.036091362465715,
19,0,19,0,2,0,2,0,,,,,,,,,,,,,,,,,,,,,,,,,,,,,,,,,,,,,,,,,,,,,,,,,,,,,,,,917.2541926000267,917.2541926000267,0.009115800028666854,0.11485609994269907,2.0,0.9399268999695778,,,,,,,,,,,669,Moral,2024-02-20_12h32.56.620,MoralCondition_v2,2022.2.5,30.036091362465715,
19,0,19,0,3,0,3,0,,,,,,,,,,,,,,,,,,,,,,,,,,,,,,,,,,,,,,,,,,,,,,,,,,,,,,,,918.2207601999398,918.2207601999398,0.0077333999797701836,0.09798489999957383,1.0,1.257937500020489,,,,,,,,,,,669,Moral,2024-02-20_12h32.56.620,MoralCondition_v2,2022.2.5,30.036091362465715,
19,0,19,0,4,0,4,0,,,,,,,,,,,,,,,,,,,,,,,,,,,,,,,,,,,,,,,,,,,,,,,,,,,,,,,,919.5376508999616,919.5376508999616,0.01106729987077415,0.11603110004216433,2.0,1.0058895000256598,,,,,,,,,,,669,Moral,2024-02-20_12h32.56.620,MoralCondition_v2,2022.2.5,30.036091362465715,
19,0,19,0,5,0,5,0,,,,,,,,,,,,,,,,,,,,,,,,,,,,,,,,,,,,,,,,,,,,,,,,,,,,,,,,920.5710096999537,920.5710096999537,0.00813069986179471,0.09916789992712438,2.0,0.9253252001944929,,,,,,,,,,,669,Moral,2024-02-20_12h32.56.620,MoralCondition_v2,2022.2.5,30.036091362465715,
19,0,19,0,6,0,6,0,,,,,,,,,,,,,,,,,,,,,,,,,,,,,,,,,,,,,,,,,,,,,,,,,,,,,,,,921.5374984999653,921.5374984999653,0.0077267000451684,0.09805690008215606,6.0,1.0916740999091417,,,,,,,,,,,669,Moral,2024-02-20_12h32.56.620,MoralCondition_v2,2022.2.5,30.036091362465715,
19,0,19,0,,,,,,,,,,,,,,,,,,,,,,,,,,,,,,,,,,,,,,,,,,,,,,,,,,,,,,,,,,,,,,,,,,922.6708170999773,922.6708170999773,0.0006830000784248114,0.09912839997559786,6.0,0.9995938001666218,,,,,669,Moral,2024-02-20_12h32.56.620,MoralCondition_v2,2022.2.5,30.036091362465715,
