loop.thisRepN,loop.thisTrialN,loop.thisN,loop.thisIndex,evaluate_all_emotions.thisRepN,evaluate_all_emotions.thisTrialN,evaluate_all_emotions.thisN,evaluate_all_emotions.thisIndex,sync_beep_1.started,p_port.started,p_port.stopped,sync_beep_2.started,sync_beep_2.stopped,sync_beep_3.started,sync_beep_3.stopped,sync_beep_4.started,sync_beep_4.stopped,baseline.started,p_port_2.started,p_port_2.stopped,baseline.stopped,p_port_3.started,p_port_3.stopped,Game_Start_Text.started,p_port_4.started,p_port_4.stopped,key_resp.started,key_resp.keys,key_resp.rt,fixation_cross.started,p_port_5.started,p_port_5.stopped,fixation_cross.stopped,p_port_6.started,player_image_intro.started,player_name_intro.started,p_port_7.started,p_port_7.stopped,p_port_8.started,player_image_offer.started,player_name_offer.started,proposed_split.started,p_port_9.started,p_port_9.stopped,proposed_split.stopped,accept_reject.started,p_port_15.started,p_port_15.stopped,accept_reject.stopped,p_port_10.started,arrow_instructions.started,offer_choice.started,p_port_11.started,p_port_11.stopped,offer_choice.keys,offer_choice.rt,Instructions_Affinity_Score.started,p_port_12.started,p_port_12.stopped,Emotion_Image.started,AffinityScore.started,p_port_13.started,p_port_13.stopped,AffinityScore.response,AffinityScore.rt,Instruction.started,Moral_Disgust_Score.started,p_port_14.started,p_port_14.stopped,Moral_Disgust_Score.response,Moral_Disgust_Score.rt,player_image_offer.stopped,player_name_offer.stopped,player_image_intro.stopped,player_name_intro.stopped,p_port_6.stopped,p_port_8.stopped,p_port_10.stopped,Instructions_Affinity_Score.stopped,participant,session,date,expName,psychopyVersion,frameRate,
,,,,,,,,15.58814862036379,0.0008206999627873302,0.1289045000448823,16.187184459983836,16.503472700016573,16.77041806000052,17.086927599972114,17.37028125998331,17.68687229999341,17.68687229999341,0.028685800032690167,0.12875030003488064,37.68677779997233,20.01214040000923,20.095333600067534,37.78696429997217,0.028831700095906854,0.12894870003219694,38.27030719991308,space,4.0978231999324635,,,,,,,,,,,,,,,,,,,,,,,,,,,,,,,,,,,,,,,,,,,,,,,,,,,670,Moral,2024-02-29_12h36.19.724,MoralCondition_v2,2022.2.5,29.959898677194936,
0,0,0,0,0,0,0,0,,,,,,,,,,,,,,,,,,,,,,42.420256300014444,0.001344699994660914,0.0984166000271216,48.42027529992629,6.031760499929078,48.75370319990907,48.75370319990907,0.1690138999838382,0.3317651000106707,6.031692199991085,54.753644299926236,54.753644299926236,54.753644299926236,0.09650550002697855,0.23184220003895462,60.453633899916895,60.620247500017285,6.0317350999685,6.131862499983981,66.62026519991923,12.031733400071971,66.75355059991125,66.75355059991125,0.03186780004762113,0.13173850008752197,up,2.5097720000194386,69.303810399957,5.770009011030197e-05,0.0975797000573948,75.35359439998865,75.35359439998865,0.030856400029733777,0.1475760000757873,2.0,4.13442869996652,,,,,,,,,,,,,,,670,Moral,2024-02-29_12h36.19.724,MoralCondition_v2,2022.2.5,29.959898677194936,
0,0,0,0,1,0,1,0,,,,,,,,,,,,,,,,,,,,,,,,,,,,,,,,,,,,,,,,,,,,,,,,,,,,79.52026639995165,79.52026639995165,0.024154099985025823,0.11564940004609525,2.0,1.1927238999633119,,,,,,,,,,,,,,,670,Moral,2024-02-29_12h36.19.724,MoralCondition_v2,2022.2.5,29.959898677194936,
0,0,0,0,2,0,2,0,,,,,,,,,,,,,,,,,,,,,,,,,,,,,,,,,,,,,,,,,,,,,,,,,,,,80.77036709990352,80.77036709990352,0.01589160005096346,0.11468700005207211,2.0,1.8331869000103325,,,,,,,,,,,,,,,670,Moral,2024-02-29_12h36.19.724,MoralCondition_v2,2022.2.5,29.959898677194936,
0,0,0,0,3,0,3,0,,,,,,,,,,,,,,,,,,,,,,,,,,,,,,,,,,,,,,,,,,,,,,,,,,,,82.65378359996248,82.65378359996248,0.01255360001232475,0.11594779998995364,2.0,1.1044347001006827,,,,,,,,,,,,,,,670,Moral,2024-02-29_12h36.19.724,MoralCondition_v2,2022.2.5,29.959898677194936,
0,0,0,0,4,0,4,0,,,,,,,,,,,,,,,,,,,,,,,,,,,,,,,,,,,,,,,,,,,,,,,,,,,,83.80362459993921,83.80362459993921,0.012552800006233156,0.11600979999639094,5.0,3.404205600032583,,,,,,,,,,,,,,,670,Moral,2024-02-29_12h36.19.724,MoralCondition_v2,2022.2.5,29.959898677194936,
0,0,0,0,5,0,5,0,,,,,,,,,,,,,,,,,,,,,,,,,,,,,,,,,,,,,,,,,,,,,,,,,,,,87.25363849999849,87.25363849999849,0.013131199986673892,0.11599930003285408,2.0,1.7037563000340015,,,,,,,,,,,,,,,670,Moral,2024-02-29_12h36.19.724,MoralCondition_v2,2022.2.5,29.959898677194936,
0,0,0,0,6,0,6,0,,,,,,,,,,,,,,,,,,,,,,,,,,,,,,,,,,,,,,,,,,,,,,,,,,,,89.0037442999892,89.0037442999892,0.017099900054745376,0.11578820005524904,3.0,2.533445799956098,,,,,,,,,,,,,,,670,Moral,2024-02-29_12h36.19.724,MoralCondition_v2,2022.2.5,29.959898677194936,
0,0,0,0,,,,,,,,,,,,,,,,,,,,,,,,,,,,,,,,,,,,,,,,,,,,,,,,,,,,,,,,,,,,,,91.57036040001549,91.57036040001549,0.001434899982996285,0.09752419998403639,6.0,6.630641600000672,,,,,,,,,670,Moral,2024-02-29_12h36.19.724,MoralCondition_v2,2022.2.5,29.959898677194936,
1,0,1,0,0,0,0,0,,,,,,,,,,,,,,,,,,,,,,98.23718129994813,0.00028089992702007294,0.09739579993765801,104.2535310999956,6.013920399942435,104.50377369998023,104.50377369998023,0.15783559996634722,0.2640585999470204,6.030573899974115,110.5366614999948,110.5366614999948,110.5366614999948,0.09220129996538162,0.197213500039652,116.23683559999336,116.4368907000171,6.030649599968456,6.130687299999408,122.43688159994781,12.030605799984187,122.57018759998027,122.57018759998027,0.030773799982853234,0.13053259998559952,up,1.4372101000044495,124.0330840999959,3.1100003980100155e-05,0.10238300007767975,130.07019559992477,130.07019559992477,0.014712900039739907,0.1191607000073418,2.0,1.9389850000152364,,,,,,,122.53686120000202,122.53686120000202,,,,,,,670,Moral,2024-02-29_12h36.19.724,MoralCondition_v2,2022.2.5,29.959898677194936,
1,0,1,0,1,0,1,0,,,,,,,,,,,,,,,,,,,,,,,,,,,,,,,,,,,,,,,,,,,,,,,,,,,,132.03689839993604,132.03689839993604,0.007505800109356642,0.09932020003907382,2.0,0.8593970999354497,,,,,,,,,,,,,,,670,Moral,2024-02-29_12h36.19.724,MoralCondition_v2,2022.2.5,29.959898677194936,
1,0,1,0,2,0,2,0,,,,,,,,,,,,,,,,,,,,,,,,,,,,,,,,,,,,,,,,,,,,,,,,,,,,132.9370233999798,132.9370233999798,0.007681199931539595,0.09906159993261099,3.0,2.9260916000930592,,,,,,,,,,,,,,,670,Moral,2024-02-29_12h36.19.724,MoralCondition_v2,2022.2.5,29.959898677194936,
1,0,1,0,3,0,3,0,,,,,,,,,,,,,,,,,,,,,,,,,,,,,,,,,,,,,,,,,,,,,,,,,,,,135.9035876999842,135.9035876999842,0.006579799926839769,0.09918309992644936,2.0,1.5935540000209585,,,,,,,,,,,,,,,670,Moral,2024-02-29_12h36.19.724,MoralCondition_v2,2022.2.5,29.959898677194936,
1,0,1,0,4,0,4,0,,,,,,,,,,,,,,,,,,,,,,,,,,,,,,,,,,,,,,,,,,,,,,,,,,,,137.53690589999314,137.53690589999314,0.00760339992120862,0.097719999961555,5.0,1.4245007000863552,,,,,,,,,,,,,,,670,Moral,2024-02-29_12h36.19.724,MoralCondition_v2,2022.2.5,29.959898677194936,
1,0,1,0,5,0,5,0,,,,,,,,,,,,,,,,,,,,,,,,,,,,,,,,,,,,,,,,,,,,,,,,,,,,139.00357709999662,139.00357709999662,0.007501100073568523,0.09780280000995845,2.0,1.3581714999163523,,,,,,,,,,,,,,,670,Moral,2024-02-29_12h36.19.724,MoralCondition_v2,2022.2.5,29.959898677194936,
1,0,1,0,6,0,6,0,,,,,,,,,,,,,,,,,,,,,,,,,,,,,,,,,,,,,,,,,,,,,,,,,,,,140.4036021999782,140.4036021999782,0.0067390999756753445,0.09920350008178502,2.0,2.1935204999754205,,,,,,,,,,,,,,,670,Moral,2024-02-29_12h36.19.724,MoralCondition_v2,2022.2.5,29.959898677194936,
1,0,1,0,,,,,,,,,,,,,,,,,,,,,,,,,,,,,,,,,,,,,,,,,,,,,,,,,,,,,,,,,,,,,,142.63709510001354,142.63709510001354,0.000732300104573369,0.09942700003739446,6.0,2.6332618999294937,,,,,,,,,670,Moral,2024-02-29_12h36.19.724,MoralCondition_v2,2022.2.5,29.959898677194936,
2,0,2,0,0,0,0,0,,,,,,,,,,,,,,,,,,,,,,145.30357759993058,0.0004986999556422234,0.09715799998957664,151.30362789996434,6.030579900019802,151.53669729991816,151.53669729991816,0.12262300006113946,0.23046530003193766,6.03045329998713,157.60336959990673,157.60336959990673,157.60336959990673,0.0840456000296399,0.19711140007711947,163.3034711999353,163.50345680001192,6.030453099985607,6.130453400081024,169.50347869994584,12.030478100059554,169.63674759992864,169.63674759992864,0.03062650002539158,0.13042190007399768,up,0.5872189999790862,170.27013889991213,2.0600040443241596e-05,0.09924830007366836,176.30363029998261,176.30363029998261,0.028033200069330633,0.13268680009059608,6.0,13.672380100004375,,,,,,,169.60348599997815,169.60348599997815,,,,,,,670,Moral,2024-02-29_12h36.19.724,MoralCondition_v2,2022.2.5,29.959898677194936,
2,0,2,0,1,0,1,0,,,,,,,,,,,,,,,,,,,,,,,,,,,,,,,,,,,,,,,,,,,,,,,,,,,,190.00354339997284,190.00354339997284,0.007963899988681078,0.09785629995167255,2.0,7.957425800035708,,,,,,,,,,,,,,,670,Moral,2024-02-29_12h36.19.724,MoralCondition_v2,2022.2.5,29.959898677194936,
2,0,2,0,2,0,2,0,,,,,,,,,,,,,,,,,,,,,,,,,,,,,,,,,,,,,,,,,,,,,,,,,,,,198.00360679998994,198.00360679998994,0.008896499988622963,0.09794530004728585,2.0,0.7236874999944121,,,,,,,,,,,,,,,670,Moral,2024-02-29_12h36.19.724,MoralCondition_v2,2022.2.5,29.959898677194936,
2,0,2,0,3,0,3,0,,,,,,,,,,,,,,,,,,,,,,,,,,,,,,,,,,,,,,,,,,,,,,,,,,,,198.77019449998625,198.77019449998625,0.006897000013850629,0.09926839999388903,2.0,0.8600260999519378,,,,,,,,,,,,,,,670,Moral,2024-02-29_12h36.19.724,MoralCondition_v2,2022.2.5,29.959898677194936,
2,0,2,0,4,0,4,0,,,,,,,,,,,,,,,,,,,,,,,,,,,,,,,,,,,,,,,,,,,,,,,,,,,,199.68702099996153,199.68702099996153,0.008828599937260151,0.11455459997523576,3.0,1.0404344000853598,,,,,,,,,,,,,,,670,Moral,2024-02-29_12h36.19.724,MoralCondition_v2,2022.2.5,29.959898677194936,
2,0,2,0,5,0,5,0,,,,,,,,,,,,,,,,,,,,,,,,,,,,,,,,,,,,,,,,,,,,,,,,,,,,200.7534127999097,200.7534127999097,0.006044400040991604,0.09883010003250092,2.0,0.8939415999921039,,,,,,,,,,,,,,,670,Moral,2024-02-29_12h36.19.724,MoralCondition_v2,2022.2.5,29.959898677194936,
2,0,2,0,6,0,6,0,,,,,,,,,,,,,,,,,,,,,,,,,,,,,,,,,,,,,,,,,,,,,,,,,,,,201.68688930000644,201.68688930000644,0.006634199991822243,0.0991494000190869,2.0,1.0600713000167161,,,,,,,,,,,,,,,670,Moral,2024-02-29_12h36.19.724,MoralCondition_v2,2022.2.5,29.959898677194936,
2,0,2,0,,,,,,,,,,,,,,,,,,,,,,,,,,,,,,,,,,,,,,,,,,,,,,,,,,,,,,,,,,,,,,202.7869126999285,202.7869126999285,0.0013677000533789396,0.09758599998895079,6.0,2.197658699937165,,,,,,,,,670,Moral,2024-02-29_12h36.19.724,MoralCondition_v2,2022.2.5,29.959898677194936,
3,0,3,0,0,0,0,0,,,,,,,,,,,,,,,,,,,,,,205.02016750001349,0.00026169989723712206,0.09760519990231842,211.03680180001538,6.0142754999687895,211.20346739992965,211.20346739992965,0.08217589999549091,0.1812019000062719,6.0142370000248775,217.30340799991973,217.30340799991973,217.30340799991973,0.08027529995888472,0.18116250005550683,223.00348239997402,223.2034346999135,6.014305299962871,6.114203599980101,229.20341750001535,12.014282500022091,229.3367586999666,229.3367586999666,0.014472100068815053,0.11426100006792694,down,10.60683499998413,240.00345209997613,6.320001557469368e-05,0.1146796999964863,246.03697589994408,246.03697589994408,0.025609100004658103,0.13120389997493476,2.0,2.439980800030753,,,,,,,229.30339129990898,229.30339129990898,217.20345939998515,217.20345939998515,,,,,670,Moral,2024-02-29_12h36.19.724,MoralCondition_v2,2022.2.5,29.959898677194936,
3,0,3,0,1,0,1,0,,,,,,,,,,,,,,,,,,,,,,,,,,,,,,,,,,,,,,,,,,,,,,,,,,,,248.5202362999553,248.5202362999553,0.007955400040373206,0.11419829993974417,3.0,5.4071621999610215,,,,,,,,,,,,,,,670,Moral,2024-02-29_12h36.19.724,MoralCondition_v2,2022.2.5,29.959898677194936,
3,0,3,0,2,0,2,0,,,,,,,,,,,,,,,,,,,,,,,,,,,,,,,,,,,,,,,,,,,,,,,,,,,,253.95344589999877,253.95344589999877,0.007722300011664629,0.09755259996745735,2.0,1.6574261999921873,,,,,,,,,,,,,,,670,Moral,2024-02-29_12h36.19.724,MoralCondition_v2,2022.2.5,29.959898677194936,
3,0,3,0,3,0,3,0,,,,,,,,,,,,,,,,,,,,,,,,,,,,,,,,,,,,,,,,,,,,,,,,,,,,255.6703317000065,255.6703317000065,0.007824099971912801,0.11417600000277162,4.0,10.973881799960509,,,,,,,,,,,,,,,670,Moral,2024-02-29_12h36.19.724,MoralCondition_v2,2022.2.5,29.959898677194936,
3,0,3,0,4,0,4,0,,,,,,,,,,,,,,,,,,,,,,,,,,,,,,,,,,,,,,,,,,,,,,,,,,,,266.68691049993504,266.68691049993504,0.007905100006610155,0.11473569995723665,4.0,3.574428000021726,,,,,,,,,,,,,,,670,Moral,2024-02-29_12h36.19.724,MoralCondition_v2,2022.2.5,29.959898677194936,
3,0,3,0,5,0,5,0,,,,,,,,,,,,,,,,,,,,,,,,,,,,,,,,,,,,,,,,,,,,,,,,,,,,270.2865180999506,270.2865180999506,0.007234600023366511,0.09803090000059456,3.0,6.491628900053911,,,,,,,,,,,,,,,670,Moral,2024-02-29_12h36.19.724,MoralCondition_v2,2022.2.5,29.959898677194936,
3,0,3,0,6,0,6,0,,,,,,,,,,,,,,,,,,,,,,,,,,,,,,,,,,,,,,,,,,,,,,,,,,,,276.8369581999723,276.8369581999723,0.0077621000818908215,0.11452679999638349,5.0,2.7075308999046683,,,,,,,,,,,,,,,670,Moral,2024-02-29_12h36.19.724,MoralCondition_v2,2022.2.5,29.959898677194936,
3,0,3,0,,,,,,,,,,,,,,,,,,,,,,,,,,,,,,,,,,,,,,,,,,,,,,,,,,,,,,,,,,,,,,279.5701321999077,279.5701321999077,0.0014757000608369708,0.09735379996709526,3.0,16.163884199922904,,,,,,,,,670,Moral,2024-02-29_12h36.19.724,MoralCondition_v2,2022.2.5,29.959898677194936,
4,0,4,0,0,0,0,0,,,,,,,,,,,,,,,,,,,,,,295.7703725999454,0.0001569000305607915,0.09926530008669943,301.76997399993706,5.999170200084336,301.9364309000084,301.9364309000084,0.05895720003172755,0.1656366001116112,5.9992271000519395,308.0366083999397,308.0366083999397,308.0366083999397,0.057173100067302585,0.1658275000518188,313.7366460999474,313.9366269999882,5.999171800096519,6.099144000094384,319.9366409999784,11.99918120005168,320.0699491999112,320.0699491999112,0.0002646001521497965,0.09911390009801835,up,1.689155099913478,321.8032824000111,4.199997056275606e-05,0.09767359995748848,327.83715099992696,327.83715099992696,0.025827599922195077,0.13104009989183396,2.0,3.2061288999393582,,,,,,,320.036860799999,320.036860799999,307.9366549999686,307.9366549999686,6.099046800052747,6.099204700090922,12.09943150007166,,670,Moral,2024-02-29_12h36.19.724,MoralCondition_v2,2022.2.5,29.959898677194936,
4,0,4,0,1,0,1,0,,,,,,,,,,,,,,,,,,,,,,,,,,,,,,,,,,,,,,,,,,,,,,,,,,,,331.0700736999279,331.0700736999279,0.007007600041106343,0.09800330002326518,2.0,0.9253803000319749,,,,,,,,,,,,,,,670,Moral,2024-02-29_12h36.19.724,MoralCondition_v2,2022.2.5,29.959898677194936,
4,0,4,0,2,0,2,0,,,,,,,,,,,,,,,,,,,,,,,,,,,,,,,,,,,,,,,,,,,,,,,,,,,,332.0367949999636,332.0367949999636,0.00666569999884814,0.09904959995765239,2.0,0.8602319000056013,,,,,,,,,,,,,,,670,Moral,2024-02-29_12h36.19.724,MoralCondition_v2,2022.2.5,29.959898677194936,
4,0,4,0,3,0,3,0,,,,,,,,,,,,,,,,,,,,,,,,,,,,,,,,,,,,,,,,,,,,,,,,,,,,332.9368616999127,332.9368616999127,0.006501000025309622,0.09862629999406636,2.0,0.8265364000108093,,,,,,,,,,,,,,,670,Moral,2024-02-29_12h36.19.724,MoralCondition_v2,2022.2.5,29.959898677194936,
4,0,4,0,4,0,4,0,,,,,,,,,,,,,,,,,,,,,,,,,,,,,,,,,,,,,,,,,,,,,,,,,,,,333.8032579999417,333.8032579999417,0.0071699999971315265,0.09768050001002848,3.0,2.1579424999654293,,,,,,,,,,,,,,,670,Moral,2024-02-29_12h36.19.724,MoralCondition_v2,2022.2.5,29.959898677194936,
4,0,4,0,5,0,5,0,,,,,,,,,,,,,,,,,,,,,,,,,,,,,,,,,,,,,,,,,,,,,,,,,,,,336.0031357000116,336.0031357000116,0.00664210005197674,0.09899059997405857,2.0,1.193503599963151,,,,,,,,,,,,,,,670,Moral,2024-02-29_12h36.19.724,MoralCondition_v2,2022.2.5,29.959898677194936,
4,0,4,0,6,0,6,0,,,,,,,,,,,,,,,,,,,,,,,,,,,,,,,,,,,,,,,,,,,,,,,,,,,,337.2365792999044,337.2365792999044,0.007803000044077635,0.09904320002533495,6.0,1.492538999998942,,,,,,,,,,,,,,,670,Moral,2024-02-29_12h36.19.724,MoralCondition_v2,2022.2.5,29.959898677194936,
4,0,4,0,,,,,,,,,,,,,,,,,,,,,,,,,,,,,,,,,,,,,,,,,,,,,,,,,,,,,,,,,,,,,,338.7699524000054,338.7699524000054,0.0010924999369308352,0.09815750003326684,6.0,3.4983903999673203,,,,,,,,,670,Moral,2024-02-29_12h36.19.724,MoralCondition_v2,2022.2.5,29.959898677194936,
5,0,5,0,0,0,0,0,,,,,,,,,,,,,,,,,,,,,,342.30330289993435,0.00014939997345209122,0.09901030000764877,348.3198772999458,6.0157138999784365,348.57017209997866,348.57017209997866,0.14877560001332313,0.2656481000594795,6.0323016999755055,354.6034642999293,354.6034642999293,354.6034642999293,0.08959440002217889,0.19916850002482533,360.31990819994826,360.48656619992107,6.01569480006583,6.115592900081538,366.4865009000059,12.015686300001107,366.61989440000616,366.61989440000616,0.015748400008305907,0.11564070009626448,down,10.37969760003034,377.03651209990494,4.75000124424696e-05,0.09781589999329299,383.03698089998215,383.03698089998215,0.008454900002107024,0.09760810004081577,4.0,6.990683400072157,,,,,,,,,,,,,,383.03698089998215,670,Moral,2024-02-29_12h36.19.724,MoralCondition_v2,2022.2.5,29.959898677194936,
5,0,5,0,1,0,1,0,,,,,,,,,,,,,,,,,,,,,,,,,,,,,,,,,,,,,,,,,,,,,,,,,,,,390.0698146999348,390.0698146999348,0.008063400047831237,0.0987896000733599,5.0,16.525243400014006,,,,,,,,,,,,,,,670,Moral,2024-02-29_12h36.19.724,MoralCondition_v2,2022.2.5,29.959898677194936,
5,0,5,0,2,0,2,0,,,,,,,,,,,,,,,,,,,,,,,,,,,,,,,,,,,,,,,,,,,,,,,,,,,,406.6533441999927,406.6533441999927,0.0077130000572651625,0.11445290001574904,2.0,2.9077542999293655,,,,,,,,,,,,,,,670,Moral,2024-02-29_12h36.19.724,MoralCondition_v2,2022.2.5,29.959898677194936,
5,0,5,0,3,0,3,0,,,,,,,,,,,,,,,,,,,,,,,,,,,,,,,,,,,,,,,,,,,,,,,,,,,,409.58638809993863,409.58638809993863,0.007891700020991266,0.09768399992026389,2.0,1.3909236000617966,,,,,,,,,,,,,,,670,Moral,2024-02-29_12h36.19.724,MoralCondition_v2,2022.2.5,29.959898677194936,
5,0,5,0,4,0,4,0,,,,,,,,,,,,,,,,,,,,,,,,,,,,,,,,,,,,,,,,,,,,,,,,,,,,411.01971249992494,411.01971249992494,0.007410099962726235,0.09818890003953129,2.0,7.258291899925098,,,,,,,,,,,,,,,670,Moral,2024-02-29_12h36.19.724,MoralCondition_v2,2022.2.5,29.959898677194936,
5,0,5,0,5,0,5,0,,,,,,,,,,,,,,,,,,,,,,,,,,,,,,,,,,,,,,,,,,,,,,,,,,,,418.3197768999962,418.3197768999962,0.006565699935890734,0.09915290004573762,2.0,0.1271061000879854,,,,,,,,,,,,,,,670,Moral,2024-02-29_12h36.19.724,MoralCondition_v2,2022.2.5,29.959898677194936,
5,0,5,0,6,0,6,0,,,,,,,,,,,,,,,,,,,,,,,,,,,,,,,,,,,,,,,,,,,,,,,,,,,,418.4866522999946,418.4866522999946,0.007165499962866306,0.09919159999117255,2.0,2.3598701999289915,,,,,,,,,,,,,,,670,Moral,2024-02-29_12h36.19.724,MoralCondition_v2,2022.2.5,29.959898677194936,
5,0,5,0,,,,,,,,,,,,,,,,,,,,,,,,,,,,,,,,,,,,,,,,,,,,,,,,,,,,,,,,,,,,,,420.88654320000205,420.88654320000205,0.0014956999802961946,0.09719050000421703,4.0,27.630303399986587,,,,,,,,,670,Moral,2024-02-29_12h36.19.724,MoralCondition_v2,2022.2.5,29.959898677194936,
6,0,6,0,0,0,0,0,,,,,,,,,,,,,,,,,,,,,,448.5533335999353,0.0001354999840259552,0.09925590001512319,454.55300569999963,5.999195599928498,454.8032121999422,454.8032121999422,0.1339221999514848,0.24951320001855493,6.0158522999845445,460.83612110000104,460.83612110000104,460.83612110000104,0.07351540005765855,0.18256540002766997,466.53632139996625,466.736305099912,6.015893100062385,6.115801200037822,472.7363192999037,12.015924800070934,472.8696461999789,472.8696461999789,0.016030800063163042,0.1159422000637278,down,7.394208699930459,480.3029695999576,4.950002767145634e-05,0.09834979998413473,486.31957289995626,486.31957289995626,0.021178600029088557,0.11514200002420694,2.0,7.594925899989903,,,,,,,472.83628950000275,472.83628950000275,,,6.099214599933475,,,,670,Moral,2024-02-29_12h36.19.724,MoralCondition_v2,2022.2.5,29.959898677194936,
6,0,6,0,1,0,1,0,,,,,,,,,,,,,,,,,,,,,,,,,,,,,,,,,,,,,,,,,,,,,,,,,,,,493.95279110001866,493.95279110001866,0.00683620001655072,0.09933080000337213,2.0,7.126691499957815,,,,,,,,,,,,,,,670,Moral,2024-02-29_12h36.19.724,MoralCondition_v2,2022.2.5,29.959898677194936,
6,0,6,0,2,0,2,0,,,,,,,,,,,,,,,,,,,,,,,,,,,,,,,,,,,,,,,,,,,,,,,,,,,,501.1196621999843,501.1196621999843,0.007549599977210164,0.09775949991308153,3.0,6.55796929995995,,,,,,,,,,,,,,,670,Moral,2024-02-29_12h36.19.724,MoralCondition_v2,2022.2.5,29.959898677194936,
6,0,6,0,3,0,3,0,,,,,,,,,,,,,,,,,,,,,,,,,,,,,,,,,,,,,,,,,,,,,,,,,,,,507.71939819992986,507.71939819992986,0.0066260999301448464,0.09926779998932034,5.0,3.7765594999073073,,,,,,,,,,,,,,,670,Moral,2024-02-29_12h36.19.724,MoralCondition_v2,2022.2.5,29.959898677194936,
6,0,6,0,4,0,4,0,,,,,,,,,,,,,,,,,,,,,,,,,,,,,,,,,,,,,,,,,,,,,,,,,,,,511.55271889991127,511.55271889991127,0.01281579991336912,0.11593949992675334,2.0,1.620859400019981,,,,,,,,,,,,,,,670,Moral,2024-02-29_12h36.19.724,MoralCondition_v2,2022.2.5,29.959898677194936,
6,0,6,0,5,0,5,0,,,,,,,,,,,,,,,,,,,,,,,,,,,,,,,,,,,,,,,,,,,,,,,,,,,,513.2197216999484,513.2197216999484,0.007971799932420254,0.11409699998330325,4.0,20.573509000008926,,,,,,,,,,,,,,,670,Moral,2024-02-29_12h36.19.724,MoralCondition_v2,2022.2.5,29.959898677194936,
6,0,6,0,6,0,6,0,,,,,,,,,,,,,,,,,,,,,,,,,,,,,,,,,,,,,,,,,,,,,,,,,,,,533.8196180999512,533.8196180999512,0.006928500020876527,0.0989550999365747,2.0,2.0598365999758244,,,,,,,,,,,,,,,670,Moral,2024-02-29_12h36.19.724,MoralCondition_v2,2022.2.5,29.959898677194936,
6,0,6,0,,,,,,,,,,,,,,,,,,,,,,,,,,,,,,,,,,,,,,,,,,,,,,,,,,,,,,,,,,,,,,535.9195458999602,535.9195458999602,0.0007285999599844217,0.09962220001034439,3.0,23.266162600019015,,,,,,,,,670,Moral,2024-02-29_12h36.19.724,MoralCondition_v2,2022.2.5,29.959898677194936,
7,0,7,0,0,0,0,0,,,,,,,,,,,,,,,,,,,,,,559.219724799972,0.00015000009443610907,0.09915200003888458,565.2194352999795,5.999085600022227,565.4364370999392,565.4364370999392,0.09973270003683865,0.2156116000842303,6.015760700101964,571.5029673000099,571.5029673000099,571.5029673000099,0.07315660011954606,0.18265250010881573,577.202703399933,577.4026801999426,6.015769400051795,6.115769000141881,583.4026408999925,12.015785700059496,583.5359887999948,583.5359887999948,0.015847000060603023,0.11572950007393956,up,2.3599046000745147,585.9526259999257,5.330005660653114e-05,0.09782440005801618,591.9524525000015,591.9524525000015,0.01047189999371767,0.09773300006054342,3.0,7.521263600094244,,,,,,,583.502578399959,583.502578399959,,,6.0991613999940455,,,591.9524525000015,670,Moral,2024-02-29_12h36.19.724,MoralCondition_v2,2022.2.5,29.959898677194936,
7,0,7,0,1,0,1,0,,,,,,,,,,,,,,,,,,,,,,,,,,,,,,,,,,,,,,,,,,,,,,,,,,,,599.5193618999328,599.5193618999328,0.007939700037240982,0.09747389995027333,4.0,5.057278399937786,,,,,,,,,,,,,,,670,Moral,2024-02-29_12h36.19.724,MoralCondition_v2,2022.2.5,29.959898677194936,
7,0,7,0,2,0,2,0,,,,,,,,,,,,,,,,,,,,,,,,,,,,,,,,,,,,,,,,,,,,,,,,,,,,604.6194406999275,604.6194406999275,0.006706600077450275,0.09933060000184923,3.0,4.826816699933261,,,,,,,,,,,,,,,670,Moral,2024-02-29_12h36.19.724,MoralCondition_v2,2022.2.5,29.959898677194936,
7,0,7,0,3,0,3,0,,,,,,,,,,,,,,,,,,,,,,,,,,,,,,,,,,,,,,,,,,,,,,,,,,,,609.4859711999306,609.4859711999306,0.007355200010351837,0.09909789997618645,2.0,3.7595702999969944,,,,,,,,,,,,,,,670,Moral,2024-02-29_12h36.19.724,MoralCondition_v2,2022.2.5,29.959898677194936,
7,0,7,0,4,0,4,0,,,,,,,,,,,,,,,,,,,,,,,,,,,,,,,,,,,,,,,,,,,,,,,,,,,,613.2860318999738,613.2860318999738,0.006629699957557023,0.09923179994802922,3.0,6.3267967000138015,,,,,,,,,,,,,,,670,Moral,2024-02-29_12h36.19.724,MoralCondition_v2,2022.2.5,29.959898677194936,
7,0,7,0,5,0,5,0,,,,,,,,,,,,,,,,,,,,,,,,,,,,,,,,,,,,,,,,,,,,,,,,,,,,619.6526144999079,619.6526144999079,0.00659930007532239,0.09900729998480529,5.0,2.026856999960728,,,,,,,,,,,,,,,670,Moral,2024-02-29_12h36.19.724,MoralCondition_v2,2022.2.5,29.959898677194936,
7,0,7,0,6,0,6,0,,,,,,,,,,,,,,,,,,,,,,,,,,,,,,,,,,,,,,,,,,,,,,,,,,,,621.7191822999157,621.7191822999157,0.006552900071255863,0.09894499997608364,2.0,2.7268038999754936,,,,,,,,,,,,,,,670,Moral,2024-02-29_12h36.19.724,MoralCondition_v2,2022.2.5,29.959898677194936,
7,0,7,0,,,,,,,,,,,,,,,,,,,,,,,,,,,,,,,,,,,,,,,,,,,,,,,,,,,,,,,,,,,,,,624.48597899999,624.48597899999,0.0019617999205365777,0.0972368000075221,4.0,12.19631890009623,,,,,,,,,670,Moral,2024-02-29_12h36.19.724,MoralCondition_v2,2022.2.5,29.959898677194936,
8,0,8,0,0,0,0,0,,,,,,,,,,,,,,,,,,,,,,636.7193211999256,0.00025020004250109196,0.09763230010867119,642.7191257999511,6.030938900075853,642.9026203999529,642.9026203999529,0.07044890010729432,0.180978300049901,6.014287800062448,649.0024941000156,649.0024941000156,649.0024941000156,0.07339140004478395,0.1811754001537338,654.7024736999301,654.9024678999558,6.0142900000792,6.114070000126958,660.9025768999709,12.014414800098166,661.0357488999143,661.0357488999143,0.014405800146050751,0.11416160012595356,down,6.212104799924418,667.3024282999104,4.730001091957092e-05,0.0978023000061512,673.3191854999168,673.3191854999168,0.007886199979111552,0.11440359998960048,2.0,1.6742125999880955,,,,,,,661.0024239999475,661.0024239999475,648.9024629999185,648.9024629999185,,,,673.3191854999168,670,Moral,2024-02-29_12h36.19.724,MoralCondition_v2,2022.2.5,29.959898677194936,
8,0,8,0,1,0,1,0,,,,,,,,,,,,,,,,,,,,,,,,,,,,,,,,,,,,,,,,,,,,,,,,,,,,675.0190952999983,675.0190952999983,0.0072885999688878655,0.09762939997017384,2.0,4.091506500029936,,,,,,,,,,,,,,,670,Moral,2024-02-29_12h36.19.724,MoralCondition_v2,2022.2.5,29.959898677194936,
8,0,8,0,2,0,2,0,,,,,,,,,,,,,,,,,,,,,,,,,,,,,,,,,,,,,,,,,,,,,,,,,,,,679.1524066999555,679.1524066999555,0.007395099964924157,0.09787659998983145,4.0,7.024788800044917,,,,,,,,,,,,,,,670,Moral,2024-02-29_12h36.19.724,MoralCondition_v2,2022.2.5,29.959898677194936,
8,0,8,0,3,0,3,0,,,,,,,,,,,,,,,,,,,,,,,,,,,,,,,,,,,,,,,,,,,,,,,,,,,,686.2188720999984,686.2188720999984,0.006637500016950071,0.09917090006638318,2.0,1.126771799987182,,,,,,,,,,,,,,,670,Moral,2024-02-29_12h36.19.724,MoralCondition_v2,2022.2.5,29.959898677194936,
8,0,8,0,4,0,4,0,,,,,,,,,,,,,,,,,,,,,,,,,,,,,,,,,,,,,,,,,,,,,,,,,,,,687.385928099975,687.385928099975,0.0061153999995440245,0.09846600005403161,2.0,0.9268512000562623,,,,,,,,,,,,,,,670,Moral,2024-02-29_12h36.19.724,MoralCondition_v2,2022.2.5,29.959898677194936,
8,0,8,0,5,0,5,0,,,,,,,,,,,,,,,,,,,,,,,,,,,,,,,,,,,,,,,,,,,,,,,,,,,,688.3524997999193,688.3524997999193,0.006916900048963726,0.09906959999352694,5.0,19.226921299938112,,,,,,,,,,,,,,,670,Moral,2024-02-29_12h36.19.724,MoralCondition_v2,2022.2.5,29.959898677194936,
8,0,8,0,6,0,6,0,,,,,,,,,,,,,,,,,,,,,,,,,,,,,,,,,,,,,,,,,,,,,,,,,,,,707.6189793999074,707.6189793999074,0.005894999951124191,0.09896799991838634,5.0,1.8942841000389308,,,,,,,,,,,,,,,670,Moral,2024-02-29_12h36.19.724,MoralCondition_v2,2022.2.5,29.959898677194936,
8,0,8,0,,,,,,,,,,,,,,,,,,,,,,,,,,,,,,,,,,,,,,,,,,,,,,,,,,,,,,,,,,,,,,709.5525236999383,709.5525236999383,0.0006725999992340803,0.09927469992544502,3.0,13.76638639997691,,,,,,,,,670,Moral,2024-02-29_12h36.19.724,MoralCondition_v2,2022.2.5,29.959898677194936,
9,0,9,0,0,0,0,0,,,,,,,,,,,,,,,,,,,,,,723.3524762999732,0.00028709997422993183,0.09810840000864118,729.3521586999996,6.031380699947476,729.5355845999438,729.5355845999438,0.07016679993830621,0.18144269997719675,6.014676199993119,735.6185798000079,735.6185798000079,735.6185798000079,0.06609780003782362,0.16469400003552437,741.3188200999284,741.5521344000008,6.031359200016595,6.131686600041576,747.5521446999628,12.031400199979544,747.6854703999124,747.6854703999124,0.031439000042155385,0.13133180001750588,down,11.817784099956043,759.568772599916,5.2699935622513294e-05,0.09802359994500875,765.585359599907,765.585359599907,0.009927599923685193,0.11468819994479418,5.0,6.3721342999488115,,,,,,,747.6187994999345,747.6187994999345,735.5357061999384,735.5357061999384,,,,765.585359599907,670,Moral,2024-02-29_12h36.19.724,MoralCondition_v2,2022.2.5,29.959898677194936,
9,0,9,0,1,0,1,0,,,,,,,,,,,,,,,,,,,,,,,,,,,,,,,,,,,,,,,,,,,,,,,,,,,,771.9853357999818,771.9853357999818,0.007312700035981834,0.09718369995243847,2.0,1.291088700061664,,,,,,,,,,,,,,,670,Moral,2024-02-29_12h36.19.724,MoralCondition_v2,2022.2.5,29.959898677194936,
9,0,9,0,2,0,2,0,,,,,,,,,,,,,,,,,,,,,,,,,,,,,,,,,,,,,,,,,,,,,,,,,,,,773.3187776999548,773.3187776999548,0.006703000050038099,0.09798520000185817,5.0,6.492247299989685,,,,,,,,,,,,,,,670,Moral,2024-02-29_12h36.19.724,MoralCondition_v2,2022.2.5,29.959898677194936,
9,0,9,0,3,0,3,0,,,,,,,,,,,,,,,,,,,,,,,,,,,,,,,,,,,,,,,,,,,,,,,,,,,,779.8687799000181,779.8687799000181,0.007891500019468367,0.11408129998017102,2.0,1.1738106000702828,,,,,,,,,,,,,,,670,Moral,2024-02-29_12h36.19.724,MoralCondition_v2,2022.2.5,29.959898677194936,
9,0,9,0,4,0,4,0,,,,,,,,,,,,,,,,,,,,,,,,,,,,,,,,,,,,,,,,,,,,,,,,,,,,781.085735199973,781.085735199973,0.00851780001539737,0.11413710005581379,2.0,4.406249599996954,,,,,,,,,,,,,,,670,Moral,2024-02-29_12h36.19.724,MoralCondition_v2,2022.2.5,29.959898677194936,
9,0,9,0,5,0,5,0,,,,,,,,,,,,,,,,,,,,,,,,,,,,,,,,,,,,,,,,,,,,,,,,,,,,785.5187358999392,785.5187358999392,0.006206299993209541,0.09911919990554452,2.0,0.6604671999812126,,,,,,,,,,,,,,,670,Moral,2024-02-29_12h36.19.724,MoralCondition_v2,2022.2.5,29.959898677194936,
9,0,9,0,6,0,6,0,,,,,,,,,,,,,,,,,,,,,,,,,,,,,,,,,,,,,,,,,,,,,,,,,,,,786.2186352999415,786.2186352999415,0.00744810001924634,0.0978535000467673,3.0,8.291367900092155,,,,,,,,,,,,,,,670,Moral,2024-02-29_12h36.19.724,MoralCondition_v2,2022.2.5,29.959898677194936,
9,0,9,0,,,,,,,,,,,,,,,,,,,,,,,,,,,,,,,,,,,,,,,,,,,,,,,,,,,,,,,,,,,,,,794.5520963999443,794.5520963999443,0.0010851999977603555,0.09805979998782277,3.0,20.1986422999762,,,,,,,,,670,Moral,2024-02-29_12h36.19.724,MoralCondition_v2,2022.2.5,29.959898677194936,
10,0,10,0,0,0,0,0,,,,,,,,,,,,,,,,,,,,,,814.7853203999111,0.00025750009808689356,0.09839150006882846,820.768413499929,6.014696300029755,820.9518990999786,820.9518990999786,0.05348340002819896,0.1650890001328662,6.03153810009826,827.0854129999643,827.0854129999643,827.0854129999643,0.08862190006766468,0.198542500147596,832.785460599931,832.985226299963,6.031618800130673,6.131608500145376,838.9849840999814,12.031273400061764,839.1184605999151,839.1184605999151,0.03158620011527091,0.13150470016989857,down,4.129091499955393,843.3017797999782,4.329998046159744e-05,0.09775319998152554,849.3183957999572,849.3183957999572,0.010799000039696693,0.11443640000652522,2.0,3.904713499941863,,,,,,,839.0850650999928,839.0850650999928,826.9519706999417,826.9519706999417,6.098030399996787,,,849.3183957999572,670,Moral,2024-02-29_12h36.19.724,MoralCondition_v2,2022.2.5,29.959898677194936,
10,0,10,0,1,0,1,0,,,,,,,,,,,,,,,,,,,,,,,,,,,,,,,,,,,,,,,,,,,,,,,,,,,,853.2686056999955,853.2686056999955,0.00803319993428886,0.11409049993380904,2.0,0.8403489000629634,,,,,,,,,,,,,,,670,Moral,2024-02-29_12h36.19.724,MoralCondition_v2,2022.2.5,29.959898677194936,
10,0,10,0,2,0,2,0,,,,,,,,,,,,,,,,,,,,,,,,,,,,,,,,,,,,,,,,,,,,,,,,,,,,854.1351209999993,854.1351209999993,0.007007199921645224,0.09926299995277077,2.0,0.8931861000601202,,,,,,,,,,,,,,,670,Moral,2024-02-29_12h36.19.724,MoralCondition_v2,2022.2.5,29.959898677194936,
10,0,10,0,3,0,3,0,,,,,,,,,,,,,,,,,,,,,,,,,,,,,,,,,,,,,,,,,,,,,,,,,,,,855.0852200000081,855.0852200000081,0.008040099986828864,0.1143877999857068,4.0,6.307859800057486,,,,,,,,,,,,,,,670,Moral,2024-02-29_12h36.19.724,MoralCondition_v2,2022.2.5,29.959898677194936,
10,0,10,0,4,0,4,0,,,,,,,,,,,,,,,,,,,,,,,,,,,,,,,,,,,,,,,,,,,,,,,,,,,,861.4183492999291,861.4183492999291,0.0069284000201150775,0.09914289996959269,2.0,0.9934616000391543,,,,,,,,,,,,,,,670,Moral,2024-02-29_12h36.19.724,MoralCondition_v2,2022.2.5,29.959898677194936,
10,0,10,0,5,0,5,0,,,,,,,,,,,,,,,,,,,,,,,,,,,,,,,,,,,,,,,,,,,,,,,,,,,,862.4517342000036,862.4517342000036,0.006765599944628775,0.09817989997100085,4.0,4.559046900016256,,,,,,,,,,,,,,,670,Moral,2024-02-29_12h36.19.724,MoralCondition_v2,2022.2.5,29.959898677194936,
10,0,10,0,6,0,6,0,,,,,,,,,,,,,,,,,,,,,,,,,,,,,,,,,,,,,,,,,,,,,,,,,,,,867.0517411999172,867.0517411999172,0.00758430000860244,0.09771500003989786,2.0,1.0245360000990331,,,,,,,,,,,,,,,670,Moral,2024-02-29_12h36.19.724,MoralCondition_v2,2022.2.5,29.959898677194936,
10,0,10,0,,,,,,,,,,,,,,,,,,,,,,,,,,,,,,,,,,,,,,,,,,,,,,,,,,,,,,,,,,,,,,868.11863729998,868.11863729998,0.0013299999991431832,0.09785419993568212,3.0,5.7976225999882445,,,,,,,,,670,Moral,2024-02-29_12h36.19.724,MoralCondition_v2,2022.2.5,29.959898677194936,
11,0,11,0,0,0,0,0,,,,,,,,,,,,,,,,,,,,,,873.9519271999598,0.000278900028206408,0.09762430004775524,879.9516635999316,6.031097900005989,880.1515424000099,880.1515424000099,0.09434700012207031,0.19769250007811934,6.031013900064863,886.2686048999894,886.2686048999894,886.2686048999894,0.10216810007113963,0.21448310010600835,891.9682585999835,892.135107500013,6.0145308000501245,6.114640700048767,898.1349587999284,12.014380100066774,898.268215399934,898.268215399934,0.014389200136065483,0.11430080013815314,down,4.86763350002002,903.201533399988,4.75000124424696e-05,0.0979610999347642,909.2015789999859,909.2015789999859,0.007682599942199886,0.09779269993305206,2.0,3.3579644999699667,,,,,,,,,886.151625999948,886.151625999948,,,,909.2015789999859,670,Moral,2024-02-29_12h36.19.724,MoralCondition_v2,2022.2.5,29.959898677194936,
11,0,11,0,1,0,1,0,,,,,,,,,,,,,,,,,,,,,,,,,,,,,,,,,,,,,,,,,,,,,,,,,,,,912.6183157999767,912.6183157999767,0.00843200006056577,0.11464160005562007,4.0,3.4403126999968663,,,,,,,,,,,,,,,670,Moral,2024-02-29_12h36.19.724,MoralCondition_v2,2022.2.5,29.959898677194936,
11,0,11,0,2,0,2,0,,,,,,,,,,,,,,,,,,,,,,,,,,,,,,,,,,,,,,,,,,,,,,,,,,,,916.0849175999174,916.0849175999174,0.006696299999020994,0.09930870006792247,2.0,0.8937124999938533,,,,,,,,,,,,,,,670,Moral,2024-02-29_12h36.19.724,MoralCondition_v2,2022.2.5,29.959898677194936,
11,0,11,0,3,0,3,0,,,,,,,,,,,,,,,,,,,,,,,,,,,,,,,,,,,,,,,,,,,,,,,,,,,,917.018188899965,917.018188899965,0.0077133000595495105,0.09828979999292642,2.0,0.7248810000019148,,,,,,,,,,,,,,,670,Moral,2024-02-29_12h36.19.724,MoralCondition_v2,2022.2.5,29.959898677194936,
11,0,11,0,4,0,4,0,,,,,,,,,,,,,,,,,,,,,,,,,,,,,,,,,,,,,,,,,,,,,,,,,,,,917.7849656000035,917.7849656000035,0.008267100085504353,0.0972754000686109,2.0,0.7237247999291867,,,,,,,,,,,,,,,670,Moral,2024-02-29_12h36.19.724,MoralCondition_v2,2022.2.5,29.959898677194936,
11,0,11,0,5,0,5,0,,,,,,,,,,,,,,,,,,,,,,,,,,,,,,,,,,,,,,,,,,,,,,,,,,,,918.5683604999213,918.5683604999213,0.00988090003374964,0.1140190000878647,2.0,10.371742299990728,,,,,,,,,,,,,,,670,Moral,2024-02-29_12h36.19.724,MoralCondition_v2,2022.2.5,29.959898677194936,
11,0,11,0,6,0,6,0,,,,,,,,,,,,,,,,,,,,,,,,,,,,,,,,,,,,,,,,,,,,,,,,,,,,928.9684391999617,928.9684391999617,0.008000300033017993,0.09782130003441125,4.0,3.3912744000554085,,,,,,,,,,,,,,,670,Moral,2024-02-29_12h36.19.724,MoralCondition_v2,2022.2.5,29.959898677194936,
11,0,11,0,,,,,,,,,,,,,,,,,,,,,,,,,,,,,,,,,,,,,,,,,,,,,,,,,,,,,,,,,,,,,,932.4016754999757,932.4016754999757,0.0007652000058442354,0.09918959997594357,3.0,4.099410000024363,,,,,,,,,670,Moral,2024-02-29_12h36.19.724,MoralCondition_v2,2022.2.5,29.959898677194936,
12,0,12,0,0,0,0,0,,,,,,,,,,,,,,,,,,,,,,936.5349996999139,0.0002733999863266945,0.09795690001919866,942.5346922000172,6.031302700052038,942.7344805999892,942.7344805999892,0.09526019997429103,0.19760419998783618,6.03107450006064,948.8345859999536,948.8345859999536,948.8345859999536,0.08396250009536743,0.19804380007553846,954.534663099912,954.734666400007,6.031174600007944,6.131631400086917,960.7347681999672,12.031236900016665,960.867995699984,960.867995699984,0.031494000111706555,0.13090490002650768,down,4.451452999957837,965.3848340999102,5.250005051493645e-05,0.0976862000534311,971.4179761999985,971.4179761999985,0.025804499979130924,0.13081930007319897,2.0,1.6726599000394344,,,,,,,960.8346629999578,960.8346629999578,948.7347213999601,948.7347213999601,,,,,670,Moral,2024-02-29_12h36.19.724,MoralCondition_v2,2022.2.5,29.959898677194936,
12,0,12,0,1,0,1,0,,,,,,,,,,,,,,,,,,,,,,,,,,,,,,,,,,,,,,,,,,,,,,,,,,,,973.1349176999647,973.1349176999647,0.009989999933168292,0.11487980000674725,2.0,0.8392511000856757,,,,,,,,,,,,,,,670,Moral,2024-02-29_12h36.19.724,MoralCondition_v2,2022.2.5,29.959898677194936,
12,0,12,0,2,0,2,0,,,,,,,,,,,,,,,,,,,,,,,,,,,,,,,,,,,,,,,,,,,,,,,,,,,,974.0012541000033,974.0012541000033,0.0065623000264167786,0.0992429000325501,2.0,0.72672039992176,,,,,,,,,,,,,,,670,Moral,2024-02-29_12h36.19.724,MoralCondition_v2,2022.2.5,29.959898677194936,
12,0,12,0,3,0,3,0,,,,,,,,,,,,,,,,,,,,,,,,,,,,,,,,,,,,,,,,,,,,,,,,,,,,974.7680095999967,974.7680095999967,0.007536699995398521,0.09791300003416836,2.0,1.8913743000011891,,,,,,,,,,,,,,,670,Moral,2024-02-29_12h36.19.724,MoralCondition_v2,2022.2.5,29.959898677194936,
12,0,12,0,4,0,4,0,,,,,,,,,,,,,,,,,,,,,,,,,,,,,,,,,,,,,,,,,,,,,,,,,,,,976.7182828999357,976.7182828999357,0.007414499996230006,0.11420750000979751,2.0,0.7743522999808192,,,,,,,,,,,,,,,670,Moral,2024-02-29_12h36.19.724,MoralCondition_v2,2022.2.5,29.959898677194936,
12,0,12,0,5,0,5,0,,,,,,,,,,,,,,,,,,,,,,,,,,,,,,,,,,,,,,,,,,,,,,,,,,,,977.5181260999525,977.5181260999525,0.007754799909889698,0.09772249998059124,5.0,1.057453199988231,,,,,,,,,,,,,,,670,Moral,2024-02-29_12h36.19.724,MoralCondition_v2,2022.2.5,29.959898677194936,
12,0,12,0,6,0,6,0,,,,,,,,,,,,,,,,,,,,,,,,,,,,,,,,,,,,,,,,,,,,,,,,,,,,978.6179692000151,978.6179692000151,0.007373700034804642,0.09780889993999153,2.0,2.4247762999730185,,,,,,,,,,,,,,,670,Moral,2024-02-29_12h36.19.724,MoralCondition_v2,2022.2.5,29.959898677194936,
12,0,12,0,,,,,,,,,,,,,,,,,,,,,,,,,,,,,,,,,,,,,,,,,,,,,,,,,,,,,,,,,,,,,,981.0847283999901,981.0847283999901,0.0010649999603629112,0.09827989991754293,2.0,7.565289100049995,,,,,,,,,670,Moral,2024-02-29_12h36.19.724,MoralCondition_v2,2022.2.5,29.959898677194936,
13,0,13,0,0,0,0,0,,,,,,,,,,,,,,,,,,,,,,988.6849818999181,0.00013529998250305653,0.0991496000206098,994.6676427999046,5.999060199945234,994.8345230999403,994.8345230999403,0.042371800052933395,0.14944670000113547,6.015984800062142,1000.9676325999899,1000.9676325999899,1000.9676325999899,0.07461960008367896,0.1824532999889925,1006.6676892999094,1006.8679249999113,6.015966000035405,6.115765399998054,1012.8678323999047,12.015790100093,1013.0010927999392,1013.0010927999392,0.01622230000793934,0.11571840010583401,up,6.006730199907906,1019.0510865999386,4.7200010158121586e-05,0.09800520003773272,1025.0509324999293,1025.0509324999293,0.00527449999935925,0.09796140005346388,5.0,14.394014100078493,,,,,,,1012.9680240999442,1012.9680240999442,1000.8344884999096,1000.8344884999096,6.082322699949145,,,1025.0509324999293,670,Moral,2024-02-29_12h36.19.724,MoralCondition_v2,2022.2.5,29.959898677194936,
13,0,13,0,1,0,1,0,,,,,,,,,,,,,,,,,,,,,,,,,,,,,,,,,,,,,,,,,,,,,,,,,,,,1039.4843595999992,1039.4843595999992,0.006872800062410533,0.09933150000870228,2.0,1.1267682999605313,,,,,,,,,,,,,,,670,Moral,2024-02-29_12h36.19.724,MoralCondition_v2,2022.2.5,29.959898677194936,
13,0,13,0,2,0,2,0,,,,,,,,,,,,,,,,,,,,,,,,,,,,,,,,,,,,,,,,,,,,,,,,,,,,1040.6508918999461,1040.6508918999461,0.007483999943360686,0.09770040004514158,2.0,0.7247631999198347,,,,,,,,,,,,,,,670,Moral,2024-02-29_12h36.19.724,MoralCondition_v2,2022.2.5,29.959898677194936,
13,0,13,0,3,0,3,0,,,,,,,,,,,,,,,,,,,,,,,,,,,,,,,,,,,,,,,,,,,,,,,,,,,,1041.434352900018,1041.434352900018,0.00900069996714592,0.11399049998726696,2.0,0.6396943000145257,,,,,,,,,,,,,,,670,Moral,2024-02-29_12h36.19.724,MoralCondition_v2,2022.2.5,29.959898677194936,
13,0,13,0,4,0,4,0,,,,,,,,,,,,,,,,,,,,,,,,,,,,,,,,,,,,,,,,,,,,,,,,,,,,1042.1008436999982,1042.1008436999982,0.007539500016719103,0.09759990009479225,2.0,0.7910800999961793,,,,,,,,,,,,,,,670,Moral,2024-02-29_12h36.19.724,MoralCondition_v2,2022.2.5,29.959898677194936,
13,0,13,0,5,0,5,0,,,,,,,,,,,,,,,,,,,,,,,,,,,,,,,,,,,,,,,,,,,,,,,,,,,,1042.9344619999174,1042.9344619999174,0.0075246000196784735,0.09791849995963275,2.0,1.257936600013636,,,,,,,,,,,,,,,670,Moral,2024-02-29_12h36.19.724,MoralCondition_v2,2022.2.5,29.959898677194936,
13,0,13,0,6,0,6,0,,,,,,,,,,,,,,,,,,,,,,,,,,,,,,,,,,,,,,,,,,,,,,,,,,,,1044.2341654999182,1044.2341654999182,0.006832099985331297,0.0974601999623701,5.0,1.0918106000171974,,,,,,,,,,,,,,,670,Moral,2024-02-29_12h36.19.724,MoralCondition_v2,2022.2.5,29.959898677194936,
13,0,13,0,,,,,,,,,,,,,,,,,,,,,,,,,,,,,,,,,,,,,,,,,,,,,,,,,,,,,,,,,,,,,,1045.3678081999533,1045.3678081999533,0.001254800008609891,0.09804429998621345,2.0,6.930999499978498,,,,,,,,,670,Moral,2024-02-29_12h36.19.724,MoralCondition_v2,2022.2.5,29.959898677194936,
14,0,14,0,0,0,0,0,,,,,,,,,,,,,,,,,,,,,,1052.3345169000095,0.00026759994216263294,0.09778269997332245,1058.3342528999783,6.031012999941595,1058.5343338999664,1058.5343338999664,0.09294669993687421,0.19790030003059655,6.031080799992196,1064.634124299977,1064.634124299977,1064.634124299977,0.08904879994224757,0.19760489999316633,1070.3343394999392,1070.5341916999314,6.0309552999679,6.130933100008406,1076.5341994999908,12.030956399976276,1076.6675002999837,1076.6675002999837,0.031104000052437186,0.13090430002193898,up,0.4440101000946015,1077.1675355000189,5.370005965232849e-05,0.09801780001726002,1083.184256299981,1083.184256299981,0.02573730004951358,0.11466750002000481,6.0,1.7897841000230983,,,,,,,1076.6341711999848,1076.6341711999848,1064.5341980999801,1064.5341980999801,,,,,670,Moral,2024-02-29_12h36.19.724,MoralCondition_v2,2022.2.5,29.959898677194936,
14,0,14,0,1,0,1,0,,,,,,,,,,,,,,,,,,,,,,,,,,,,,,,,,,,,,,,,,,,,,,,,,,,,1085.0175603999523,1085.0175603999523,0.007908100029453635,0.09800320002250373,2.0,2.057875799946487,,,,,,,,,,,,,,,670,Moral,2024-02-29_12h36.19.724,MoralCondition_v2,2022.2.5,29.959898677194936,
14,0,14,0,2,0,2,0,,,,,,,,,,,,,,,,,,,,,,,,,,,,,,,,,,,,,,,,,,,,,,,,,,,,1087.1174665999133,1087.1174665999133,0.007000799989327788,0.09819699998479337,2.0,0.9258253999287263,,,,,,,,,,,,,,,670,Moral,2024-02-29_12h36.19.724,MoralCondition_v2,2022.2.5,29.959898677194936,
14,0,14,0,3,0,3,0,,,,,,,,,,,,,,,,,,,,,,,,,,,,,,,,,,,,,,,,,,,,,,,,,,,,1088.0841478999937,1088.0841478999937,0.007573299924843013,0.09800769994035363,5.0,1.5580780000891536,,,,,,,,,,,,,,,670,Moral,2024-02-29_12h36.19.724,MoralCondition_v2,2022.2.5,29.959898677194936,
14,0,14,0,4,0,4,0,,,,,,,,,,,,,,,,,,,,,,,,,,,,,,,,,,,,,,,,,,,,,,,,,,,,1089.6841427999316,1089.6841427999316,0.00686269998550415,0.09906100004445761,2.0,1.526553700095974,,,,,,,,,,,,,,,670,Moral,2024-02-29_12h36.19.724,MoralCondition_v2,2022.2.5,29.959898677194936,
14,0,14,0,5,0,5,0,,,,,,,,,,,,,,,,,,,,,,,,,,,,,,,,,,,,,,,,,,,,,,,,,,,,1091.250753799919,1091.250753799919,0.006937400088645518,0.09897630009800196,2.0,0.4931374000152573,,,,,,,,,,,,,,,670,Moral,2024-02-29_12h36.19.724,MoralCondition_v2,2022.2.5,29.959898677194936,
14,0,14,0,6,0,6,0,,,,,,,,,,,,,,,,,,,,,,,,,,,,,,,,,,,,,,,,,,,,,,,,,,,,1091.8010529999156,1091.8010529999156,0.008013900020159781,0.11436919996049255,2.0,0.5073468999471515,,,,,,,,,,,,,,,670,Moral,2024-02-29_12h36.19.724,MoralCondition_v2,2022.2.5,29.959898677194936,
14,0,14,0,,,,,,,,,,,,,,,,,,,,,,,,,,,,,,,,,,,,,,,,,,,,,,,,,,,,,,,,,,,,,,1092.3343977999175,1092.3343977999175,0.0006654999451711774,0.09921749995555729,6.0,1.9664723000023514,,,,,,,,,670,Moral,2024-02-29_12h36.19.724,MoralCondition_v2,2022.2.5,29.959898677194936,
15,0,15,0,0,0,0,0,,,,,,,,,,,,,,,,,,,,,,1094.3341091999318,0.00041229999624192715,0.09754280000925064,1100.3340476999292,6.03071620000992,1100.5344131999882,1100.5344131999882,0.08677649998571724,0.19755589996930212,6.030813700053841,1106.600513799931,1106.600513799931,1106.600513799931,0.0659518000902608,0.1640202000271529,1112.3008721999358,1112.534086599946,6.030783100053668,6.1308221000945196,1118.5341097000055,12.030804900103249,1118.6506474999478,1118.6506474999478,0.014092900091782212,0.1139454001095146,down,2.4132321999641135,1121.117314999923,4.509999416768551e-05,0.09804880002047867,1127.1338351999875,1127.1338351999875,0.025531899998895824,0.11447339993901551,2.0,5.9569504000246525,,,,,,,1118.5838753000135,1118.5838753000135,1106.5172253999626,1106.5172253999626,,,,,670,Moral,2024-02-29_12h36.19.724,MoralCondition_v2,2022.2.5,29.959898677194936,
15,0,15,0,1,0,1,0,,,,,,,,,,,,,,,,,,,,,,,,,,,,,,,,,,,,,,,,,,,,,,,,,,,,1133.134102199925,1133.134102199925,0.007495699916034937,0.09896779991686344,5.0,4.159233800019138,,,,,,,,,,,,,,,670,Moral,2024-02-29_12h36.19.724,MoralCondition_v2,2022.2.5,29.959898677194936,
15,0,15,0,2,0,2,0,,,,,,,,,,,,,,,,,,,,,,,,,,,,,,,,,,,,,,,,,,,,,,,,,,,,1137.3339614999713,1137.3339614999713,0.006643799948506057,0.09922119998373091,5.0,1.0272519000573084,,,,,,,,,,,,,,,670,Moral,2024-02-29_12h36.19.724,MoralCondition_v2,2022.2.5,29.959898677194936,
15,0,15,0,3,0,3,0,,,,,,,,,,,,,,,,,,,,,,,,,,,,,,,,,,,,,,,,,,,,,,,,,,,,1138.4005100999493,1138.4005100999493,0.006518499925732613,0.09931269998196512,2.0,1.0269137000432238,,,,,,,,,,,,,,,670,Moral,2024-02-29_12h36.19.724,MoralCondition_v2,2022.2.5,29.959898677194936,
15,0,15,0,4,0,4,0,,,,,,,,,,,,,,,,,,,,,,,,,,,,,,,,,,,,,,,,,,,,,,,,,,,,1139.4840089000063,1139.4840089000063,0.007566700107418001,0.11468380002770573,2.0,1.1080667999340221,,,,,,,,,,,,,,,670,Moral,2024-02-29_12h36.19.724,MoralCondition_v2,2022.2.5,29.959898677194936,
15,0,15,0,5,0,5,0,,,,,,,,,,,,,,,,,,,,,,,,,,,,,,,,,,,,,,,,,,,,,,,,,,,,1140.6173783999402,1140.6173783999402,0.0079058000119403,0.09728480002377182,2.0,0.9239447000436485,,,,,,,,,,,,,,,670,Moral,2024-02-29_12h36.19.724,MoralCondition_v2,2022.2.5,29.959898677194936,
15,0,15,0,6,0,6,0,,,,,,,,,,,,,,,,,,,,,,,,,,,,,,,,,,,,,,,,,,,,,,,,,,,,1141.583806199953,1141.583806199953,0.00728949997574091,0.09802109992597252,2.0,0.8918638000031933,,,,,,,,,,,,,,,670,Moral,2024-02-29_12h36.19.724,MoralCondition_v2,2022.2.5,29.959898677194936,
15,0,15,0,,,,,,,,,,,,,,,,,,,,,,,,,,,,,,,,,,,,,,,,,,,,,,,,,,,,,,,,,,,,,,1142.5174619000172,1142.5174619000172,0.0007184999994933605,0.09925890003796667,3.0,7.766173499985598,,,,,,,,,670,Moral,2024-02-29_12h36.19.724,MoralCondition_v2,2022.2.5,29.959898677194936,
16,0,16,0,0,0,0,0,,,,,,,,,,,,,,,,,,,,,,1150.3172072999878,0.0001870999112725258,0.09816229995340109,1156.317188899964,6.031595699954778,1156.5006265999982,1156.5006265999982,0.07491339999251068,0.18189909995999187,6.014810299966484,1162.60063120001,1162.60063120001,1162.60063120001,0.0679622000316158,0.18171140004415065,1168.3004963999847,1168.500474600005,6.014815100003034,6.115083600045182,1174.5004501999356,12.014813699992374,1174.616871099919,1174.616871099919,0.014498600037768483,0.114718500059098,up,1.6547419000416994,1176.333855999983,3.860006108880043e-05,0.09808520006481558,1182.3672481999965,1182.3672481999965,0.02585130010265857,0.13149520009756088,2.0,6.940253900014795,,,,,,,1174.60020049999,1174.60020049999,1162.483635099954,1162.483635099954,,,,,670,Moral,2024-02-29_12h36.19.724,MoralCondition_v2,2022.2.5,29.959898677194936,
16,0,16,0,1,0,1,0,,,,,,,,,,,,,,,,,,,,,,,,,,,,,,,,,,,,,,,,,,,,,,,,,,,,1189.3506409999682,1189.3506409999682,0.007325400016270578,0.11393890006002039,2.0,0.5742305000312626,,,,,,,,,,,,,,,670,Moral,2024-02-29_12h36.19.724,MoralCondition_v2,2022.2.5,29.959898677194936,
16,0,16,0,2,0,2,0,,,,,,,,,,,,,,,,,,,,,,,,,,,,,,,,,,,,,,,,,,,,,,,,,,,,1189.9504148999695,1189.9504148999695,0.00766590004786849,0.09773370006587356,2.0,0.557716800016351,,,,,,,,,,,,,,,670,Moral,2024-02-29_12h36.19.724,MoralCondition_v2,2022.2.5,29.959898677194936,
16,0,16,0,3,0,3,0,,,,,,,,,,,,,,,,,,,,,,,,,,,,,,,,,,,,,,,,,,,,,,,,,,,,1190.5503317000112,1190.5503317000112,0.007835700060240924,0.09769690001849085,2.0,1.3907842000480741,,,,,,,,,,,,,,,670,Moral,2024-02-29_12h36.19.724,MoralCondition_v2,2022.2.5,29.959898677194936,
16,0,16,0,4,0,4,0,,,,,,,,,,,,,,,,,,,,,,,,,,,,,,,,,,,,,,,,,,,,,,,,,,,,1191.9837617999874,1191.9837617999874,0.007700700080022216,0.09763760003261268,2.0,0.8910275999223813,,,,,,,,,,,,,,,670,Moral,2024-02-29_12h36.19.724,MoralCondition_v2,2022.2.5,29.959898677194936,
16,0,16,0,5,0,5,0,,,,,,,,,,,,,,,,,,,,,,,,,,,,,,,,,,,,,,,,,,,,,,,,,,,,1192.9170722999843,1192.9170722999843,0.00621669995598495,0.09913210000377148,6.0,1.3270443000365049,,,,,,,,,,,,,,,670,Moral,2024-02-29_12h36.19.724,MoralCondition_v2,2022.2.5,29.959898677194936,
16,0,16,0,6,0,6,0,,,,,,,,,,,,,,,,,,,,,,,,,,,,,,,,,,,,,,,,,,,,,,,,,,,,1194.2838215999072,1194.2838215999072,0.007394799962639809,0.09770579996984452,2.0,1.257884000078775,,,,,,,,,,,,,,,670,Moral,2024-02-29_12h36.19.724,MoralCondition_v2,2022.2.5,29.959898677194936,
16,0,16,0,,,,,,,,,,,,,,,,,,,,,,,,,,,,,,,,,,,,,,,,,,,,,,,,,,,,,,,,,,,,,,1195.5837868999224,1195.5837868999224,0.000700599979609251,0.0992929000640288,6.0,4.299679899937473,,,,,,,,,670,Moral,2024-02-29_12h36.19.724,MoralCondition_v2,2022.2.5,29.959898677194936,
17,0,17,0,0,0,0,0,,,,,,,,,,,,,,,,,,,,,,1199.9173479999881,0.0003208999987691641,0.09808269992936403,1205.9336020000046,6.014652999932878,1206.100243999972,1206.100243999972,0.08306039997842163,0.18141949991695583,6.014673199970275,1212.2000915999524,1212.2000915999524,1212.2000915999524,0.07612019998487085,0.18129169999156147,1217.900274500018,1218.100250999909,6.014708300004713,6.114611399942078,1224.1002510999097,12.01469320000615,1224.2335561999353,1224.2335561999353,0.014649200020357966,0.11462070001289248,down,8.110327099915594,1232.4001738999505,5.110003985464573e-05,0.09790950000751764,1238.4336786000058,1238.4336786000058,0.02565540000796318,0.13131870003417134,5.0,2.1066357999807224,,,,,,,1224.2002666000044,1224.2002666000044,1212.100242299959,1212.100242299959,,,,,670,Moral,2024-02-29_12h36.19.724,MoralCondition_v2,2022.2.5,29.959898677194936,
17,0,17,0,1,0,1,0,,,,,,,,,,,,,,,,,,,,,,,,,,,,,,,,,,,,,,,,,,,,,,,,,,,,1240.566995900008,1240.566995900008,0.007895400049164891,0.0986030000494793,2.0,6.458290999988094,,,,,,,,,,,,,,,670,Moral,2024-02-29_12h36.19.724,MoralCondition_v2,2022.2.5,29.959898677194936,
17,0,17,0,2,0,2,0,,,,,,,,,,,,,,,,,,,,,,,,,,,,,,,,,,,,,,,,,,,,,,,,,,,,1247.0669375999132,1247.0669375999132,0.007611899985931814,0.09766680002212524,5.0,1.2910943999886513,,,,,,,,,,,,,,,670,Moral,2024-02-29_12h36.19.724,MoralCondition_v2,2022.2.5,29.959898677194936,
17,0,17,0,3,0,3,0,,,,,,,,,,,,,,,,,,,,,,,,,,,,,,,,,,,,,,,,,,,,,,,,,,,,1248.4000163999153,1248.4000163999153,0.00785529997665435,0.09816219995263964,2.0,0.8576952000148594,,,,,,,,,,,,,,,670,Moral,2024-02-29_12h36.19.724,MoralCondition_v2,2022.2.5,29.959898677194936,
17,0,17,0,4,0,4,0,,,,,,,,,,,,,,,,,,,,,,,,,,,,,,,,,,,,,,,,,,,,,,,,,,,,1249.300288099912,1249.300288099912,0.007622899953275919,0.0983544000191614,2.0,2.4247998000355437,,,,,,,,,,,,,,,670,Moral,2024-02-29_12h36.19.724,MoralCondition_v2,2022.2.5,29.959898677194936,
17,0,17,0,5,0,5,0,,,,,,,,,,,,,,,,,,,,,,,,,,,,,,,,,,,,,,,,,,,,,,,,,,,,1251.7668460999848,1251.7668460999848,0.0075032999739050865,0.09780180000234395,2.0,2.7580291000194848,,,,,,,,,,,,,,,670,Moral,2024-02-29_12h36.19.724,MoralCondition_v2,2022.2.5,29.959898677194936,
17,0,17,0,6,0,6,0,,,,,,,,,,,,,,,,,,,,,,,,,,,,,,,,,,,,,,,,,,,,,,,,,,,,1254.5667528999038,1254.5667528999038,0.007221299922093749,0.09775359998457134,4.0,5.8247431999770924,,,,,,,,,,,,,,,670,Moral,2024-02-29_12h36.19.724,MoralCondition_v2,2022.2.5,29.959898677194936,
17,0,17,0,,,,,,,,,,,,,,,,,,,,,,,,,,,,,,,,,,,,,,,,,,,,,,,,,,,,,,,,,,,,,,1260.4337085000006,1260.4337085000006,0.0014628999633714557,0.09812800004146993,3.0,9.964412300032564,,,,,,,,,670,Moral,2024-02-29_12h36.19.724,MoralCondition_v2,2022.2.5,29.959898677194936,
18,0,18,0,0,0,0,0,,,,,,,,,,,,,,,,,,,,,,1270.4336668999167,0.00032840005587786436,0.09779180004261434,1276.450031299959,6.014365800074302,1276.6167129999958,1276.6167129999958,0.07773770007770509,0.18134000001009554,6.014321900089271,1282.716642000014,1282.716642000014,1282.716642000014,0.07045950007159263,0.1812777001177892,1288.4166247999528,1288.6166314999573,6.014378800056875,6.114452300127596,1294.61661129992,12.01436220004689,1294.7499453999335,1294.7499453999335,0.014479300123639405,0.11441900010686368,up,1.0172006000066176,1295.8165402999148,2.329994458705187e-05,0.09927350003272295,1301.8499136000173,1301.8499136000173,0.027021200046874583,0.1325506999855861,4.0,6.473231100011617,,,,,,,1294.7165834999178,1294.7165834999178,1282.6166122999275,1282.6166122999275,,,,,670,Moral,2024-02-29_12h36.19.724,MoralCondition_v2,2022.2.5,29.959898677194936,
18,0,18,0,1,0,1,0,,,,,,,,,,,,,,,,,,,,,,,,,,,,,,,,,,,,,,,,,,,,,,,,,,,,1308.3499026999343,1308.3499026999343,0.006454000016674399,0.09907950006891042,2.0,2.226847799960524,,,,,,,,,,,,,,,670,Moral,2024-02-29_12h36.19.724,MoralCondition_v2,2022.2.5,29.959898677194936,
18,0,18,0,2,0,2,0,,,,,,,,,,,,,,,,,,,,,,,,,,,,,,,,,,,,,,,,,,,,,,,,,,,,1310.6166408999125,1310.6166408999125,0.008678099955432117,0.09905869991052896,3.0,3.058153999969363,,,,,,,,,,,,,,,670,Moral,2024-02-29_12h36.19.724,MoralCondition_v2,2022.2.5,29.959898677194936,
18,0,18,0,3,0,3,0,,,,,,,,,,,,,,,,,,,,,,,,,,,,,,,,,,,,,,,,,,,,,,,,,,,,1313.7165259999456,1313.7165259999456,0.007566699991002679,0.09802530007436872,3.0,2.658114999998361,,,,,,,,,,,,,,,670,Moral,2024-02-29_12h36.19.724,MoralCondition_v2,2022.2.5,29.959898677194936,
18,0,18,0,4,0,4,0,,,,,,,,,,,,,,,,,,,,,,,,,,,,,,,,,,,,,,,,,,,,,,,,,,,,1316.433420300018,1316.433420300018,0.008651599986478686,0.11484789999667555,2.0,1.7739057999569923,,,,,,,,,,,,,,,670,Moral,2024-02-29_12h36.19.724,MoralCondition_v2,2022.2.5,29.959898677194936,
18,0,18,0,5,0,5,0,,,,,,,,,,,,,,,,,,,,,,,,,,,,,,,,,,,,,,,,,,,,,,,,,,,,1318.249827499967,1318.249827499967,0.008884100010618567,0.11414980003610253,2.0,2.4395105000585318,,,,,,,,,,,,,,,670,Moral,2024-02-29_12h36.19.724,MoralCondition_v2,2022.2.5,29.959898677194936,
18,0,18,0,6,0,6,0,,,,,,,,,,,,,,,,,,,,,,,,,,,,,,,,,,,,,,,,,,,,,,,,,,,,1320.7334210999543,1320.7334210999543,0.008933399920351803,0.11451629991643131,2.0,3.27329689997714,,,,,,,,,,,,,,,670,Moral,2024-02-29_12h36.19.724,MoralCondition_v2,2022.2.5,29.959898677194936,
18,0,18,0,,,,,,,,,,,,,,,,,,,,,,,,,,,,,,,,,,,,,,,,,,,,,,,,,,,,,,,,,,,,,,1324.033155699959,1324.033155699959,0.00105339998845011,0.09811299992725253,4.0,7.231820699991658,,,,,,,,,670,Moral,2024-02-29_12h36.19.724,MoralCondition_v2,2022.2.5,29.959898677194936,
19,0,19,0,0,0,0,0,,,,,,,,,,,,,,,,,,,,,,1331.3001259999583,0.00040060002356767654,0.09752850001677871,1337.299740999937,6.030739200068638,1337.4996679999167,1337.4996679999167,0.09185540000908077,0.19771310000214726,6.030807000002824,1343.5996056000004,1343.5996056000004,1343.5996056000004,0.08448340010363609,0.19740120007190853,1349.2998841999797,1349.4997023999458,6.030725800083019,6.130620600073598,1355.4996899999678,12.030688500031829,1355.6329796999926,1355.6329796999926,0.030854100128635764,0.13060960010625422,up,16.006273000035435,1371.6829515999416,4.279997665435076e-05,0.09802639996632934,1377.682928299997,1377.682928299997,0.005886600003577769,0.09793469996657223,4.0,6.026750099961646,,,,,,,1355.5996650999878,1355.5996650999878,1343.4996811000165,1343.4996811000165,,,,1377.682928299997,670,Moral,2024-02-29_12h36.19.724,MoralCondition_v2,2022.2.5,29.959898677194936,
19,0,19,0,1,0,1,0,,,,,,,,,,,,,,,,,,,,,,,,,,,,,,,,,,,,,,,,,,,,,,,,,,,,1383.7495807999512,1383.7495807999512,0.006999599980190396,0.09794669994153082,2.0,1.9920829000184312,,,,,,,,,,,,,,,670,Moral,2024-02-29_12h36.19.724,MoralCondition_v2,2022.2.5,29.959898677194936,
19,0,19,0,2,0,2,0,,,,,,,,,,,,,,,,,,,,,,,,,,,,,,,,,,,,,,,,,,,,,,,,,,,,1385.7828633999452,1385.7828633999452,0.008737399941310287,0.09743789990898222,4.0,3.9895866999868304,,,,,,,,,,,,,,,670,Moral,2024-02-29_12h36.19.724,MoralCondition_v2,2022.2.5,29.959898677194936,
19,0,19,0,3,0,3,0,,,,,,,,,,,,,,,,,,,,,,,,,,,,,,,,,,,,,,,,,,,,,,,,,,,,1389.8162942999043,1389.8162942999043,0.007973700063303113,0.09739520004950464,2.0,1.1569433000404388,,,,,,,,,,,,,,,670,Moral,2024-02-29_12h36.19.724,MoralCondition_v2,2022.2.5,29.959898677194936,
19,0,19,0,4,0,4,0,,,,,,,,,,,,,,,,,,,,,,,,,,,,,,,,,,,,,,,,,,,,,,,,,,,,1391.0163068999536,1391.0163068999536,0.006629300070926547,0.09925860003568232,2.0,1.393671500030905,,,,,,,,,,,,,,,670,Moral,2024-02-29_12h36.19.724,MoralCondition_v2,2022.2.5,29.959898677194936,
19,0,19,0,5,0,5,0,,,,,,,,,,,,,,,,,,,,,,,,,,,,,,,,,,,,,,,,,,,,,,,,,,,,1392.4663949999958,1392.4663949999958,0.007675700006075203,0.11440160009078681,2.0,2.0747394000645727,,,,,,,,,,,,,,,670,Moral,2024-02-29_12h36.19.724,MoralCondition_v2,2022.2.5,29.959898677194936,
19,0,19,0,6,0,6,0,,,,,,,,,,,,,,,,,,,,,,,,,,,,,,,,,,,,,,,,,,,,,,,,,,,,1394.5830706999404,1394.5830706999404,0.007577299955300987,0.11391119996551424,5.0,1.7745600000489503,,,,,,,,,,,,,,,670,Moral,2024-02-29_12h36.19.724,MoralCondition_v2,2022.2.5,29.959898677194936,
19,0,19,0,,,,,,,,,,,,,,,,,,,,,,,,,,,,,,,,,,,,,,,,,,,,,,,,,,,,,,,,,,,,,,1396.3827927999664,1396.3827927999664,0.0015721999807283282,0.09747350006364286,3.0,8.597335899947211,,,,,,,,,670,Moral,2024-02-29_12h36.19.724,MoralCondition_v2,2022.2.5,29.959898677194936,
