loop.thisRepN,loop.thisTrialN,loop.thisN,loop.thisIndex,evaluate_all_emotions.thisRepN,evaluate_all_emotions.thisTrialN,evaluate_all_emotions.thisN,evaluate_all_emotions.thisIndex,sync_beep_1.started,p_port.started,p_port.stopped,sync_beep_1.stopped,sync_beep_2.started,sync_beep_2.stopped,sync_beep_3.started,sync_beep_3.stopped,sync_beep_4.started,sync_beep_4.stopped,baseline.started,p_port_2.started,p_port_2.stopped,baseline.stopped,p_port_3.started,Game_Start_Text.started,p_port_4.started,p_port_4.stopped,key_resp.started,key_resp.keys,key_resp.rt,fixation_cross.started,p_port_5.started,p_port_5.stopped,fixation_cross.stopped,p_port_6.started,player_image_intro.started,player_name_intro.started,p_port_7.started,p_port_7.stopped,p_port_8.started,player_image_offer.started,player_name_offer.started,proposed_split.started,p_port_9.started,p_port_9.stopped,proposed_split.stopped,accept_reject.started,p_port_15.started,p_port_15.stopped,accept_reject.stopped,p_port_10.started,player_image_offer.stopped,player_name_offer.stopped,arrow_instructions.started,offer_choice.started,p_port_11.started,p_port_11.stopped,offer_choice.keys,offer_choice.rt,Instructions_Affinity_Score.started,p_port_12.started,p_port_12.stopped,Emotion_Image.started,AffinityScore.started,p_port_13.started,p_port_13.stopped,AffinityScore.response,AffinityScore.rt,Instruction.started,Moral_Disgust_Score.started,p_port_14.started,p_port_14.stopped,Moral_Disgust_Score.response,Moral_Disgust_Score.rt,Instructions_Affinity_Score.stopped,p_port_6.stopped,player_image_intro.stopped,player_name_intro.stopped,p_port_8.stopped,p_port_10.stopped,participant,session,date,expName,psychopyVersion,frameRate,
,,,,,,,,29.666081939823925,0.0007949001155793667,0.10086010000668466,29.98339099995792,30.23322272999212,30.549964299891144,30.833094930043444,31.133179999887943,31.433192629832774,31.749785299878567,31.749785299878567,0.017572900047525764,0.11760979983955622,51.74992659990676,20.01772050000727,51.88307039998472,0.01780859986320138,0.11764649976976216,52.34991579991765,space,12.008435999974608,,,,,,,,,,,,,,,,,,,,,,,,,,,,,,,,,,,,,,,,,,,,,,,,,,,671,Moral,2024-03-15_17h16.06.447,MoralCondition_v2,2022.2.5,30.00032700954687,
0,0,0,0,0,0,0,0,,,,,,,,,,,,,,,,,,,,,,64.3999860000331,0.003263600170612335,0.09847049997188151,70.41654170001857,6.015220600180328,70.61651670001447,70.61651670001447,0.08214630000293255,0.21511249989271164,6.015067999949679,76.6997978000436,76.6997978000436,76.6997978000436,0.07399089983664453,0.19847949990071356,82.39990059984848,82.59983640001155,6.031899299938232,6.13180059986189,88.59984449995682,12.031789399916306,88.69989569997415,88.69989569997415,88.73329210001975,88.73329210001975,0.032155499793589115,0.1318176998756826,down,1.753085299860686,90.5499263999518,5.3900061175227165e-05,0.09591979999095201,96.58309970004484,96.58309970004484,0.02698620012961328,0.1294535999186337,2.0,2.236914200009778,,,,,,,,,,,,,671,Moral,2024-03-15_17h16.06.447,MoralCondition_v2,2022.2.5,30.00032700954687,
0,0,0,0,1,0,1,0,,,,,,,,,,,,,,,,,,,,,,,,,,,,,,,,,,,,,,,,,,,,,,,,,,,,,,98.8498012998607,98.8498012998607,0.008260099915787578,0.09913869993761182,2.0,0.7251551998779178,,,,,,,,,,,,,671,Moral,2024-03-15_17h16.06.447,MoralCondition_v2,2022.2.5,30.00032700954687,
0,0,0,0,2,0,2,0,,,,,,,,,,,,,,,,,,,,,,,,,,,,,,,,,,,,,,,,,,,,,,,,,,,,,,99.63344480004162,99.63344480004162,0.011383100179955363,0.11540500004775822,2.0,1.5051935999654233,,,,,,,,,,,,,671,Moral,2024-03-15_17h16.06.447,MoralCondition_v2,2022.2.5,30.00032700954687,
0,0,0,0,3,0,3,0,,,,,,,,,,,,,,,,,,,,,,,,,,,,,,,,,,,,,,,,,,,,,,,,,,,,,,101.18317859992385,101.18317859992385,0.025719499913975596,0.11573709989897907,5.0,2.2244317999575287,,,,,,,,,,,,,671,Moral,2024-03-15_17h16.06.447,MoralCondition_v2,2022.2.5,30.00032700954687,
0,0,0,0,4,0,4,0,,,,,,,,,,,,,,,,,,,,,,,,,,,,,,,,,,,,,,,,,,,,,,,,,,,,,,103.4664956999477,103.4664956999477,0.01060110004618764,0.11424539983272552,1.0,1.8710926999337971,,,,,,,,,,,,,671,Moral,2024-03-15_17h16.06.447,MoralCondition_v2,2022.2.5,30.00032700954687,
0,0,0,0,5,0,5,0,,,,,,,,,,,,,,,,,,,,,,,,,,,,,,,,,,,,,,,,,,,,,,,,,,,,,,105.36637479998171,105.36637479998171,0.011361300013959408,0.09769889991730452,5.0,1.520637599984184,,,,,,,,,,,,,671,Moral,2024-03-15_17h16.06.447,MoralCondition_v2,2022.2.5,30.00032700954687,
0,0,0,0,6,0,6,0,,,,,,,,,,,,,,,,,,,,,,,,,,,,,,,,,,,,,,,,,,,,,,,,,,,,,,106.93318459996954,106.93318459996954,0.007672900101169944,0.09915679995901883,2.0,1.325840000063181,,,,,,,,,,,,,671,Moral,2024-03-15_17h16.06.447,MoralCondition_v2,2022.2.5,30.00032700954687,
0,0,0,0,,,,,,,,,,,,,,,,,,,,,,,,,,,,,,,,,,,,,,,,,,,,,,,,,,,,,,,,,,,,,,,,108.29996580001898,108.29996580001898,0.0013995999470353127,0.09764249995350838,2.0,2.3976038999389857,,,,,,,671,Moral,2024-03-15_17h16.06.447,MoralCondition_v2,2022.2.5,30.00032700954687,
1,0,1,0,0,0,0,0,,,,,,,,,,,,,,,,,,,,,,110.73322479985654,0.0004930999130010605,0.09689479996450245,116.7497642999515,6.013504199916497,116.95000559999608,116.95000559999608,0.0965133998543024,0.21357149980030954,6.013507699826732,122.99989759991877,122.99989759991877,122.99989759991877,0.06830749963410199,0.16375819966197014,128.70001639984548,128.93335930001922,6.0304135996848345,6.130258999764919,134.93319539981894,12.030264799715951,134.99985809996724,134.99985809996724,135.06654689996503,135.06654689996503,0.03039699955843389,0.13020909973420203,down,0.7313761000987142,135.83320260001346,3.2800016924738884e-05,0.09818770014680922,141.83315109997056,141.83315109997056,0.007184399990364909,0.09835510002449155,2.0,1.592039399780333,,,,,,,141.83315109997056,,,,,,671,Moral,2024-03-15_17h16.06.447,MoralCondition_v2,2022.2.5,30.00032700954687,
1,0,1,0,1,0,1,0,,,,,,,,,,,,,,,,,,,,,,,,,,,,,,,,,,,,,,,,,,,,,,,,,,,,,,143.466642400017,143.466642400017,0.006653999909758568,0.09929600008763373,2.0,0.6935540998820215,,,,,,,,,,,,,671,Moral,2024-03-15_17h16.06.447,MoralCondition_v2,2022.2.5,30.00032700954687,
1,0,1,0,2,0,2,0,,,,,,,,,,,,,,,,,,,,,,,,,,,,,,,,,,,,,,,,,,,,,,,,,,,,,,144.20002710004337,144.20002710004337,0.009250900009647012,0.09774600015953183,5.0,2.0561861000023782,,,,,,,,,,,,,671,Moral,2024-03-15_17h16.06.447,MoralCondition_v2,2022.2.5,30.00032700954687,
1,0,1,0,3,0,3,0,,,,,,,,,,,,,,,,,,,,,,,,,,,,,,,,,,,,,,,,,,,,,,,,,,,,,,146.2996350999456,146.2996350999456,0.007567400112748146,0.09785340004600585,2.0,1.5576786000747234,,,,,,,,,,,,,671,Moral,2024-03-15_17h16.06.447,MoralCondition_v2,2022.2.5,30.00032700954687,
1,0,1,0,4,0,4,0,,,,,,,,,,,,,,,,,,,,,,,,,,,,,,,,,,,,,,,,,,,,,,,,,,,,,,147.89986619981937,147.89986619981937,0.007642200216650963,0.09817640017718077,2.0,0.6582246001344174,,,,,,,,,,,,,671,Moral,2024-03-15_17h16.06.447,MoralCondition_v2,2022.2.5,30.00032700954687,
1,0,1,0,5,0,5,0,,,,,,,,,,,,,,,,,,,,,,,,,,,,,,,,,,,,,,,,,,,,,,,,,,,,,,148.59980809991248,148.59980809991248,0.006979299942031503,0.09922500001266599,5.0,2.159930999856442,,,,,,,,,,,,,671,Moral,2024-03-15_17h16.06.447,MoralCondition_v2,2022.2.5,30.00032700954687,
1,0,1,0,6,0,6,0,,,,,,,,,,,,,,,,,,,,,,,,,,,,,,,,,,,,,,,,,,,,,,,,,,,,,,150.81673939991742,150.81673939991742,0.00804680003784597,0.1143263999838382,2.0,1.474055300001055,,,,,,,,,,,,,671,Moral,2024-03-15_17h16.06.447,MoralCondition_v2,2022.2.5,30.00032700954687,
1,0,1,0,,,,,,,,,,,,,,,,,,,,,,,,,,,,,,,,,,,,,,,,,,,,,,,,,,,,,,,,,,,,,,,,152.31663889996707,152.31663889996707,0.0007031999994069338,0.0989778998773545,3.0,2.6159251001663506,,,,,,,671,Moral,2024-03-15_17h16.06.447,MoralCondition_v2,2022.2.5,30.00032700954687,
2,0,2,0,0,0,0,0,,,,,,,,,,,,,,,,,,,,,,154.96634339983575,9.940005838871002e-05,0.11559780011884868,160.96650339988992,5.999333499930799,161.14988989988342,161.14988989988342,0.0671637998893857,0.1828222000040114,6.015980599913746,167.2497494998388,167.2497494998388,167.2497494998388,0.07641219976358116,0.1827482997905463,172.94992309994996,173.14993049995974,6.015956099843606,6.115932799875736,179.14993650000542,12.01596049987711,179.23303739982657,179.23303739982657,179.2663902998902,179.2663902998902,0.015682999743148685,0.09917059983126819,down,6.212077100062743,185.53329799999483,3.150012344121933e-05,0.09887340012937784,191.54996900004335,191.54996900004335,0.026740600122138858,0.11536560021340847,2.0,1.5897359000518918,,,,,,,,6.099169899942353,167.13313989993185,167.13313989993185,,,671,Moral,2024-03-15_17h16.06.447,MoralCondition_v2,2022.2.5,30.00032700954687,
2,0,2,0,1,0,1,0,,,,,,,,,,,,,,,,,,,,,,,,,,,,,,,,,,,,,,,,,,,,,,,,,,,,,,193.18318629986607,193.18318629986607,0.006879900116473436,0.09914050018414855,2.0,0.493316899985075,,,,,,,,,,,,,671,Moral,2024-03-15_17h16.06.447,MoralCondition_v2,2022.2.5,30.00032700954687,
2,0,2,0,2,0,2,0,,,,,,,,,,,,,,,,,,,,,,,,,,,,,,,,,,,,,,,,,,,,,,,,,,,,,,193.71661689993925,193.71661689993925,0.006774600129574537,0.09929440007545054,6.0,2.29362259991467,,,,,,,,,,,,,671,Moral,2024-03-15_17h16.06.447,MoralCondition_v2,2022.2.5,30.00032700954687,
2,0,2,0,3,0,3,0,,,,,,,,,,,,,,,,,,,,,,,,,,,,,,,,,,,,,,,,,,,,,,,,,,,,,,196.04972789995372,196.04972789995372,0.007023199927061796,0.0976675997953862,1.0,1.5254319999366999,,,,,,,,,,,,,671,Moral,2024-03-15_17h16.06.447,MoralCondition_v2,2022.2.5,30.00032700954687,
2,0,2,0,4,0,4,0,,,,,,,,,,,,,,,,,,,,,,,,,,,,,,,,,,,,,,,,,,,,,,,,,,,,,,197.61660629999824,197.61660629999824,0.0065194000490009785,0.09912990010343492,1.0,0.427137800026685,,,,,,,,,,,,,671,Moral,2024-03-15_17h16.06.447,MoralCondition_v2,2022.2.5,30.00032700954687,
2,0,2,0,5,0,5,0,,,,,,,,,,,,,,,,,,,,,,,,,,,,,,,,,,,,,,,,,,,,,,,,,,,,,,198.0832549999468,198.0832549999468,0.00756950001232326,0.09839880000799894,1.0,0.45813409984111786,,,,,,,,,,,,,671,Moral,2024-03-15_17h16.06.447,MoralCondition_v2,2022.2.5,30.00032700954687,
2,0,2,0,6,0,6,0,,,,,,,,,,,,,,,,,,,,,,,,,,,,,,,,,,,,,,,,,,,,,,,,,,,,,,198.58322070003487,198.58322070003487,0.006518200039863586,0.09898680006153882,1.0,0.593960499856621,,,,,,,,,,,,,671,Moral,2024-03-15_17h16.06.447,MoralCondition_v2,2022.2.5,30.00032700954687,
2,0,2,0,,,,,,,,,,,,,,,,,,,,,,,,,,,,,,,,,,,,,,,,,,,,,,,,,,,,,,,,,,,,,,,,199.2166829998605,199.2166829998605,0.0011138999834656715,0.09866110002622008,7.0,2.2652912999037653,,,,,,,671,Moral,2024-03-15_17h16.06.447,MoralCondition_v2,2022.2.5,30.00032700954687,
3,0,3,0,0,0,0,0,,,,,,,,,,,,,,,,,,,,,,201.5168135999702,0.000300099840387702,0.09800659981556237,207.51651939982548,6.031241699820384,207.69996330002323,207.69996330002323,0.07648699986748397,0.18146489979699254,6.014562799828127,213.80007159989327,213.80007159989327,213.80007159989327,0.07671789964661002,0.18151349970139563,219.50003069988452,219.6998934999574,6.014631199650466,6.114579799817875,225.69990889984183,12.014648799784482,225.79994799988344,225.79994799988344,225.83320220001042,225.83320220001042,0.014835999580100179,0.11456779972650111,up,0.22914050007238984,226.09992259996943,4.329998046159744e-05,0.09798009996302426,232.09979170002043,232.09979170002043,0.007318600080907345,0.09798819990828633,1.0,1.5916536999866366,,,,,,,232.09979170002043,,213.6998123000376,213.6998123000376,,,671,Moral,2024-03-15_17h16.06.447,MoralCondition_v2,2022.2.5,30.00032700954687,
3,0,3,0,1,0,1,0,,,,,,,,,,,,,,,,,,,,,,,,,,,,,,,,,,,,,,,,,,,,,,,,,,,,,,233.7500326000154,233.7500326000154,0.007764299865812063,0.11419970006681979,1.0,0.473988100187853,,,,,,,,,,,,,671,Moral,2024-03-15_17h16.06.447,MoralCondition_v2,2022.2.5,30.00032700954687,
3,0,3,0,2,0,2,0,,,,,,,,,,,,,,,,,,,,,,,,,,,,,,,,,,,,,,,,,,,,,,,,,,,,,,234.24972769990563,234.24972769990563,0.006588499993085861,0.09911479987204075,1.0,0.4936634998302907,,,,,,,,,,,,,671,Moral,2024-03-15_17h16.06.447,MoralCondition_v2,2022.2.5,30.00032700954687,
3,0,3,0,3,0,3,0,,,,,,,,,,,,,,,,,,,,,,,,,,,,,,,,,,,,,,,,,,,,,,,,,,,,,,234.7830990999937,234.7830990999937,0.007589600048959255,0.0974435000680387,1.0,0.6248028001282364,,,,,,,,,,,,,671,Moral,2024-03-15_17h16.06.447,MoralCondition_v2,2022.2.5,30.00032700954687,
3,0,3,0,4,0,4,0,,,,,,,,,,,,,,,,,,,,,,,,,,,,,,,,,,,,,,,,,,,,,,,,,,,,,,235.4496654998511,235.4496654998511,0.007835400057956576,0.09805959998629987,7.0,1.2910253999289125,,,,,,,,,,,,,671,Moral,2024-03-15_17h16.06.447,MoralCondition_v2,2022.2.5,30.00032700954687,
3,0,3,0,5,0,5,0,,,,,,,,,,,,,,,,,,,,,,,,,,,,,,,,,,,,,,,,,,,,,,,,,,,,,,236.78319490002468,236.78319490002468,0.0064935998525470495,0.09821500000543892,1.0,1.126440600026399,,,,,,,,,,,,,671,Moral,2024-03-15_17h16.06.447,MoralCondition_v2,2022.2.5,30.00032700954687,
3,0,3,0,6,0,6,0,,,,,,,,,,,,,,,,,,,,,,,,,,,,,,,,,,,,,,,,,,,,,,,,,,,,,,237.9497252998408,237.9497252998408,0.008072199998423457,0.09856830001808703,1.0,0.45817180001176894,,,,,,,,,,,,,671,Moral,2024-03-15_17h16.06.447,MoralCondition_v2,2022.2.5,30.00032700954687,
3,0,3,0,,,,,,,,,,,,,,,,,,,,,,,,,,,,,,,,,,,,,,,,,,,,,,,,,,,,,,,,,,,,,,,,238.44982800004072,238.44982800004072,0.0022229000460356474,0.09747290005907416,7.0,1.1297180999536067,,,,,,,671,Moral,2024-03-15_17h16.06.447,MoralCondition_v2,2022.2.5,30.00032700954687,
4,0,4,0,0,0,0,0,,,,,,,,,,,,,,,,,,,,,,239.6168909999542,0.0002761001233011484,0.09778930013999343,245.63319349987432,6.0144257000647485,245.79993609990925,245.79993609990925,0.0692888000048697,0.1814133001025766,6.014465000014752,251.88350300001912,251.88350300001912,251.88350300001912,0.06897499994374812,0.16457879985682666,257.58329219999723,257.81671070004813,6.031327799893916,6.131105699809268,263.81651939987205,12.031141999876127,263.88321079988964,263.88321079988964,263.94991089985706,263.94991089985706,0.03131169988773763,0.1311501997988671,down,0.5772847000043839,264.5665255000349,2.9099872335791588e-05,0.09917799988761544,270.5830901998561,270.5830901998561,0.025757099967449903,0.11576439999043941,7.0,2.4911056000273675,,,,,,,,,251.79983050003648,251.79983050003648,,,671,Moral,2024-03-15_17h16.06.447,MoralCondition_v2,2022.2.5,30.00032700954687,
4,0,4,0,1,0,1,0,,,,,,,,,,,,,,,,,,,,,,,,,,,,,,,,,,,,,,,,,,,,,,,,,,,,,,273.1165469000116,273.1165469000116,0.006627499824389815,0.09919599979184568,1.0,1.7266182999592274,,,,,,,,,,,,,671,Moral,2024-03-15_17h16.06.447,MoralCondition_v2,2022.2.5,30.00032700954687,
4,0,4,0,2,0,2,0,,,,,,,,,,,,,,,,,,,,,,,,,,,,,,,,,,,,,,,,,,,,,,,,,,,,,,274.883112099953,274.883112099953,0.006026299903169274,0.0990124000236392,1.0,0.46073819999583066,,,,,,,,,,,,,671,Moral,2024-03-15_17h16.06.447,MoralCondition_v2,2022.2.5,30.00032700954687,
4,0,4,0,3,0,3,0,,,,,,,,,,,,,,,,,,,,,,,,,,,,,,,,,,,,,,,,,,,,,,,,,,,,,,275.3830794999376,275.3830794999376,0.006656100042164326,0.09912339993752539,1.0,1.3936015998478979,,,,,,,,,,,,,671,Moral,2024-03-15_17h16.06.447,MoralCondition_v2,2022.2.5,30.00032700954687,
4,0,4,0,4,0,4,0,,,,,,,,,,,,,,,,,,,,,,,,,,,,,,,,,,,,,,,,,,,,,,,,,,,,,,276.8164718998596,276.8164718998596,0.006755100097507238,0.09908480010926723,7.0,1.5937241001520306,,,,,,,,,,,,,671,Moral,2024-03-15_17h16.06.447,MoralCondition_v2,2022.2.5,30.00032700954687,
4,0,4,0,5,0,5,0,,,,,,,,,,,,,,,,,,,,,,,,,,,,,,,,,,,,,,,,,,,,,,,,,,,,,,278.44966339995153,278.44966339995153,0.007062199991196394,0.09825649997219443,1.0,0.859146700007841,,,,,,,,,,,,,671,Moral,2024-03-15_17h16.06.447,MoralCondition_v2,2022.2.5,30.00032700954687,
4,0,4,0,6,0,6,0,,,,,,,,,,,,,,,,,,,,,,,,,,,,,,,,,,,,,,,,,,,,,,,,,,,,,,279.3500045998953,279.3500045998953,0.007215299876406789,0.09789910004474223,1.0,0.5585743999108672,,,,,,,,,,,,,671,Moral,2024-03-15_17h16.06.447,MoralCondition_v2,2022.2.5,30.00032700954687,
4,0,4,0,,,,,,,,,,,,,,,,,,,,,,,,,,,,,,,,,,,,,,,,,,,,,,,,,,,,,,,,,,,,,,,,279.94974279985763,279.94974279985763,0.0012546000070869923,0.09787810011766851,1.0,1.6645754999481142,,,,,,,671,Moral,2024-03-15_17h16.06.447,MoralCondition_v2,2022.2.5,30.00032700954687,
5,0,5,0,0,0,0,0,,,,,,,,,,,,,,,,,,,,,,281.6503045000136,0.0001387998927384615,0.09948209999129176,287.6665272000246,6.016110799973831,287.81646070000716,287.81646070000716,0.06736059999093413,0.16615309985354543,5.999324499862269,293.91646069986746,293.91646069986746,293.91646069986746,0.05625459970906377,0.16597489989362657,299.6164463998284,299.8164734998718,5.999405899783596,6.099368599709123,305.81649590004236,11.999391399789602,305.91669209999964,305.91669209999964,305.94985460001044,305.94985460001044,0.000371899688616395,0.09930929960682988,down,1.4968635998666286,307.48314999998547,4.770001396536827e-05,0.0979456000495702,313.5166473998688,313.5166473998688,0.02570870006456971,0.1312891999259591,1.0,1.540329499868676,,,,,,,,,293.8164905998856,293.8164905998856,6.09939769981429,12.099580999696627,671,Moral,2024-03-15_17h16.06.447,MoralCondition_v2,2022.2.5,30.00032700954687,
5,0,5,0,1,0,1,0,,,,,,,,,,,,,,,,,,,,,,,,,,,,,,,,,,,,,,,,,,,,,,,,,,,,,,315.0833772998303,315.0833772998303,0.007149800192564726,0.09819080005399883,6.0,4.125773899955675,,,,,,,,,,,,,671,Moral,2024-03-15_17h16.06.447,MoralCondition_v2,2022.2.5,30.00032700954687,
5,0,5,0,2,0,2,0,,,,,,,,,,,,,,,,,,,,,,,,,,,,,,,,,,,,,,,,,,,,,,,,,,,,,,319.2497939998284,319.2497939998284,0.007681699935346842,0.09822520008310676,1.0,1.491167000029236,,,,,,,,,,,,,671,Moral,2024-03-15_17h16.06.447,MoralCondition_v2,2022.2.5,30.00032700954687,
5,0,5,0,3,0,3,0,,,,,,,,,,,,,,,,,,,,,,,,,,,,,,,,,,,,,,,,,,,,,,,,,,,,,,320.7832088000141,320.7832088000141,0.007518199970945716,0.0978445999789983,1.0,0.6245752999093384,,,,,,,,,,,,,671,Moral,2024-03-15_17h16.06.447,MoralCondition_v2,2022.2.5,30.00032700954687,
5,0,5,0,4,0,4,0,,,,,,,,,,,,,,,,,,,,,,,,,,,,,,,,,,,,,,,,,,,,,,,,,,,,,,321.4496957999654,321.4496957999654,0.0070368999149650335,0.09811990009620786,1.0,0.5920496000908315,,,,,,,,,,,,,671,Moral,2024-03-15_17h16.06.447,MoralCondition_v2,2022.2.5,30.00032700954687,
5,0,5,0,5,0,5,0,,,,,,,,,,,,,,,,,,,,,,,,,,,,,,,,,,,,,,,,,,,,,,,,,,,,,,322.09991250000894,322.09991250000894,0.007943199947476387,0.1139911999925971,1.0,0.5737719000317156,,,,,,,,,,,,,671,Moral,2024-03-15_17h16.06.447,MoralCondition_v2,2022.2.5,30.00032700954687,
5,0,5,0,6,0,6,0,,,,,,,,,,,,,,,,,,,,,,,,,,,,,,,,,,,,,,,,,,,,,,,,,,,,,,322.6998439000454,322.6998439000454,0.007979300105944276,0.09734550002031028,6.0,0.957133499905467,,,,,,,,,,,,,671,Moral,2024-03-15_17h16.06.447,MoralCondition_v2,2022.2.5,30.00032700954687,
5,0,5,0,,,,,,,,,,,,,,,,,,,,,,,,,,,,,,,,,,,,,,,,,,,,,,,,,,,,,,,,,,,,,,,,323.69981599994935,323.69981599994935,0.0011881000827997923,0.09793400019407272,2.0,1.699530600104481,,,,,,,671,Moral,2024-03-15_17h16.06.447,MoralCondition_v2,2022.2.5,30.00032700954687,
6,0,6,0,0,0,0,0,,,,,,,,,,,,,,,,,,,,,,325.4330994999036,0.0002266999799758196,0.09871399984695017,331.43314810004085,6.031938900006935,331.61631209985353,331.61631209985353,0.07713219989091158,0.18189899972639978,6.015175399836153,337.71628970000893,337.71628970000893,337.71628970000893,0.07782049966044724,0.18194579984992743,343.4164203000255,343.6164287000429,6.015131999738514,6.115115599706769,349.61644200002775,12.015170899685472,349.7162508999463,349.7162508999463,349.73291469994,349.73291469994,0.014929399592801929,0.09869409957900643,down,0.8894219999201596,350.6664015999995,4.5000109821558e-05,0.09776080003939569,356.6833080998622,356.6833080998622,0.009351800195872784,0.11436350014992058,5.0,4.806048800004646,,,,,,,356.6833080998622,,337.6164597000461,337.6164597000461,,,671,Moral,2024-03-15_17h16.06.447,MoralCondition_v2,2022.2.5,30.00032700954687,
6,0,6,0,1,0,1,0,,,,,,,,,,,,,,,,,,,,,,,,,,,,,,,,,,,,,,,,,,,,,,,,,,,,,,361.5165911000222,361.5165911000222,0.006889200070872903,0.09829910006374121,5.0,0.7924977000802755,,,,,,,,,,,,,671,Moral,2024-03-15_17h16.06.447,MoralCondition_v2,2022.2.5,30.00032700954687,
6,0,6,0,2,0,2,0,,,,,,,,,,,,,,,,,,,,,,,,,,,,,,,,,,,,,,,,,,,,,,,,,,,,,,362.34980980004184,362.34980980004184,0.007912399945780635,0.09815460001118481,5.0,1.9917562000919133,,,,,,,,,,,,,671,Moral,2024-03-15_17h16.06.447,MoralCondition_v2,2022.2.5,30.00032700954687,
6,0,6,0,3,0,3,0,,,,,,,,,,,,,,,,,,,,,,,,,,,,,,,,,,,,,,,,,,,,,,,,,,,,,,364.3830817998387,364.3830817998387,0.006656799931079149,0.09910280001349747,1.0,1.0934978001751006,,,,,,,,,,,,,671,Moral,2024-03-15_17h16.06.447,MoralCondition_v2,2022.2.5,30.00032700954687,
6,0,6,0,4,0,4,0,,,,,,,,,,,,,,,,,,,,,,,,,,,,,,,,,,,,,,,,,,,,,,,,,,,,,,365.51622119988315,365.51622119988315,0.008047100156545639,0.09804430021904409,1.0,0.35756280017085373,,,,,,,,,,,,,671,Moral,2024-03-15_17h16.06.447,MoralCondition_v2,2022.2.5,30.00032700954687,
6,0,6,0,5,0,5,0,,,,,,,,,,,,,,,,,,,,,,,,,,,,,,,,,,,,,,,,,,,,,,,,,,,,,,365.9333267000038,365.9333267000038,0.007844500010833144,0.11420729989185929,1.0,0.40741819981485605,,,,,,,,,,,,,671,Moral,2024-03-15_17h16.06.447,MoralCondition_v2,2022.2.5,30.00032700954687,
6,0,6,0,6,0,6,0,,,,,,,,,,,,,,,,,,,,,,,,,,,,,,,,,,,,,,,,,,,,,,,,,,,,,,366.36669089994393,366.36669089994393,0.007112100021913648,0.09779380005784333,1.0,0.7582564000040293,,,,,,,,,,,,,671,Moral,2024-03-15_17h16.06.447,MoralCondition_v2,2022.2.5,30.00032700954687,
6,0,6,0,,,,,,,,,,,,,,,,,,,,,,,,,,,,,,,,,,,,,,,,,,,,,,,,,,,,,,,,,,,,,,,,367.1663005000446,367.1663005000446,0.0010277999099344015,0.09887149999849498,2.0,2.0984336000401527,,,,,,,671,Moral,2024-03-15_17h16.06.447,MoralCondition_v2,2022.2.5,30.00032700954687,
7,0,7,0,0,0,0,0,,,,,,,,,,,,,,,,,,,,,,369.30011409986764,0.00014359992928802967,0.0994148999452591,375.3163930999581,6.0159636999014765,375.48287419998087,375.48287419998087,0.08183289994485676,0.18273029988631606,6.0160121999215335,381.5835656998679,381.5835656998679,381.5835656998679,0.07325389981269836,0.182851999765262,387.28303479985334,387.4830805999227,6.016023899894208,6.116095399716869,393.4832623000257,12.016192499781027,393.5831875000149,393.5831875000149,393.61638040002435,393.61638040002435,0.016312399646267295,0.11596449976786971,up,1.5573674999177456,395.233060099883,4.5900000259280205e-05,0.09796659997664392,401.2499802999664,401.2499802999664,0.02550119999796152,0.11431299988180399,1.0,2.189732200000435,,,,,,,,,381.483083399944,381.483083399944,,,671,Moral,2024-03-15_17h16.06.447,MoralCondition_v2,2022.2.5,30.00032700954687,
7,0,7,0,1,0,1,0,,,,,,,,,,,,,,,,,,,,,,,,,,,,,,,,,,,,,,,,,,,,,,,,,,,,,,403.49993049982004,403.49993049982004,0.008574799867346883,0.1144306999631226,1.0,0.7735107999760658,,,,,,,,,,,,,671,Moral,2024-03-15_17h16.06.447,MoralCondition_v2,2022.2.5,30.00032700954687,
7,0,7,0,2,0,2,0,,,,,,,,,,,,,,,,,,,,,,,,,,,,,,,,,,,,,,,,,,,,,,,,,,,,,,404.2997910999693,404.2997910999693,0.007265300024300814,0.09772930014878511,1.0,0.591430600034073,,,,,,,,,,,,,671,Moral,2024-03-15_17h16.06.447,MoralCondition_v2,2022.2.5,30.00032700954687,
7,0,7,0,3,0,3,0,,,,,,,,,,,,,,,,,,,,,,,,,,,,,,,,,,,,,,,,,,,,,,,,,,,,,,404.9499826999381,404.9499826999381,0.008481899974867702,0.11480540013872087,1.0,0.840629099868238,,,,,,,,,,,,,671,Moral,2024-03-15_17h16.06.447,MoralCondition_v2,2022.2.5,30.00032700954687,
7,0,7,0,4,0,4,0,,,,,,,,,,,,,,,,,,,,,,,,,,,,,,,,,,,,,,,,,,,,,,,,,,,,,,405.81632609991357,405.81632609991357,0.007721300004050136,0.09772010007873178,6.0,1.3576841000467539,,,,,,,,,,,,,671,Moral,2024-03-15_17h16.06.447,MoralCondition_v2,2022.2.5,30.00032700954687,
7,0,7,0,5,0,5,0,,,,,,,,,,,,,,,,,,,,,,,,,,,,,,,,,,,,,,,,,,,,,,,,,,,,,,407.23310499987565,407.23310499987565,0.008277999935671687,0.11452990001998842,1.0,1.5072908999864012,,,,,,,,,,,,,671,Moral,2024-03-15_17h16.06.447,MoralCondition_v2,2022.2.5,30.00032700954687,
7,0,7,0,6,0,6,0,,,,,,,,,,,,,,,,,,,,,,,,,,,,,,,,,,,,,,,,,,,,,,,,,,,,,,408.76635499997064,408.76635499997064,0.0077574001625180244,0.09873079997487366,1.0,0.4589734000619501,,,,,,,,,,,,,671,Moral,2024-03-15_17h16.06.447,MoralCondition_v2,2022.2.5,30.00032700954687,
7,0,7,0,,,,,,,,,,,,,,,,,,,,,,,,,,,,,,,,,,,,,,,,,,,,,,,,,,,,,,,,,,,,,,,,409.26619399990886,409.26619399990886,0.001468299888074398,0.09767919988371432,7.0,1.163965999847278,,,,,,,671,Moral,2024-03-15_17h16.06.447,MoralCondition_v2,2022.2.5,30.00032700954687,
8,0,8,0,0,0,0,0,,,,,,,,,,,,,,,,,,,,,,410.46651599998586,0.0002874999772757292,0.09778099996037781,416.48295209999196,6.014284499920905,416.6495594999287,416.6495594999287,0.07866979972459376,0.18136289971880615,6.0143233998678625,422.74968729983084,422.74968729983084,422.74968729983084,0.0759607998188585,0.1810997996944934,428.44985949993134,428.6498708999716,6.01457369979471,6.114538699621335,434.6496233998332,12.014307899633422,434.74959030002356,434.74959030002356,434.78300479985774,434.78300479985774,0.014435299672186375,0.11426709964871407,down,0.702953799860552,435.533094599843,8.919998072087765e-05,0.09786189999431372,441.53277319995686,441.53277319995686,0.00868550012819469,0.0976784999947995,1.0,2.823478300124407,,,,,,,441.53277319995686,,422.64973169984296,422.64973169984296,,,671,Moral,2024-03-15_17h16.06.447,MoralCondition_v2,2022.2.5,30.00032700954687,
8,0,8,0,1,0,1,0,,,,,,,,,,,,,,,,,,,,,,,,,,,,,,,,,,,,,,,,,,,,,,,,,,,,,,444.39974659984,444.39974659984,0.006899300031363964,0.09912910009734333,7.0,1.393318200018257,,,,,,,,,,,,,671,Moral,2024-03-15_17h16.06.447,MoralCondition_v2,2022.2.5,30.00032700954687,
8,0,8,0,2,0,2,0,,,,,,,,,,,,,,,,,,,,,,,,,,,,,,,,,,,,,,,,,,,,,,,,,,,,,,445.8328156999778,445.8328156999778,0.006627700058743358,0.09910680004395545,7.0,1.9608765000011772,,,,,,,,,,,,,671,Moral,2024-03-15_17h16.06.447,MoralCondition_v2,2022.2.5,30.00032700954687,
8,0,8,0,3,0,3,0,,,,,,,,,,,,,,,,,,,,,,,,,,,,,,,,,,,,,,,,,,,,,,,,,,,,,,447.8329524998553,447.8329524998553,0.007072199834510684,0.09861200000159442,1.0,1.0926039000041783,,,,,,,,,,,,,671,Moral,2024-03-15_17h16.06.447,MoralCondition_v2,2022.2.5,30.00032700954687,
8,0,8,0,4,0,4,0,,,,,,,,,,,,,,,,,,,,,,,,,,,,,,,,,,,,,,,,,,,,,,,,,,,,,,448.9831599998288,448.9831599998288,0.007680799812078476,0.11414979980327189,1.0,0.34068370005115867,,,,,,,,,,,,,671,Moral,2024-03-15_17h16.06.447,MoralCondition_v2,2022.2.5,30.00032700954687,
8,0,8,0,5,0,5,0,,,,,,,,,,,,,,,,,,,,,,,,,,,,,,,,,,,,,,,,,,,,,,,,,,,,,,449.34965989994816,449.34965989994816,0.006476900074630976,0.09908590000122786,1.0,0.4604974000249058,,,,,,,,,,,,,671,Moral,2024-03-15_17h16.06.447,MoralCondition_v2,2022.2.5,30.00032700954687,
8,0,8,0,6,0,6,0,,,,,,,,,,,,,,,,,,,,,,,,,,,,,,,,,,,,,,,,,,,,,,,,,,,,,,449.86648670001887,449.86648670001887,0.008337600156664848,0.11411339999176562,1.0,0.573625799966976,,,,,,,,,,,,,671,Moral,2024-03-15_17h16.06.447,MoralCondition_v2,2022.2.5,30.00032700954687,
8,0,8,0,,,,,,,,,,,,,,,,,,,,,,,,,,,,,,,,,,,,,,,,,,,,,,,,,,,,,,,,,,,,,,,,450.46642259997316,450.46642259997316,0.0013033999130129814,0.09865559986792505,1.0,1.2986290000844747,,,,,,,671,Moral,2024-03-15_17h16.06.447,MoralCondition_v2,2022.2.5,30.00032700954687,
9,0,9,0,0,0,0,0,,,,,,,,,,,,,,,,,,,,,,451.7997836000286,0.0003019999712705612,0.0976537000387907,457.81650129985064,6.0145775999408215,457.98292679991573,457.98292679991573,0.06680339993909001,0.1810087999328971,6.014362399931997,464.08280929992907,464.08280929992907,464.08280929992907,0.06871049990877509,0.18125569983385503,469.78291189996526,469.9828782998957,6.014378299936652,6.114214199827984,475.98289019986987,12.014444599859416,476.0829131999053,476.0829131999053,476.11619199998677,476.11619199998677,0.014514299808070064,0.11442679981701076,down,0.5137414999771863,476.68298119981773,4.820013418793678e-05,0.09802959999069571,482.69939299998805,482.69939299998805,0.024855200201272964,0.11466479999944568,1.0,2.090618000132963,,,,,,,,,463.98291180003434,463.98291180003434,,,671,Moral,2024-03-15_17h16.06.447,MoralCondition_v2,2022.2.5,30.00032700954687,
9,0,9,0,1,0,1,0,,,,,,,,,,,,,,,,,,,,,,,,,,,,,,,,,,,,,,,,,,,,,,,,,,,,,,484.8328740999568,484.8328740999568,0.006429299945011735,0.09914409997873008,1.0,0.6940634998027235,,,,,,,,,,,,,671,Moral,2024-03-15_17h16.06.447,MoralCondition_v2,2022.2.5,30.00032700954687,
9,0,9,0,2,0,2,0,,,,,,,,,,,,,,,,,,,,,,,,,,,,,,,,,,,,,,,,,,,,,,,,,,,,,,485.5661239998881,485.5661239998881,0.006648499984294176,0.0986788000445813,6.0,1.6596631999127567,,,,,,,,,,,,,671,Moral,2024-03-15_17h16.06.447,MoralCondition_v2,2022.2.5,30.00032700954687,
9,0,9,0,3,0,3,0,,,,,,,,,,,,,,,,,,,,,,,,,,,,,,,,,,,,,,,,,,,,,,,,,,,,,,487.2662410000339,487.2662410000339,0.006555199855938554,0.0992463999427855,1.0,1.2603223000187427,,,,,,,,,,,,,671,Moral,2024-03-15_17h16.06.447,MoralCondition_v2,2022.2.5,30.00032700954687,
9,0,9,0,4,0,4,0,,,,,,,,,,,,,,,,,,,,,,,,,,,,,,,,,,,,,,,,,,,,,,,,,,,,,,488.56616209982894,488.56616209982894,0.006965999957174063,0.09898520004935563,1.0,0.6273922000546008,,,,,,,,,,,,,671,Moral,2024-03-15_17h16.06.447,MoralCondition_v2,2022.2.5,30.00032700954687,
9,0,9,0,5,0,5,0,,,,,,,,,,,,,,,,,,,,,,,,,,,,,,,,,,,,,,,,,,,,,,,,,,,,,,489.23276939988136,489.23276939988136,0.007721200119704008,0.09768990008160472,6.0,2.057855200022459,,,,,,,,,,,,,671,Moral,2024-03-15_17h16.06.447,MoralCondition_v2,2022.2.5,30.00032700954687,
9,0,9,0,6,0,6,0,,,,,,,,,,,,,,,,,,,,,,,,,,,,,,,,,,,,,,,,,,,,,,,,,,,,,,491.3326818998903,491.3326818998903,0.007938200142234564,0.09768110001459718,1.0,1.9243646999821067,,,,,,,,,,,,,671,Moral,2024-03-15_17h16.06.447,MoralCondition_v2,2022.2.5,30.00032700954687,
9,0,9,0,,,,,,,,,,,,,,,,,,,,,,,,,,,,,,,,,,,,,,,,,,,,,,,,,,,,,,,,,,,,,,,,493.2997085999232,493.2997085999232,0.0006772999186068773,0.099041499895975,2.0,2.7662102999165654,,,,,,,671,Moral,2024-03-15_17h16.06.447,MoralCondition_v2,2022.2.5,30.00032700954687,
10,0,10,0,0,0,0,0,,,,,,,,,,,,,,,,,,,,,,496.0997730998788,0.00040760007686913013,0.097505500074476,502.0995816998184,6.031112199882045,502.29957209993154,502.29957209993154,0.08433129987679422,0.19761209981516004,6.031064399983734,508.39958889991976,508.39958889991976,508.39958889991976,0.08705319976434112,0.19757269974797964,514.0994343999773,514.2994584999979,6.031055599683896,6.130892899818718,520.2997435999569,12.031257899710909,520.3995601998176,520.3995601998176,520.4329017000273,520.4329017000273,0.031246499624103308,0.13123249961063266,down,1.6372990999370813,522.115929499967,4.239985719323158e-05,0.09803809993900359,528.1165622000117,528.1165622000117,0.009213200071826577,0.09778110007755458,1.0,1.9897590999025851,,,,,,,528.1165622000117,,508.29947089985944,508.29947089985944,,,671,Moral,2024-03-15_17h16.06.447,MoralCondition_v2,2022.2.5,30.00032700954687,
10,0,10,0,1,0,1,0,,,,,,,,,,,,,,,,,,,,,,,,,,,,,,,,,,,,,,,,,,,,,,,,,,,,,,530.1491723000072,530.1491723000072,0.0076286999974399805,0.09772749990224838,7.0,1.425126199843362,,,,,,,,,,,,,671,Moral,2024-03-15_17h16.06.447,MoralCondition_v2,2022.2.5,30.00032700954687,
10,0,10,0,2,0,2,0,,,,,,,,,,,,,,,,,,,,,,,,,,,,,,,,,,,,,,,,,,,,,,,,,,,,,,531.632853699848,531.632853699848,0.009888299973681569,0.11521829990670085,1.0,1.439795200014487,,,,,,,,,,,,,671,Moral,2024-03-15_17h16.06.447,MoralCondition_v2,2022.2.5,30.00032700954687,
10,0,10,0,3,0,3,0,,,,,,,,,,,,,,,,,,,,,,,,,,,,,,,,,,,,,,,,,,,,,,,,,,,,,,533.1163605998736,533.1163605998736,0.008561500115320086,0.11394029995426536,1.0,0.6068311999551952,,,,,,,,,,,,,671,Moral,2024-03-15_17h16.06.447,MoralCondition_v2,2022.2.5,30.00032700954687,
10,0,10,0,4,0,4,0,,,,,,,,,,,,,,,,,,,,,,,,,,,,,,,,,,,,,,,,,,,,,,,,,,,,,,533.749330499908,533.749330499908,0.008174400078132749,0.09835890005342662,1.0,0.45768390013836324,,,,,,,,,,,,,671,Moral,2024-03-15_17h16.06.447,MoralCondition_v2,2022.2.5,30.00032700954687,
10,0,10,0,5,0,5,0,,,,,,,,,,,,,,,,,,,,,,,,,,,,,,,,,,,,,,,,,,,,,,,,,,,,,,534.249513000017,534.249513000017,0.006783399963751435,0.09916149987839162,1.0,0.5601812000386417,,,,,,,,,,,,,671,Moral,2024-03-15_17h16.06.447,MoralCondition_v2,2022.2.5,30.00032700954687,
10,0,10,0,6,0,6,0,,,,,,,,,,,,,,,,,,,,,,,,,,,,,,,,,,,,,,,,,,,,,,,,,,,,,,534.849533499917,534.849533499917,0.006577500142157078,0.09898709994740784,1.0,0.6602632999420166,,,,,,,,,,,,,671,Moral,2024-03-15_17h16.06.447,MoralCondition_v2,2022.2.5,30.00032700954687,
10,0,10,0,,,,,,,,,,,,,,,,,,,,,,,,,,,,,,,,,,,,,,,,,,,,,,,,,,,,,,,,,,,,,,,,535.5495451998431,535.5495451998431,0.0011777000036090612,0.09796310006640851,7.0,1.3646673001348972,,,,,,,671,Moral,2024-03-15_17h16.06.447,MoralCondition_v2,2022.2.5,30.00032700954687,
11,0,11,0,0,0,0,0,,,,,,,,,,,,,,,,,,,,,,536.9494784998242,0.0004868998657912016,0.09691679989919066,542.9660487000365,6.013532999902964,543.1494303999934,543.1494303999934,0.08426919975318015,0.19693569978699088,6.030175299849361,549.2495339999441,549.2495339999441,549.2495339999441,0.08580869971774518,0.19689929974265397,554.9493414999451,555.1493593999185,6.030266499845311,6.130148299736902,561.1493069999851,12.03021499980241,561.2494620999787,561.2494620999787,561.2826251999941,561.2826251999941,0.03052049968391657,0.130154799669981,up,1.0360556000377983,562.3826458998956,4.7999899834394455e-05,0.11449659988284111,568.3991928999312,568.3991928999312,0.02520809997804463,0.11444539995864034,7.0,2.290353500051424,,,,,,,,,549.1493232999928,549.1493232999928,,,671,Moral,2024-03-15_17h16.06.447,MoralCondition_v2,2022.2.5,30.00032700954687,
11,0,11,0,1,0,1,0,,,,,,,,,,,,,,,,,,,,,,,,,,,,,,,,,,,,,,,,,,,,,,,,,,,,,,570.7325483998284,570.7325483998284,0.006576499901711941,0.09911499987356365,1.0,1.1937763001769781,,,,,,,,,,,,,671,Moral,2024-03-15_17h16.06.447,MoralCondition_v2,2022.2.5,30.00032700954687,
11,0,11,0,2,0,2,0,,,,,,,,,,,,,,,,,,,,,,,,,,,,,,,,,,,,,,,,,,,,,,,,,,,,,,571.982669999823,571.982669999823,0.009130200138315558,0.11557070002891123,1.0,0.30762739991769195,,,,,,,,,,,,,671,Moral,2024-03-15_17h16.06.447,MoralCondition_v2,2022.2.5,30.00032700954687,
11,0,11,0,3,0,3,0,,,,,,,,,,,,,,,,,,,,,,,,,,,,,,,,,,,,,,,,,,,,,,,,,,,,,,572.3158455998637,572.3158455998637,0.00739159993827343,0.09800729993730783,1.0,0.2586525999940932,,,,,,,,,,,,,671,Moral,2024-03-15_17h16.06.447,MoralCondition_v2,2022.2.5,30.00032700954687,
11,0,11,0,4,0,4,0,,,,,,,,,,,,,,,,,,,,,,,,,,,,,,,,,,,,,,,,,,,,,,,,,,,,,,572.6327074000146,572.6327074000146,0.008326000068336725,0.11418240005150437,1.0,0.373640300007537,,,,,,,,,,,,,671,Moral,2024-03-15_17h16.06.447,MoralCondition_v2,2022.2.5,30.00032700954687,
11,0,11,0,5,0,5,0,,,,,,,,,,,,,,,,,,,,,,,,,,,,,,,,,,,,,,,,,,,,,,,,,,,,,,573.0327124998439,573.0327124998439,0.008238200098276138,0.09758480009622872,1.0,0.490419200155884,,,,,,,,,,,,,671,Moral,2024-03-15_17h16.06.447,MoralCondition_v2,2022.2.5,30.00032700954687,
11,0,11,0,6,0,6,0,,,,,,,,,,,,,,,,,,,,,,,,,,,,,,,,,,,,,,,,,,,,,,,,,,,,,,573.5659932999406,573.5659932999406,0.006590900011360645,0.09942639991641045,1.0,0.4936162999365479,,,,,,,,,,,,,671,Moral,2024-03-15_17h16.06.447,MoralCondition_v2,2022.2.5,30.00032700954687,
11,0,11,0,,,,,,,,,,,,,,,,,,,,,,,,,,,,,,,,,,,,,,,,,,,,,,,,,,,,,,,,,,,,,,,,574.0991668000352,574.0991668000352,0.0016989998985081911,0.09807539987377822,7.0,1.3311165000777692,,,,,,,671,Moral,2024-03-15_17h16.06.447,MoralCondition_v2,2022.2.5,30.00032700954687,
12,0,12,0,0,0,0,0,,,,,,,,,,,,,,,,,,,,,,575.4660982999485,0.00026650005020201206,0.09783690003678203,581.4658542999532,6.031126100104302,581.6658927998506,581.6658927998506,0.08667410002090037,0.197770900093019,6.031089199939743,587.765953599941,587.765953599941,587.765953599941,0.08712319983169436,0.1980492000002414,593.465883199824,593.6658450998366,6.0311162997968495,6.131129699992016,599.665824299911,12.031097099883482,599.7658658998553,599.7658658998553,599.7993109999225,599.7993109999225,0.03133819974027574,0.131067699752748,down,0.7986728001851588,600.649171799887,5.159992724657059e-05,0.09751240001060069,606.665803299984,606.665803299984,0.025325499940663576,0.11417509987950325,7.0,2.4565810000058264,,,,,,,,,587.665851800004,587.665851800004,,,671,Moral,2024-03-15_17h16.06.447,MoralCondition_v2,2022.2.5,30.00032700954687,
12,0,12,0,1,0,1,0,,,,,,,,,,,,,,,,,,,,,,,,,,,,,,,,,,,,,,,,,,,,,,,,,,,,,,609.1825876999646,609.1825876999646,0.008146299980580807,0.11398080014623702,1.0,1.6399909001775086,,,,,,,,,,,,,671,Moral,2024-03-15_17h16.06.447,MoralCondition_v2,2022.2.5,30.00032700954687,
12,0,12,0,2,0,2,0,,,,,,,,,,,,,,,,,,,,,,,,,,,,,,,,,,,,,,,,,,,,,,,,,,,,,,610.8490986998659,610.8490986998659,0.007206199923530221,0.09800400002859533,1.0,0.6249675001017749,,,,,,,,,,,,,671,Moral,2024-03-15_17h16.06.447,MoralCondition_v2,2022.2.5,30.00032700954687,
12,0,12,0,3,0,3,0,,,,,,,,,,,,,,,,,,,,,,,,,,,,,,,,,,,,,,,,,,,,,,,,,,,,,,611.5157869998366,611.5157869998366,0.007691799895837903,0.0976342000067234,1.0,0.4909981000237167,,,,,,,,,,,,,671,Moral,2024-03-15_17h16.06.447,MoralCondition_v2,2022.2.5,30.00032700954687,
12,0,12,0,4,0,4,0,,,,,,,,,,,,,,,,,,,,,,,,,,,,,,,,,,,,,,,,,,,,,,,,,,,,,,612.0660126998555,612.0660126998555,0.007881200173869729,0.11443870002403855,1.0,0.5408451999537647,,,,,,,,,,,,,671,Moral,2024-03-15_17h16.06.447,MoralCondition_v2,2022.2.5,30.00032700954687,
12,0,12,0,5,0,5,0,,,,,,,,,,,,,,,,,,,,,,,,,,,,,,,,,,,,,,,,,,,,,,,,,,,,,,612.6326390998438,612.6326390998438,0.007023100042715669,0.09791640006005764,1.0,1.6251831001136452,,,,,,,,,,,,,671,Moral,2024-03-15_17h16.06.447,MoralCondition_v2,2022.2.5,30.00032700954687,
12,0,12,0,6,0,6,0,,,,,,,,,,,,,,,,,,,,,,,,,,,,,,,,,,,,,,,,,,,,,,,,,,,,,,614.2992234998383,614.2992234998383,0.008124300045892596,0.09752820013090968,7.0,1.557527600089088,,,,,,,,,,,,,671,Moral,2024-03-15_17h16.06.447,MoralCondition_v2,2022.2.5,30.00032700954687,
12,0,12,0,,,,,,,,,,,,,,,,,,,,,,,,,,,,,,,,,,,,,,,,,,,,,,,,,,,,,,,,,,,,,,,,615.8993092998862,615.8993092998862,0.000731299864128232,0.09931849990971386,1.0,2.233349099988118,,,,,,,671,Moral,2024-03-15_17h16.06.447,MoralCondition_v2,2022.2.5,30.00032700954687,
13,0,13,0,0,0,0,0,,,,,,,,,,,,,,,,,,,,,,618.1658272999339,0.0002794000320136547,0.09857810009270906,624.1658065998927,6.031925600022078,624.365814199904,624.365814199904,0.0871793997939676,0.1984738998580724,6.031822099816054,630.4658957000356,630.4658957000356,630.4658957000356,0.0875724998768419,0.1985023997258395,636.1658995999023,636.3657201998867,6.03187709976919,6.131785599747673,642.3658698999789,12.032037299824879,642.4657598000485,642.4657598000485,642.4990731000435,642.4990731000435,0.032072299625724554,0.13199479971081018,down,0.7956647998653352,643.3324118000455,3.4499913454055786e-05,0.0977978000883013,649.349267499987,649.349267499987,0.009539399994537234,0.11442809994332492,1.0,3.2060068999417126,,,,,,,649.349267499987,,630.3657567000482,630.3657567000482,,,671,Moral,2024-03-15_17h16.06.447,MoralCondition_v2,2022.2.5,30.00032700954687,
13,0,13,0,1,0,1,0,,,,,,,,,,,,,,,,,,,,,,,,,,,,,,,,,,,,,,,,,,,,,,,,,,,,,,652.5823043000419,652.5823043000419,0.0077228001318871975,0.0979069999884814,1.0,0.5912407001014799,,,,,,,,,,,,,671,Moral,2024-03-15_17h16.06.447,MoralCondition_v2,2022.2.5,30.00032700954687,
13,0,13,0,2,0,2,0,,,,,,,,,,,,,,,,,,,,,,,,,,,,,,,,,,,,,,,,,,,,,,,,,,,,,,653.2155366998632,653.2155366998632,0.00729390000924468,0.09795180009678006,7.0,1.6250141998752952,,,,,,,,,,,,,671,Moral,2024-03-15_17h16.06.447,MoralCondition_v2,2022.2.5,30.00032700954687,
13,0,13,0,3,0,3,0,,,,,,,,,,,,,,,,,,,,,,,,,,,,,,,,,,,,,,,,,,,,,,,,,,,,,,654.8823055999819,654.8823055999819,0.007166699972003698,0.09943910012952983,7.0,0.8599332000594586,,,,,,,,,,,,,671,Moral,2024-03-15_17h16.06.447,MoralCondition_v2,2022.2.5,30.00032700954687,
13,0,13,0,4,0,4,0,,,,,,,,,,,,,,,,,,,,,,,,,,,,,,,,,,,,,,,,,,,,,,,,,,,,,,655.7821422999259,655.7821422999259,0.008676599944010377,0.09747310006059706,1.0,1.689641600009054,,,,,,,,,,,,,671,Moral,2024-03-15_17h16.06.447,MoralCondition_v2,2022.2.5,30.00032700954687,
13,0,13,0,5,0,5,0,,,,,,,,,,,,,,,,,,,,,,,,,,,,,,,,,,,,,,,,,,,,,,,,,,,,,,657.5158151998185,657.5158151998185,0.006595600163564086,0.09919810015708208,1.0,0.527450299821794,,,,,,,,,,,,,671,Moral,2024-03-15_17h16.06.447,MoralCondition_v2,2022.2.5,30.00032700954687,
13,0,13,0,6,0,6,0,,,,,,,,,,,,,,,,,,,,,,,,,,,,,,,,,,,,,,,,,,,,,,,,,,,,,,658.0990925999358,658.0990925999358,0.008208499988541007,0.1138428000267595,1.0,0.6740055999252945,,,,,,,,,,,,,671,Moral,2024-03-15_17h16.06.447,MoralCondition_v2,2022.2.5,30.00032700954687,
13,0,13,0,,,,,,,,,,,,,,,,,,,,,,,,,,,,,,,,,,,,,,,,,,,,,,,,,,,,,,,,,,,,,,,,658.799056999851,658.799056999851,0.0012393000070005655,0.09795670001767576,1.0,1.7313814000226557,,,,,,,671,Moral,2024-03-15_17h16.06.447,MoralCondition_v2,2022.2.5,30.00032700954687,
14,0,14,0,0,0,0,0,,,,,,,,,,,,,,,,,,,,,,660.5659244998824,0.00026210001669824123,0.09711860003881156,666.5659072999842,6.030938599957153,666.7656427999027,666.7656427999027,0.08466489985585213,0.19758829986676574,6.0306636998429894,672.8490452000406,672.8490452000406,672.8490452000406,0.06720569985918701,0.181160899810493,678.5491310998332,678.7489671998192,6.0139899998903275,6.114171599969268,684.748987799976,12.014005499891937,684.8321217000484,684.8321217000484,684.8822873998433,684.8822873998433,0.013916499679908156,0.11390749970450997,up,1.348426700104028,686.2656205999665,4.2800093069672585e-05,0.09752760012634099,692.2823783999775,692.2823783999775,0.008195600006729364,0.11409449996426702,7.0,1.9906907000113279,,,,,,,692.2823783999775,,672.74879959994,672.74879959994,,,671,Moral,2024-03-15_17h16.06.447,MoralCondition_v2,2022.2.5,30.00032700954687,
14,0,14,0,1,0,1,0,,,,,,,,,,,,,,,,,,,,,,,,,,,,,,,,,,,,,,,,,,,,,,,,,,,,,,694.2987820999697,694.2987820999697,0.006631199968978763,0.09916360001079738,1.0,1.2602499998174608,,,,,,,,,,,,,671,Moral,2024-03-15_17h16.06.447,MoralCondition_v2,2022.2.5,30.00032700954687,
14,0,14,0,2,0,2,0,,,,,,,,,,,,,,,,,,,,,,,,,,,,,,,,,,,,,,,,,,,,,,,,,,,,,,695.5989780998789,695.5989780998789,0.007636199938133359,0.09795679990202188,1.0,0.2579979000147432,,,,,,,,,,,,,671,Moral,2024-03-15_17h16.06.447,MoralCondition_v2,2022.2.5,30.00032700954687,
14,0,14,0,3,0,3,0,,,,,,,,,,,,,,,,,,,,,,,,,,,,,,,,,,,,,,,,,,,,,,,,,,,,,,695.8988323998637,695.8988323998637,0.007112100021913648,0.09795710002072155,1.0,0.2920116998720914,,,,,,,,,,,,,671,Moral,2024-03-15_17h16.06.447,MoralCondition_v2,2022.2.5,30.00032700954687,
14,0,14,0,4,0,4,0,,,,,,,,,,,,,,,,,,,,,,,,,,,,,,,,,,,,,,,,,,,,,,,,,,,,,,696.2322311999742,696.2322311999742,0.007231799885630608,0.09763689991086721,1.0,0.35819429997354746,,,,,,,,,,,,,671,Moral,2024-03-15_17h16.06.447,MoralCondition_v2,2022.2.5,30.00032700954687,
14,0,14,0,5,0,5,0,,,,,,,,,,,,,,,,,,,,,,,,,,,,,,,,,,,,,,,,,,,,,,,,,,,,,,696.6324509999249,696.6324509999249,0.006691500078886747,0.09911589999683201,1.0,0.46018710010685027,,,,,,,,,,,,,671,Moral,2024-03-15_17h16.06.447,MoralCondition_v2,2022.2.5,30.00032700954687,
14,0,14,0,6,0,6,0,,,,,,,,,,,,,,,,,,,,,,,,,,,,,,,,,,,,,,,,,,,,,,,,,,,,,,697.1320892998483,697.1320892998483,0.007333100074902177,0.09837769996374846,1.0,0.4588250999804586,,,,,,,,,,,,,671,Moral,2024-03-15_17h16.06.447,MoralCondition_v2,2022.2.5,30.00032700954687,
14,0,14,0,,,,,,,,,,,,,,,,,,,,,,,,,,,,,,,,,,,,,,,,,,,,,,,,,,,,,,,,,,,,,,,,697.6324550998397,697.6324550998397,0.0008270000107586384,0.09901520004495978,7.0,1.899506099987775,,,,,,,671,Moral,2024-03-15_17h16.06.447,MoralCondition_v2,2022.2.5,30.00032700954687,
15,0,15,0,0,0,0,0,,,,,,,,,,,,,,,,,,,,,,699.5658851999324,0.0002987000625580549,0.09733150014653802,705.5655550998636,6.030675300164148,705.7657423999626,705.7657423999626,0.08498560008592904,0.19736240012571216,6.030605100095272,711.8657176999841,711.8657176999841,711.8657176999841,0.08435739995911717,0.1974251999054104,717.565484700026,717.7654168000445,6.030434199841693,6.130359699949622,723.7654891000129,12.03057729988359,723.8655995998997,723.8655995998997,723.8989903999027,723.8989903999027,0.03087759972549975,0.13065859978087246,up,1.9313107999041677,725.865491699893,3.269989974796772e-05,0.09928860003128648,731.8821315998212,731.8821315998212,0.013013900024816394,0.1160401999950409,7.0,1.637243099976331,,,,,,,731.8821315998212,,711.7655511000194,711.7655511000194,,,671,Moral,2024-03-15_17h16.06.447,MoralCondition_v2,2022.2.5,30.00032700954687,
15,0,15,0,1,0,1,0,,,,,,,,,,,,,,,,,,,,,,,,,,,,,,,,,,,,,,,,,,,,,,,,,,,,,,733.5657424000092,733.5657424000092,0.007836000062525272,0.11409000004641712,1.0,1.2406672001816332,,,,,,,,,,,,,671,Moral,2024-03-15_17h16.06.447,MoralCondition_v2,2022.2.5,30.00032700954687,
15,0,15,0,2,0,2,0,,,,,,,,,,,,,,,,,,,,,,,,,,,,,,,,,,,,,,,,,,,,,,,,,,,,,,734.8321668000426,734.8321668000426,0.006311799865216017,0.09932329994626343,1.0,0.22724150004796684,,,,,,,,,,,,,671,Moral,2024-03-15_17h16.06.447,MoralCondition_v2,2022.2.5,30.00032700954687,
15,0,15,0,3,0,3,0,,,,,,,,,,,,,,,,,,,,,,,,,,,,,,,,,,,,,,,,,,,,,,,,,,,,,,735.1154524998274,735.1154524998274,0.008379500126466155,0.11423230008222163,1.0,0.17356399982236326,,,,,,,,,,,,,671,Moral,2024-03-15_17h16.06.447,MoralCondition_v2,2022.2.5,30.00032700954687,
15,0,15,0,4,0,4,0,,,,,,,,,,,,,,,,,,,,,,,,,,,,,,,,,,,,,,,,,,,,,,,,,,,,,,735.3156433999538,735.3156433999538,0.00871319998987019,0.09918420016765594,1.0,0.5917769998777658,,,,,,,,,,,,,671,Moral,2024-03-15_17h16.06.447,MoralCondition_v2,2022.2.5,30.00032700954687,
15,0,15,0,5,0,5,0,,,,,,,,,,,,,,,,,,,,,,,,,,,,,,,,,,,,,,,,,,,,,,,,,,,,,,735.9487829999998,735.9487829999998,0.006641200045123696,0.0982218999415636,1.0,0.6259974001441151,,,,,,,,,,,,,671,Moral,2024-03-15_17h16.06.447,MoralCondition_v2,2022.2.5,30.00032700954687,
15,0,15,0,6,0,6,0,,,,,,,,,,,,,,,,,,,,,,,,,,,,,,,,,,,,,,,,,,,,,,,,,,,,,,736.6155854000244,736.6155854000244,0.007369600003585219,0.09766860003583133,1.0,0.9245670000091195,,,,,,,,,,,,,671,Moral,2024-03-15_17h16.06.447,MoralCondition_v2,2022.2.5,30.00032700954687,
15,0,15,0,,,,,,,,,,,,,,,,,,,,,,,,,,,,,,,,,,,,,,,,,,,,,,,,,,,,,,,,,,,,,,,,737.5824100999162,737.5824100999162,0.0006920001469552517,0.09927670005708933,3.0,2.7331152998376638,,,,,,,671,Moral,2024-03-15_17h16.06.447,MoralCondition_v2,2022.2.5,30.00032700954687,
16,0,16,0,0,0,0,0,,,,,,,,,,,,,,,,,,,,,,740.3490628998261,0.00027900002896785736,0.09787619998678565,746.365417300025,6.014490999979898,746.5320742998738,746.5320742998738,0.0761019999627024,0.18137519992887974,6.01456439984031,752.6320924998727,752.6320924998727,752.6320924998727,0.07450049975886941,0.18098319973796606,758.3320575000253,758.5320708998479,6.014508699765429,6.114475099835545,764.5320653000381,12.014524899888784,764.6320584998466,764.6320584998466,764.6653874998447,764.6653874998447,0.014650799799710512,0.11457979981787503,down,3.293256300035864,767.9987979000434,5.1800161600112915e-05,0.09801449999213219,774.015226099873,774.015226099873,0.025509400060400367,0.11443280009552836,6.0,3.1903095999732614,,,,,,,,,752.5323709000368,752.5323709000368,,,671,Moral,2024-03-15_17h16.06.447,MoralCondition_v2,2022.2.5,30.00032700954687,
16,0,16,0,1,0,1,0,,,,,,,,,,,,,,,,,,,,,,,,,,,,,,,,,,,,,,,,,,,,,,,,,,,,,,777.2654116998892,777.2654116998892,0.008739399956539273,0.11441399995237589,1.0,1.7065682001411915,,,,,,,,,,,,,671,Moral,2024-03-15_17h16.06.447,MoralCondition_v2,2022.2.5,30.00032700954687,
16,0,16,0,2,0,2,0,,,,,,,,,,,,,,,,,,,,,,,,,,,,,,,,,,,,,,,,,,,,,,,,,,,,,,778.9986389998812,778.9986389998812,0.0074263999704271555,0.09773340006358922,1.0,0.5914477000478655,,,,,,,,,,,,,671,Moral,2024-03-15_17h16.06.447,MoralCondition_v2,2022.2.5,30.00032700954687,
16,0,16,0,3,0,3,0,,,,,,,,,,,,,,,,,,,,,,,,,,,,,,,,,,,,,,,,,,,,,,,,,,,,,,779.6488146998454,779.6488146998454,0.007693600142374635,0.11440169997513294,1.0,0.5076130998786539,,,,,,,,,,,,,671,Moral,2024-03-15_17h16.06.447,MoralCondition_v2,2022.2.5,30.00032700954687,
16,0,16,0,4,0,4,0,,,,,,,,,,,,,,,,,,,,,,,,,,,,,,,,,,,,,,,,,,,,,,,,,,,,,,780.1820243999828,780.1820243999828,0.007042400073260069,0.09803660004399717,1.0,0.4922171998769045,,,,,,,,,,,,,671,Moral,2024-03-15_17h16.06.447,MoralCondition_v2,2022.2.5,30.00032700954687,
16,0,16,0,5,0,5,0,,,,,,,,,,,,,,,,,,,,,,,,,,,,,,,,,,,,,,,,,,,,,,,,,,,,,,780.7155410000123,780.7155410000123,0.0075489000882953405,0.09767900011502206,6.0,1.4251367000397295,,,,,,,,,,,,,671,Moral,2024-03-15_17h16.06.447,MoralCondition_v2,2022.2.5,30.00032700954687,
16,0,16,0,6,0,6,0,,,,,,,,,,,,,,,,,,,,,,,,,,,,,,,,,,,,,,,,,,,,,,,,,,,,,,782.1817663998809,782.1817663998809,0.0072772998828440905,0.09783599991351366,1.0,1.0583929000422359,,,,,,,,,,,,,671,Moral,2024-03-15_17h16.06.447,MoralCondition_v2,2022.2.5,30.00032700954687,
16,0,16,0,,,,,,,,,,,,,,,,,,,,,,,,,,,,,,,,,,,,,,,,,,,,,,,,,,,,,,,,,,,,,,,,783.2822238998488,783.2822238998488,0.001517999917268753,0.097408999921754,2.0,2.0637592000421137,,,,,,,671,Moral,2024-03-15_17h16.06.447,MoralCondition_v2,2022.2.5,30.00032700954687,
17,0,17,0,0,0,0,0,,,,,,,,,,,,,,,,,,,,,,785.3823235998861,0.00028529996052384377,0.09745829994790256,791.3820950998925,6.03104929998517,791.5821016998962,791.5821016998962,0.08558209985494614,0.19756609993055463,6.03094179998152,797.6819054998923,797.6819054998923,797.6819054998923,0.08620579983107746,0.1978005999699235,803.3820845999289,803.5819989000447,6.0309462998993695,6.131070799892768,809.5819369000383,12.030974599765614,809.6819574998226,809.6819574998226,809.7152813998982,809.7152813998982,0.0311530998442322,0.1307352997828275,up,1.3865326999220997,811.1485892999917,4.4800108298659325e-05,0.09805999998934567,817.1652372998651,817.1652372998651,0.024984699906781316,0.11463949992321432,1.0,1.4574774000793695,,,,,,,,,797.5820304998197,797.5820304998197,,,671,Moral,2024-03-15_17h16.06.447,MoralCondition_v2,2022.2.5,30.00032700954687,
17,0,17,0,1,0,1,0,,,,,,,,,,,,,,,,,,,,,,,,,,,,,,,,,,,,,,,,,,,,,,,,,,,,,,818.6654611998238,818.6654611998238,0.00749400001950562,0.09754909994080663,1.0,0.724354200065136,,,,,,,,,,,,,671,Moral,2024-03-15_17h16.06.447,MoralCondition_v2,2022.2.5,30.00032700954687,
17,0,17,0,2,0,2,0,,,,,,,,,,,,,,,,,,,,,,,,,,,,,,,,,,,,,,,,,,,,,,,,,,,,,,819.4319479998667,819.4319479998667,0.008558299858123064,0.09691419987939298,7.0,1.9892430999316275,,,,,,,,,,,,,671,Moral,2024-03-15_17h16.06.447,MoralCondition_v2,2022.2.5,30.00032700954687,
17,0,17,0,3,0,3,0,,,,,,,,,,,,,,,,,,,,,,,,,,,,,,,,,,,,,,,,,,,,,,,,,,,,,,821.4652598998509,821.4652598998509,0.006927999900653958,0.09950529993511736,1.0,1.260131699964404,,,,,,,,,,,,,671,Moral,2024-03-15_17h16.06.447,MoralCondition_v2,2022.2.5,30.00032700954687,
17,0,17,0,4,0,4,0,,,,,,,,,,,,,,,,,,,,,,,,,,,,,,,,,,,,,,,,,,,,,,,,,,,,,,822.7652795000467,822.7652795000467,0.007501000072807074,0.09930700017139316,1.0,0.2593932000454515,,,,,,,,,,,,,671,Moral,2024-03-15_17h16.06.447,MoralCondition_v2,2022.2.5,30.00032700954687,
17,0,17,0,5,0,5,0,,,,,,,,,,,,,,,,,,,,,,,,,,,,,,,,,,,,,,,,,,,,,,,,,,,,,,823.0819991000462,823.0819991000462,0.007916399976238608,0.11427300004288554,1.0,0.5072174998931587,,,,,,,,,,,,,671,Moral,2024-03-15_17h16.06.447,MoralCondition_v2,2022.2.5,30.00032700954687,
17,0,17,0,6,0,6,0,,,,,,,,,,,,,,,,,,,,,,,,,,,,,,,,,,,,,,,,,,,,,,,,,,,,,,823.6152390998323,823.6152390998323,0.006937700090929866,0.09797229990363121,1.0,0.5583128998987377,,,,,,,,,,,,,671,Moral,2024-03-15_17h16.06.447,MoralCondition_v2,2022.2.5,30.00032700954687,
17,0,17,0,,,,,,,,,,,,,,,,,,,,,,,,,,,,,,,,,,,,,,,,,,,,,,,,,,,,,,,,,,,,,,,,824.2152519000228,824.2152519000228,0.001179700018838048,0.09780069999396801,7.0,1.4644130000378937,,,,,,,671,Moral,2024-03-15_17h16.06.447,MoralCondition_v2,2022.2.5,30.00032700954687,
18,0,18,0,0,0,0,0,,,,,,,,,,,,,,,,,,,,,,825.7152197998948,0.0005071000196039677,0.0972459998447448,831.7318610998336,6.01387199992314,831.8985269998666,831.8985269998666,0.07387839979492128,0.18051939993165433,6.01390209980309,837.9985195999034,837.9985195999034,837.9985195999034,0.07322049979120493,0.1805073998402804,843.6988196000457,843.8984030999709,6.013719999697059,6.113949499791488,849.8985482999124,12.01392659987323,849.9986169999465,849.9986169999465,850.0317861998919,850.0317861998919,0.014142299769446254,0.11382069974206388,up,2.574478300055489,852.6651266999543,5.3999945521354675e-05,0.09786669979803264,858.6817401999142,858.6817401999142,0.025500399991869926,0.11448649992235005,1.0,0.8232718999497592,,,,,,,,,837.8985049999319,837.8985049999319,,,671,Moral,2024-03-15_17h16.06.447,MoralCondition_v2,2022.2.5,30.00032700954687,
18,0,18,0,1,0,1,0,,,,,,,,,,,,,,,,,,,,,,,,,,,,,,,,,,,,,,,,,,,,,,,,,,,,,,859.5483210999519,859.5483210999519,0.007452599937096238,0.09768090001307428,1.0,0.5580905000679195,,,,,,,,,,,,,671,Moral,2024-03-15_17h16.06.447,MoralCondition_v2,2022.2.5,30.00032700954687,
18,0,18,0,2,0,2,0,,,,,,,,,,,,,,,,,,,,,,,,,,,,,,,,,,,,,,,,,,,,,,,,,,,,,,860.1484976999927,860.1484976999927,0.007179200183600187,0.09792880015447736,1.0,0.2589624999091029,,,,,,,,,,,,,671,Moral,2024-03-15_17h16.06.447,MoralCondition_v2,2022.2.5,30.00032700954687,
18,0,18,0,3,0,3,0,,,,,,,,,,,,,,,,,,,,,,,,,,,,,,,,,,,,,,,,,,,,,,,,,,,,,,860.4652486999985,860.4652486999985,0.007802400039508939,0.11467379983514547,1.0,0.30788780003786087,,,,,,,,,,,,,671,Moral,2024-03-15_17h16.06.447,MoralCondition_v2,2022.2.5,30.00032700954687,
18,0,18,0,4,0,4,0,,,,,,,,,,,,,,,,,,,,,,,,,,,,,,,,,,,,,,,,,,,,,,,,,,,,,,860.7986585998442,860.7986585998442,0.006996299838647246,0.09869609982706606,6.0,1.7590564999263734,,,,,,,,,,,,,671,Moral,2024-03-15_17h16.06.447,MoralCondition_v2,2022.2.5,30.00032700954687,
18,0,18,0,5,0,5,0,,,,,,,,,,,,,,,,,,,,,,,,,,,,,,,,,,,,,,,,,,,,,,,,,,,,,,862.598337699892,862.598337699892,0.006245200056582689,0.09862140007317066,1.0,1.1268536001443863,,,,,,,,,,,,,671,Moral,2024-03-15_17h16.06.447,MoralCondition_v2,2022.2.5,30.00032700954687,
18,0,18,0,6,0,6,0,,,,,,,,,,,,,,,,,,,,,,,,,,,,,,,,,,,,,,,,,,,,,,,,,,,,,,863.7653393999208,863.7653393999208,0.007696700049564242,0.09746289998292923,1.0,0.6911508999764919,,,,,,,,,,,,,671,Moral,2024-03-15_17h16.06.447,MoralCondition_v2,2022.2.5,30.00032700954687,
18,0,18,0,,,,,,,,,,,,,,,,,,,,,,,,,,,,,,,,,,,,,,,,,,,,,,,,,,,,,,,,,,,,,,,,864.4984369999729,864.4984369999729,0.001126500079408288,0.09840360004454851,3.0,2.09841650002636,,,,,,,671,Moral,2024-03-15_17h16.06.447,MoralCondition_v2,2022.2.5,30.00032700954687,
19,0,19,0,0,0,0,0,,,,,,,,,,,,,,,,,,,,,,866.6317499999423,0.0005536000244319439,0.09723279997706413,872.631733499933,6.030538100050762,872.8319351000246,872.8319351000246,0.0840378999710083,0.19743649987503886,6.030466499971226,878.9319345999975,878.9319345999975,878.9319345999975,0.08202629978768528,0.1970775998197496,884.6316912998445,884.8319818000309,6.0307604998815805,6.130442599998787,890.8316935999319,12.030632299836725,890.9317176998593,890.9317176998593,890.9651528999675,890.9651528999675,0.030692799715325236,0.13039769977331161,up,0.19289119984023273,891.1983419000171,4.6900007873773575e-05,0.09781740000471473,897.2154623998795,897.2154623998795,0.025499299867078662,0.11433979985304177,1.0,4.056687599979341,,,,,,,,,878.8317320998758,878.8317320998758,,,671,Moral,2024-03-15_17h16.06.447,MoralCondition_v2,2022.2.5,30.00032700954687,
19,0,19,0,1,0,1,0,,,,,,,,,,,,,,,,,,,,,,,,,,,,,,,,,,,,,,,,,,,,,,,,,,,,,,901.3150038998574,901.3150038998574,0.006575800012797117,0.09907739982008934,1.0,0.4601733998861164,,,,,,,,,,,,,671,Moral,2024-03-15_17h16.06.447,MoralCondition_v2,2022.2.5,30.00032700954687,
19,0,19,0,2,0,2,0,,,,,,,,,,,,,,,,,,,,,,,,,,,,,,,,,,,,,,,,,,,,,,,,,,,,,,901.8319075000472,901.8319075000472,0.007826199987903237,0.1143312999047339,1.0,0.47406659997068346,,,,,,,,,,,,,671,Moral,2024-03-15_17h16.06.447,MoralCondition_v2,2022.2.5,30.00032700954687,
19,0,19,0,3,0,3,0,,,,,,,,,,,,,,,,,,,,,,,,,,,,,,,,,,,,,,,,,,,,,,,,,,,,,,902.3484853999689,902.3484853999689,0.008694700198248029,0.11390960006974638,1.0,0.4730940000154078,,,,,,,,,,,,,671,Moral,2024-03-15_17h16.06.447,MoralCondition_v2,2022.2.5,30.00032700954687,
19,0,19,0,4,0,4,0,,,,,,,,,,,,,,,,,,,,,,,,,,,,,,,,,,,,,,,,,,,,,,,,,,,,,,902.865235199919,902.865235199919,0.008803799981251359,0.11407289979979396,1.0,0.5395737001672387,,,,,,,,,,,,,671,Moral,2024-03-15_17h16.06.447,MoralCondition_v2,2022.2.5,30.00032700954687,
19,0,19,0,5,0,5,0,,,,,,,,,,,,,,,,,,,,,,,,,,,,,,,,,,,,,,,,,,,,,,,,,,,,,,903.4316897999961,903.4316897999961,0.006715500028803945,0.09916220000013709,7.0,1.4937279000878334,,,,,,,,,,,,,671,Moral,2024-03-15_17h16.06.447,MoralCondition_v2,2022.2.5,30.00032700954687,
19,0,19,0,6,0,6,0,,,,,,,,,,,,,,,,,,,,,,,,,,,,,,,,,,,,,,,,,,,,,,,,,,,,,,904.9649511999451,904.9649511999451,0.008902800036594272,0.09901640005409718,1.0,1.125095000024885,,,,,,,,,,,,,671,Moral,2024-03-15_17h16.06.447,MoralCondition_v2,2022.2.5,30.00032700954687,
19,0,19,0,,,,,,,,,,,,,,,,,,,,,,,,,,,,,,,,,,,,,,,,,,,,,,,,,,,,,,,,,,,,,,,,906.1315720998682,906.1315720998682,0.0007145998533815145,0.09908229997381568,7.0,1.2329780999571085,,,,,,,671,Moral,2024-03-15_17h16.06.447,MoralCondition_v2,2022.2.5,30.00032700954687,
