loop.thisRepN,loop.thisTrialN,loop.thisN,loop.thisIndex,evaluate_all_emotions.thisRepN,evaluate_all_emotions.thisTrialN,evaluate_all_emotions.thisN,evaluate_all_emotions.thisIndex,sync_beep_1.started,p_port.started,p_port.stopped,sync_beep_2.started,sync_beep_2.stopped,sync_beep_3.started,sync_beep_3.stopped,sync_beep_4.started,sync_beep_4.stopped,baseline.started,p_port_2.started,p_port_2.stopped,baseline.stopped,p_port_3.started,Game_Start_Text.started,p_port_4.started,p_port_4.stopped,key_resp.started,key_resp.keys,key_resp.rt,fixation_cross.started,p_port_5.started,p_port_5.stopped,fixation_cross.stopped,p_port_6.started,player_image_intro.started,player_name_intro.started,p_port_7.started,p_port_7.stopped,p_port_8.started,player_image_offer.started,player_name_offer.started,proposed_split.started,p_port_9.started,p_port_9.stopped,proposed_split.stopped,accept_reject.started,p_port_15.started,p_port_15.stopped,accept_reject.stopped,p_port_10.started,arrow_instructions.started,offer_choice.started,p_port_11.started,p_port_11.stopped,offer_choice.keys,offer_choice.rt,Instructions_Affinity_Score.started,p_port_12.started,p_port_12.stopped,Emotion_Image.started,AffinityScore.started,p_port_13.started,p_port_13.stopped,AffinityScore.response,AffinityScore.rt,Instruction.started,Moral_Disgust_Score.started,p_port_14.started,p_port_14.stopped,Moral_Disgust_Score.response,Moral_Disgust_Score.rt,player_image_offer.stopped,player_name_offer.stopped,Instructions_Affinity_Score.stopped,player_image_intro.stopped,player_name_intro.stopped,p_port_6.stopped,p_port_8.stopped,p_port_10.stopped,participant,session,date,expName,psychopyVersion,frameRate,
,,,,,,,,21.348159838840363,0.0008668000809848309,0.11701139993965626,21.94504900961183,22.261686199810356,22.54520720974542,22.844862299971282,23.145037709595634,23.461684299632907,23.461684299632907,0.0034533999860286713,0.11755200009793043,43.47850049985573,20.017390599939972,43.578338199760765,0.01734049990773201,0.11719150003045797,44.028324199840426,space,1.1952227004803717,,,,,,,,,,,,,,,,,,,,,,,,,,,,,,,,,,,,,,,,,,,,,,,,,,,672,Moral,2024-03-21_10h34.55.892,MoralCondition_v2,2022.2.5,29.97314403989123,
0,0,0,0,0,0,0,0,,,,,,,,,,,,,,,,,,,,,45.26168049965054,0.005944899749010801,0.0982979997061193,51.27834829967469,6.0148013997823,51.51148210000247,51.51148210000247,0.10923019982874393,0.2481986996717751,6.014817199669778,57.5784469996579,57.5784469996579,57.5784469996579,0.08133559953421354,0.2148540997877717,63.27849389985204,63.445172999985516,6.015017099678516,6.114828799851239,69.44492190005258,12.014760599471629,69.57817989960313,69.57817989960313,0.015098499599844217,0.11479279957711697,up,1.5398155003786087,71.17842319980264,8.080014958977699e-05,0.10081199975684285,77.19483119994402,77.19483119994402,0.01623959979042411,0.11765989987179637,1.0,2.5192019999958575,,,,,,,,,,,,,,,672,Moral,2024-03-21_10h34.55.892,MoralCondition_v2,2022.2.5,29.97314403989123,
0,0,0,0,1,0,1,0,,,,,,,,,,,,,,,,,,,,,,,,,,,,,,,,,,,,,,,,,,,,,,,,,,,79.74491170002148,79.74491170002148,0.009367099963128567,0.0991571000777185,6.0,2.424139800015837,,,,,,,,,,,,,,,672,Moral,2024-03-21_10h34.55.892,MoralCondition_v2,2022.2.5,29.97314403989123,
0,0,0,0,2,0,2,0,,,,,,,,,,,,,,,,,,,,,,,,,,,,,,,,,,,,,,,,,,,,,,,,,,,82.22824470000342,82.22824470000342,0.01196199981495738,0.1136484001763165,1.0,1.5039909002371132,,,,,,,,,,,,,,,672,Moral,2024-03-21_10h34.55.892,MoralCondition_v2,2022.2.5,29.97314403989123,
0,0,0,0,3,0,3,0,,,,,,,,,,,,,,,,,,,,,,,,,,,,,,,,,,,,,,,,,,,,,,,,,,,83.7784577999264,83.7784577999264,0.008905100170522928,0.11477670026943088,1.0,1.0401885001920164,,,,,,,,,,,,,,,672,Moral,2024-03-21_10h34.55.892,MoralCondition_v2,2022.2.5,29.97314403989123,
0,0,0,0,4,0,4,0,,,,,,,,,,,,,,,,,,,,,,,,,,,,,,,,,,,,,,,,,,,,,,,,,,,84.86178969964385,84.86178969964385,0.008886799681931734,0.11458999989554286,1.0,0.6068239002488554,,,,,,,,,,,,,,,672,Moral,2024-03-21_10h34.55.892,MoralCondition_v2,2022.2.5,29.97314403989123,
0,0,0,0,5,0,5,0,,,,,,,,,,,,,,,,,,,,,,,,,,,,,,,,,,,,,,,,,,,,,,,,,,,85.4949955996126,85.4949955996126,0.009559100028127432,0.09827560000121593,1.0,0.8232228998094797,,,,,,,,,,,,,,,672,Moral,2024-03-21_10h34.55.892,MoralCondition_v2,2022.2.5,29.97314403989123,
0,0,0,0,6,0,6,0,,,,,,,,,,,,,,,,,,,,,,,,,,,,,,,,,,,,,,,,,,,,,,,,,,,86.3787332996726,86.3787332996726,0.009288299828767776,0.11581269977614284,1.0,0.6075071999803185,,,,,,,,,,,,,,,672,Moral,2024-03-21_10h34.55.892,MoralCondition_v2,2022.2.5,29.97314403989123,
0,0,0,0,,,,,,,,,,,,,,,,,,,,,,,,,,,,,,,,,,,,,,,,,,,,,,,,,,,,,,,,,,,,,87.01186640001833,87.01186640001833,0.0006952998228371143,0.09917409997433424,7.0,4.599610600154847,,,,,,,,,672,Moral,2024-03-21_10h34.55.892,MoralCondition_v2,2022.2.5,29.97314403989123,
1,0,1,0,0,0,0,0,,,,,,,,,,,,,,,,,,,,,91.64521729992703,0.000269399955868721,0.0978023000061512,97.66168159991503,6.0146441999822855,97.87848159996793,97.87848159996793,0.12464709999039769,0.23113009985536337,6.0312180002219975,103.94311519991606,103.94311519991606,103.94311519991606,0.08596679987385869,0.19798239972442389,109.64511559996754,109.84521859977394,6.031477199867368,6.131474900059402,115.84499999973923,12.031192199792713,115.94481020001695,115.94481020001695,0.014228099957108498,0.09779289970174432,up,0.8054875005036592,116.81160879973322,4.369998350739479e-05,0.09794829972088337,122.82840229989961,122.82840229989961,0.009785699658095837,0.1148222996853292,1.0,1.3058826001361012,,,,,,,115.92803039960563,115.92803039960563,122.82840229989961,,,,,,672,Moral,2024-03-21_10h34.55.892,MoralCondition_v2,2022.2.5,29.97314403989123,
1,0,1,0,1,0,1,0,,,,,,,,,,,,,,,,,,,,,,,,,,,,,,,,,,,,,,,,,,,,,,,,,,,124.1616491000168,124.1616491000168,0.007186099886894226,0.09918079990893602,1.0,1.4262839001603425,,,,,,,,,,,,,,,672,Moral,2024-03-21_10h34.55.892,MoralCondition_v2,2022.2.5,29.97314403989123,
1,0,1,0,2,0,2,0,,,,,,,,,,,,,,,,,,,,,,,,,,,,,,,,,,,,,,,,,,,,,,,,,,,125.62814329983667,125.62814329983667,0.007915999740362167,0.098261300008744,1.0,0.8580041998066008,,,,,,,,,,,,,,,672,Moral,2024-03-21_10h34.55.892,MoralCondition_v2,2022.2.5,29.97314403989123,
1,0,1,0,3,0,3,0,,,,,,,,,,,,,,,,,,,,,,,,,,,,,,,,,,,,,,,,,,,,,,,,,,,126.52818250004202,126.52818250004202,0.007126899901777506,0.09838089998811483,1.0,0.6921125003136694,,,,,,,,,,,,,,,672,Moral,2024-03-21_10h34.55.892,MoralCondition_v2,2022.2.5,29.97314403989123,
1,0,1,0,4,0,4,0,,,,,,,,,,,,,,,,,,,,,,,,,,,,,,,,,,,,,,,,,,,,,,,,,,,127.26187120005488,127.26187120005488,0.007259399630129337,0.09757409989833832,1.0,0.7914948998950422,,,,,,,,,,,,,,,672,Moral,2024-03-21_10h34.55.892,MoralCondition_v2,2022.2.5,29.97314403989123,
1,0,1,0,5,0,5,0,,,,,,,,,,,,,,,,,,,,,,,,,,,,,,,,,,,,,,,,,,,,,,,,,,,128.0954747996293,128.0954747996293,0.006835100241005421,0.09857060015201569,6.0,1.8261134000495076,,,,,,,,,,,,,,,672,Moral,2024-03-21_10h34.55.892,MoralCondition_v2,2022.2.5,29.97314403989123,
1,0,1,0,6,0,6,0,,,,,,,,,,,,,,,,,,,,,,,,,,,,,,,,,,,,,,,,,,,,,,,,,,,129.9615922998637,129.9615922998637,0.0064015998505055904,0.09889509994536638,1.0,1.2936859000474215,,,,,,,,,,,,,,,672,Moral,2024-03-21_10h34.55.892,MoralCondition_v2,2022.2.5,29.97314403989123,
1,0,1,0,,,,,,,,,,,,,,,,,,,,,,,,,,,,,,,,,,,,,,,,,,,,,,,,,,,,,,,,,,,,,131.29498929996043,131.29498929996043,0.0007314002141356468,0.09923800034448504,7.0,1.4997852998785675,,,,,,,,,672,Moral,2024-03-21_10h34.55.892,MoralCondition_v2,2022.2.5,29.97314403989123,
2,0,2,0,0,0,0,0,,,,,,,,,,,,,,,,,,,,,132.82853979989886,0.00026459991931915283,0.09794799983501434,138.8450074000284,6.014589599799365,139.02846179995686,139.02846179995686,0.08655529981479049,0.1979335998184979,6.0312268999405205,145.1282106996514,145.1282106996514,145.1282106996514,0.09071269957348704,0.19793809996917844,150.82838669978082,151.02837819978595,6.031348799820989,6.131258899811655,157.02838349994272,12.031337199732661,157.16169059975073,157.16169059975073,0.03145039966329932,0.13124139979481697,up,0.7007356001995504,157.92831159988418,4.749977961182594e-05,0.0980167998932302,163.96161879971623,163.96161879971623,0.026730400044471025,0.1313558998517692,5.0,3.3390835002064705,,,,,,,157.12834229972214,157.12834229972214,,145.0283681997098,145.0283681997098,,,,672,Moral,2024-03-21_10h34.55.892,MoralCondition_v2,2022.2.5,29.97314403989123,
2,0,2,0,1,0,1,0,,,,,,,,,,,,,,,,,,,,,,,,,,,,,,,,,,,,,,,,,,,,,,,,,,,167.3282333998941,167.3282333998941,0.0065657999366521835,0.09715550020337105,2.0,1.7253767000511289,,,,,,,,,,,,,,,672,Moral,2024-03-21_10h34.55.892,MoralCondition_v2,2022.2.5,29.97314403989123,
2,0,2,0,2,0,2,0,,,,,,,,,,,,,,,,,,,,,,,,,,,,,,,,,,,,,,,,,,,,,,,,,,,169.09504209971055,169.09504209971055,0.006597199942916632,0.09919699979946017,4.0,2.426990100182593,,,,,,,,,,,,,,,672,Moral,2024-03-21_10h34.55.892,MoralCondition_v2,2022.2.5,29.97314403989123,
2,0,2,0,3,0,3,0,,,,,,,,,,,,,,,,,,,,,,,,,,,,,,,,,,,,,,,,,,,,,,,,,,,171.56170629989356,171.56170629989356,0.006737899966537952,0.09923759987577796,5.0,1.9598077000118792,,,,,,,,,,,,,,,672,Moral,2024-03-21_10h34.55.892,MoralCondition_v2,2022.2.5,29.97314403989123,
2,0,2,0,4,0,4,0,,,,,,,,,,,,,,,,,,,,,,,,,,,,,,,,,,,,,,,,,,,,,,,,,,,173.57832999993116,173.57832999993116,0.008112000301480293,0.11576010007411242,3.0,4.058970900252461,,,,,,,,,,,,,,,672,Moral,2024-03-21_10h34.55.892,MoralCondition_v2,2022.2.5,29.97314403989123,
2,0,2,0,5,0,5,0,,,,,,,,,,,,,,,,,,,,,,,,,,,,,,,,,,,,,,,,,,,,,,,,,,,177.6614424996078,177.6614424996078,0.007074799854308367,0.09780299989506602,5.0,1.7587381997145712,,,,,,,,,,,,,,,672,Moral,2024-03-21_10h34.55.892,MoralCondition_v2,2022.2.5,29.97314403989123,
2,0,2,0,6,0,6,0,,,,,,,,,,,,,,,,,,,,,,,,,,,,,,,,,,,,,,,,,,,,,,,,,,,179.46158530004323,179.46158530004323,0.007412699982523918,0.09801550023257732,4.0,1.8585529997944832,,,,,,,,,,,,,,,672,Moral,2024-03-21_10h34.55.892,MoralCondition_v2,2022.2.5,29.97314403989123,
2,0,2,0,,,,,,,,,,,,,,,,,,,,,,,,,,,,,,,,,,,,,,,,,,,,,,,,,,,,,,,,,,,,,181.36153149977326,181.36153149977326,0.0016688001342117786,0.09752719989046454,3.0,3.697510799858719,,,,,,,,,672,Moral,2024-03-21_10h34.55.892,MoralCondition_v2,2022.2.5,29.97314403989123,
3,0,3,0,0,0,0,0,,,,,,,,,,,,,,,,,,,,,185.09520869981498,0.00026819994673132896,0.09818249987438321,191.1116987997666,6.015068000182509,191.27840669965371,191.27840669965371,0.08234350010752678,0.18214919976890087,6.0150623000226915,197.36165779968724,197.36165779968724,197.36165779968724,0.06998319970443845,0.1652059000916779,203.0616690996103,203.29502699989825,6.031802000012249,6.1315028998069465,209.29499539965764,12.03190780011937,209.4285487998277,209.4285487998277,0.031944799702614546,0.13189519988372922,up,1.3618678003549576,210.82839509984478,3.879982978105545e-05,0.0983233000151813,216.84478319995105,216.84478319995105,0.027054700069129467,0.11457729991525412,6.0,2.2558788000606,,,,,,,209.36167989997193,209.36167989997193,,197.2783168000169,197.2783168000169,,,,672,Moral,2024-03-21_10h34.55.892,MoralCondition_v2,2022.2.5,29.97314403989123,
3,0,3,0,1,0,1,0,,,,,,,,,,,,,,,,,,,,,,,,,,,,,,,,,,,,,,,,,,,,,,,,,,,219.14496989967301,219.14496989967301,0.007702500093728304,0.0976549000479281,1.0,1.391118099913001,,,,,,,,,,,,,,,672,Moral,2024-03-21_10h34.55.892,MoralCondition_v2,2022.2.5,29.97314403989123,
3,0,3,0,2,0,2,0,,,,,,,,,,,,,,,,,,,,,,,,,,,,,,,,,,,,,,,,,,,,,,,,,,,220.57831129990518,220.57831129990518,0.007061299867928028,0.09939270000904799,6.0,1.2265444002114236,,,,,,,,,,,,,,,672,Moral,2024-03-21_10h34.55.892,MoralCondition_v2,2022.2.5,29.97314403989123,
3,0,3,0,3,0,3,0,,,,,,,,,,,,,,,,,,,,,,,,,,,,,,,,,,,,,,,,,,,,,,,,,,,221.844890399836,221.844890399836,0.006793299689888954,0.09875519992783666,5.0,2.2599694998934865,,,,,,,,,,,,,,,672,Moral,2024-03-21_10h34.55.892,MoralCondition_v2,2022.2.5,29.97314403989123,
3,0,3,0,4,0,4,0,,,,,,,,,,,,,,,,,,,,,,,,,,,,,,,,,,,,,,,,,,,,,,,,,,,224.14502209983766,224.14502209983766,0.006494299974292517,0.0991723001934588,5.0,1.3270711000077426,,,,,,,,,,,,,,,672,Moral,2024-03-21_10h34.55.892,MoralCondition_v2,2022.2.5,29.97314403989123,
3,0,3,0,5,0,5,0,,,,,,,,,,,,,,,,,,,,,,,,,,,,,,,,,,,,,,,,,,,,,,,,,,,225.5114440000616,225.5114440000616,0.007900699973106384,0.09790589986369014,5.0,2.0248430999927223,,,,,,,,,,,,,,,672,Moral,2024-03-21_10h34.55.892,MoralCondition_v2,2022.2.5,29.97314403989123,
3,0,3,0,6,0,6,0,,,,,,,,,,,,,,,,,,,,,,,,,,,,,,,,,,,,,,,,,,,,,,,,,,,227.57819469971582,227.57819469971582,0.006728099659085274,0.09821499977260828,4.0,3.0259874002076685,,,,,,,,,,,,,,,672,Moral,2024-03-21_10h34.55.892,MoralCondition_v2,2022.2.5,29.97314403989123,
3,0,3,0,,,,,,,,,,,,,,,,,,,,,,,,,,,,,,,,,,,,,,,,,,,,,,,,,,,,,,,,,,,,,230.64489550003782,230.64489550003782,0.0006796997040510178,0.09891780000180006,1.0,3.6661702999845147,,,,,,,,,672,Moral,2024-03-21_10h34.55.892,MoralCondition_v2,2022.2.5,29.97314403989123,
4,0,4,0,0,0,0,0,,,,,,,,,,,,,,,,,,,,,234.34513849997893,0.00020579993724822998,0.0986571996472776,240.36161909997463,6.015400699805468,240.52820699987933,240.52820699987933,0.08342659985646605,0.1823042999021709,6.015340299811214,246.62836749991402,246.62836749991402,246.62836749991402,0.06833949964493513,0.18215939961373806,252.32837969996035,252.52844469994307,6.015487699769437,6.11528699984774,258.5284275999293,12.015477599576116,258.6616638000123,258.6616638000123,0.015471399761736393,0.11534279957413673,up,1.1925047999247909,259.89499599998817,3.809994086623192e-05,0.11484359996393323,265.91191209992394,265.91191209992394,0.009004099760204554,0.11480659991502762,5.0,1.839918500278145,,,,,,,258.6282942998223,258.6282942998223,265.91191209992394,246.52835049992427,246.52835049992427,,,,672,Moral,2024-03-21_10h34.55.892,MoralCondition_v2,2022.2.5,29.97314403989123,
4,0,4,0,1,0,1,0,,,,,,,,,,,,,,,,,,,,,,,,,,,,,,,,,,,,,,,,,,,,,,,,,,,267.77814830001444,267.77814830001444,0.007402600254863501,0.09793160017579794,5.0,0.9582582004368305,,,,,,,,,,,,,,,672,Moral,2024-03-21_10h34.55.892,MoralCondition_v2,2022.2.5,29.97314403989123,
4,0,4,0,2,0,2,0,,,,,,,,,,,,,,,,,,,,,,,,,,,,,,,,,,,,,,,,,,,,,,,,,,,268.7951274998486,268.7951274998486,0.008425199892371893,0.11418139981105924,5.0,1.6069606998935342,,,,,,,,,,,,,,,672,Moral,2024-03-21_10h34.55.892,MoralCondition_v2,2022.2.5,29.97314403989123,
4,0,4,0,3,0,3,0,,,,,,,,,,,,,,,,,,,,,,,,,,,,,,,,,,,,,,,,,,,,,,,,,,,270.42823929991573,270.42823929991573,0.006604800000786781,0.09935250040143728,1.0,1.5936161000281572,,,,,,,,,,,,,,,672,Moral,2024-03-21_10h34.55.892,MoralCondition_v2,2022.2.5,29.97314403989123,
4,0,4,0,4,0,4,0,,,,,,,,,,,,,,,,,,,,,,,,,,,,,,,,,,,,,,,,,,,,,,,,,,,272.0616624997929,272.0616624997929,0.00687960023060441,0.09916560025885701,4.0,1.660085099749267,,,,,,,,,,,,,,,672,Moral,2024-03-21_10h34.55.892,MoralCondition_v2,2022.2.5,29.97314403989123,
4,0,4,0,5,0,5,0,,,,,,,,,,,,,,,,,,,,,,,,,,,,,,,,,,,,,,,,,,,,,,,,,,,273.7783280997537,273.7783280997537,0.008190399967133999,0.1143394997343421,4.0,1.8072089003399014,,,,,,,,,,,,,,,672,Moral,2024-03-21_10h34.55.892,MoralCondition_v2,2022.2.5,29.97314403989123,
4,0,4,0,6,0,6,0,,,,,,,,,,,,,,,,,,,,,,,,,,,,,,,,,,,,,,,,,,,,,,,,,,,275.62857940001413,275.62857940001413,0.008051400072872639,0.11461189994588494,5.0,1.0075674001127481,,,,,,,,,,,,,,,672,Moral,2024-03-21_10h34.55.892,MoralCondition_v2,2022.2.5,29.97314403989123,
4,0,4,0,,,,,,,,,,,,,,,,,,,,,,,,,,,,,,,,,,,,,,,,,,,,,,,,,,,,,,,,,,,,,276.6615410996601,276.6615410996601,0.0013565002009272575,0.0976736000739038,2.0,2.0641552000306547,,,,,,,,,672,Moral,2024-03-21_10h34.55.892,MoralCondition_v2,2022.2.5,29.97314403989123,
5,0,5,0,0,0,0,0,,,,,,,,,,,,,,,,,,,,,278.7618333999999,0.00021929992362856865,0.09828809974715114,284.7783005000092,6.014946399722248,284.9618791998364,284.9618791998364,0.08577809948474169,0.19860039977356791,6.0316963996738195,291.0615149997175,291.0615149997175,291.0615149997175,0.09279269957914948,0.19846839969977736,296.7616130998358,296.96161630004644,6.031715699471533,6.1315838997252285,302.9616396999918,12.031843399628997,303.09511199966073,303.09511199966073,0.031786199659109116,0.13149189949035645,up,1.3024920001626015,304.46192199969664,5.0900038331747055e-05,0.09776220005005598,310.47855899995193,310.47855899995193,0.008803199976682663,0.11439529992640018,6.0,2.6399858999066055,,,,,,,303.0615984997712,303.0615984997712,310.47855899995193,290.9616323998198,290.9616323998198,,,,672,Moral,2024-03-21_10h34.55.892,MoralCondition_v2,2022.2.5,29.97314403989123,
5,0,5,0,1,0,1,0,,,,,,,,,,,,,,,,,,,,,,,,,,,,,,,,,,,,,,,,,,,,,,,,,,,313.1617850000039,313.1617850000039,0.007734300103038549,0.11375160003080964,6.0,1.140590500086546,,,,,,,,,,,,,,,672,Moral,2024-03-21_10h34.55.892,MoralCondition_v2,2022.2.5,29.97314403989123,
5,0,5,0,2,0,2,0,,,,,,,,,,,,,,,,,,,,,,,,,,,,,,,,,,,,,,,,,,,,,,,,,,,314.32843449991196,314.32843449991196,0.007436700165271759,0.09783570002764463,6.0,1.3914256002753973,,,,,,,,,,,,,,,672,Moral,2024-03-21_10h34.55.892,MoralCondition_v2,2022.2.5,29.97314403989123,
5,0,5,0,3,0,3,0,,,,,,,,,,,,,,,,,,,,,,,,,,,,,,,,,,,,,,,,,,,,,,,,,,,315.76164699997753,315.76164699997753,0.006529100239276886,0.09921430004760623,5.0,1.7270015999674797,,,,,,,,,,,,,,,672,Moral,2024-03-21_10h34.55.892,MoralCondition_v2,2022.2.5,29.97314403989123,
5,0,5,0,4,0,4,0,,,,,,,,,,,,,,,,,,,,,,,,,,,,,,,,,,,,,,,,,,,,,,,,,,,317.5282437996939,317.5282437996939,0.007220299914479256,0.09913159999996424,2.0,1.4930143998935819,,,,,,,,,,,,,,,672,Moral,2024-03-21_10h34.55.892,MoralCondition_v2,2022.2.5,29.97314403989123,
5,0,5,0,5,0,5,0,,,,,,,,,,,,,,,,,,,,,,,,,,,,,,,,,,,,,,,,,,,,,,,,,,,319.0783469998278,319.0783469998278,0.007301100064069033,0.11401970032602549,6.0,2.707828199956566,,,,,,,,,,,,,,,672,Moral,2024-03-21_10h34.55.892,MoralCondition_v2,2022.2.5,29.97314403989123,
5,0,5,0,6,0,6,0,,,,,,,,,,,,,,,,,,,,,,,,,,,,,,,,,,,,,,,,,,,,,,,,,,,321.8287402000278,321.8287402000278,0.007582500111311674,0.11394509999081492,5.0,1.3076296001672745,,,,,,,,,,,,,,,672,Moral,2024-03-21_10h34.55.892,MoralCondition_v2,2022.2.5,29.97314403989123,
5,0,5,0,,,,,,,,,,,,,,,,,,,,,,,,,,,,,,,,,,,,,,,,,,,,,,,,,,,,,,,,,,,,,323.1617492996156,323.1617492996156,0.001337599940598011,0.09772250009700656,2.0,2.764120100066066,,,,,,,,,672,Moral,2024-03-21_10h34.55.892,MoralCondition_v2,2022.2.5,29.97314403989123,
6,0,6,0,0,0,0,0,,,,,,,,,,,,,,,,,,,,,325.96181279979646,0.00027769990265369415,0.0977742001414299,331.9782463996671,6.014284700155258,332.1617053998634,332.1617053998634,0.08679449977353215,0.1976609998382628,6.031126799993217,338.2617675997317,338.2617675997317,338.2617675997317,0.08939559990540147,0.19774939958006144,343.96158130001277,344.16158419987187,6.03100509988144,6.131190199870616,350.16157829994336,12.030994500033557,350.29492779960856,350.29492779960856,0.031435299664735794,0.13090269966050982,up,0.6065207999199629,350.96155619993806,4.650000482797623e-05,0.09774270001798868,356.9614633000456,356.9614633000456,0.004086399916559458,0.09770449995994568,4.0,4.894544700160623,,,,,,,350.2618187996559,350.2618187996559,356.9614633000456,338.16170579986647,338.16170579986647,,,,672,Moral,2024-03-21_10h34.55.892,MoralCondition_v2,2022.2.5,29.97314403989123,
6,0,6,0,1,0,1,0,,,,,,,,,,,,,,,,,,,,,,,,,,,,,,,,,,,,,,,,,,,,,,,,,,,361.8948148000054,361.8948148000054,0.006091100163757801,0.09836250031366944,4.0,0.7933883001096547,,,,,,,,,,,,,,,672,Moral,2024-03-21_10h34.55.892,MoralCondition_v2,2022.2.5,29.97314403989123,
6,0,6,0,2,0,2,0,,,,,,,,,,,,,,,,,,,,,,,,,,,,,,,,,,,,,,,,,,,,,,,,,,,362.7284088996239,362.7284088996239,0.00628980016335845,0.098513999953866,5.0,1.560266699641943,,,,,,,,,,,,,,,672,Moral,2024-03-21_10h34.55.892,MoralCondition_v2,2022.2.5,29.97314403989123,
6,0,6,0,3,0,3,0,,,,,,,,,,,,,,,,,,,,,,,,,,,,,,,,,,,,,,,,,,,,,,,,,,,364.3282963996753,364.3282963996753,0.00823510019108653,0.09745449991896749,4.0,0.8236201996915042,,,,,,,,,,,,,,,672,Moral,2024-03-21_10h34.55.892,MoralCondition_v2,2022.2.5,29.97314403989123,
6,0,6,0,4,0,4,0,,,,,,,,,,,,,,,,,,,,,,,,,,,,,,,,,,,,,,,,,,,,,,,,,,,365.1954611996189,365.1954611996189,0.0074905999936163425,0.0971713000908494,4.0,0.8907409999519587,,,,,,,,,,,,,,,672,Moral,2024-03-21_10h34.55.892,MoralCondition_v2,2022.2.5,29.97314403989123,
6,0,6,0,5,0,5,0,,,,,,,,,,,,,,,,,,,,,,,,,,,,,,,,,,,,,,,,,,,,,,,,,,,366.12832499993965,366.12832499993965,0.007965300232172012,0.09752700012177229,4.0,1.790568099822849,,,,,,,,,,,,,,,672,Moral,2024-03-21_10h34.55.892,MoralCondition_v2,2022.2.5,29.97314403989123,
6,0,6,0,6,0,6,0,,,,,,,,,,,,,,,,,,,,,,,,,,,,,,,,,,,,,,,,,,,,,,,,,,,367.9616543999873,367.9616543999873,0.007864200044423342,0.098348299972713,4.0,1.524702100083232,,,,,,,,,,,,,,,672,Moral,2024-03-21_10h34.55.892,MoralCondition_v2,2022.2.5,29.97314403989123,
6,0,6,0,,,,,,,,,,,,,,,,,,,,,,,,,,,,,,,,,,,,,,,,,,,,,,,,,,,,,,,,,,,,,369.5284488997422,369.5284488997422,0.0013580997474491596,0.0973900998942554,5.0,2.6974186999723315,,,,,,,,,672,Moral,2024-03-21_10h34.55.892,MoralCondition_v2,2022.2.5,29.97314403989123,
7,0,7,0,0,0,0,0,,,,,,,,,,,,,,,,,,,,,372.2616775999777,0.00013459986075758934,0.09929540008306503,378.2617067997344,5.999045200180262,378.4282905999571,378.4282905999571,0.06601350009441376,0.16592400008812547,5.999170399736613,384.51140729989856,384.51140729989856,384.51140729989856,0.050185299944132566,0.14927920000627637,390.211488599889,390.4448324996047,6.015743799973279,6.115756599698216,396.4447367996909,12.015557799953967,396.57815720001236,396.57815720001236,0.015688199549913406,0.11581159988418221,up,0.5152800003997982,397.1448713997379,3.4700147807598114e-05,0.0978709002956748,403.16171329980716,403.16171329980716,0.009089500177651644,0.11474870005622506,1.0,2.9731509000994265,,,,,,,396.4947023000568,396.4947023000568,403.16171329980716,384.42806799989194,384.42806799989194,6.099080900195986,6.098885599989444,,672,Moral,2024-03-21_10h34.55.892,MoralCondition_v2,2022.2.5,29.97314403989123,
7,0,7,0,1,0,1,0,,,,,,,,,,,,,,,,,,,,,,,,,,,,,,,,,,,,,,,,,,,,,,,,,,,406.16142569994554,406.16142569994554,0.008557099848985672,0.09906860021874309,1.0,1.0247438000515103,,,,,,,,,,,,,,,672,Moral,2024-03-21_10h34.55.892,MoralCondition_v2,2022.2.5,29.97314403989123,
7,0,7,0,2,0,2,0,,,,,,,,,,,,,,,,,,,,,,,,,,,,,,,,,,,,,,,,,,,,,,,,,,,407.22822239995,407.22822239995,0.0074269999749958515,0.09832850005477667,1.0,0.7916282000951469,,,,,,,,,,,,,,,672,Moral,2024-03-21_10h34.55.892,MoralCondition_v2,2022.2.5,29.97314403989123,
7,0,7,0,3,0,3,0,,,,,,,,,,,,,,,,,,,,,,,,,,,,,,,,,,,,,,,,,,,,,,,,,,,408.06140379980206,408.06140379980206,0.007175399921834469,0.09846269991248846,1.0,0.5921514998190105,,,,,,,,,,,,,,,672,Moral,2024-03-21_10h34.55.892,MoralCondition_v2,2022.2.5,29.97314403989123,
7,0,7,0,4,0,4,0,,,,,,,,,,,,,,,,,,,,,,,,,,,,,,,,,,,,,,,,,,,,,,,,,,,408.694668199867,408.694668199867,0.009723199997097254,0.09700930025428534,6.0,2.2884693001396954,,,,,,,,,,,,,,,672,Moral,2024-03-21_10h34.55.892,MoralCondition_v2,2022.2.5,29.97314403989123,
7,0,7,0,5,0,5,0,,,,,,,,,,,,,,,,,,,,,,,,,,,,,,,,,,,,,,,,,,,,,,,,,,,411.02814089972526,411.02814089972526,0.007362899836152792,0.09791789995506406,1.0,2.691596200224012,,,,,,,,,,,,,,,672,Moral,2024-03-21_10h34.55.892,MoralCondition_v2,2022.2.5,29.97314403989123,
7,0,7,0,6,0,6,0,,,,,,,,,,,,,,,,,,,,,,,,,,,,,,,,,,,,,,,,,,,,,,,,,,,413.7783260997385,413.7783260997385,0.00818890007212758,0.1142805996350944,1.0,0.8738799998536706,,,,,,,,,,,,,,,672,Moral,2024-03-21_10h34.55.892,MoralCondition_v2,2022.2.5,29.97314403989123,
7,0,7,0,,,,,,,,,,,,,,,,,,,,,,,,,,,,,,,,,,,,,,,,,,,,,,,,,,,,,,,,,,,,,414.6784413997084,414.6784413997084,0.0007035997696220875,0.0994752999395132,7.0,1.832876999862492,,,,,,,,,672,Moral,2024-03-21_10h34.55.892,MoralCondition_v2,2022.2.5,29.97314403989123,
8,0,8,0,0,0,0,0,,,,,,,,,,,,,,,,,,,,,416.54503369983286,0.00028380006551742554,0.09803989995270967,422.56134520005435,6.014781500212848,422.72826300002635,422.72826300002635,0.07920280005782843,0.18151040002703667,6.01461619976908,428.8283466999419,428.8283466999419,428.8283466999419,0.07016759971156716,0.1819400996901095,434.52809179993346,434.7280424996279,6.014597099740058,6.114657599944621,440.7286652997136,12.015235399827361,440.8614845997654,440.8614845997654,0.014996199868619442,0.11466459976509213,up,2.0246840002946556,442.9280907995999,4.029972478747368e-05,0.09819089993834496,448.9279852998443,448.9279852998443,0.007928499951958656,0.09821600001305342,1.0,2.4579135002568364,,,,,,,440.8281908999197,440.8281908999197,448.9279852998443,428.7281529000029,428.7281529000029,,,,672,Moral,2024-03-21_10h34.55.892,MoralCondition_v2,2022.2.5,29.97314403989123,
8,0,8,0,1,0,1,0,,,,,,,,,,,,,,,,,,,,,,,,,,,,,,,,,,,,,,,,,,,,,,,,,,,451.42806429974735,451.42806429974735,0.006749199703335762,0.09909969987347722,1.0,0.793499100022018,,,,,,,,,,,,,,,672,Moral,2024-03-21_10h34.55.892,MoralCondition_v2,2022.2.5,29.97314403989123,
8,0,8,0,2,0,2,0,,,,,,,,,,,,,,,,,,,,,,,,,,,,,,,,,,,,,,,,,,,,,,,,,,,452.2614720999263,452.2614720999263,0.007192300166934729,0.09831440029665828,1.0,0.6255901996046305,,,,,,,,,,,,,,,672,Moral,2024-03-21_10h34.55.892,MoralCondition_v2,2022.2.5,29.97314403989123,
8,0,8,0,3,0,3,0,,,,,,,,,,,,,,,,,,,,,,,,,,,,,,,,,,,,,,,,,,,,,,,,,,,452.9448446999304,452.9448446999304,0.007862700149416924,0.11390420002862811,1.0,0.807063499931246,,,,,,,,,,,,,,,672,Moral,2024-03-21_10h34.55.892,MoralCondition_v2,2022.2.5,29.97314403989123,
8,0,8,0,4,0,4,0,,,,,,,,,,,,,,,,,,,,,,,,,,,,,,,,,,,,,,,,,,,,,,,,,,,453.7781316000037,453.7781316000037,0.008608999662101269,0.09755029994994402,1.0,0.5900575998239219,,,,,,,,,,,,,,,672,Moral,2024-03-21_10h34.55.892,MoralCondition_v2,2022.2.5,29.97314403989123,
8,0,8,0,5,0,5,0,,,,,,,,,,,,,,,,,,,,,,,,,,,,,,,,,,,,,,,,,,,,,,,,,,,454.41148959985003,454.41148959985003,0.0067541999742388725,0.09819909976795316,1.0,1.092580100055784,,,,,,,,,,,,,,,672,Moral,2024-03-21_10h34.55.892,MoralCondition_v2,2022.2.5,29.97314403989123,
8,0,8,0,6,0,6,0,,,,,,,,,,,,,,,,,,,,,,,,,,,,,,,,,,,,,,,,,,,,,,,,,,,455.54474549973384,455.54474549973384,0.007453000172972679,0.09831509971991181,6.0,1.5248557003214955,,,,,,,,,,,,,,,672,Moral,2024-03-21_10h34.55.892,MoralCondition_v2,2022.2.5,29.97314403989123,
8,0,8,0,,,,,,,,,,,,,,,,,,,,,,,,,,,,,,,,,,,,,,,,,,,,,,,,,,,,,,,,,,,,,457.1115758996457,457.1115758996457,0.0011116000823676586,0.09784380020573735,7.0,1.4982133000157773,,,,,,,,,672,Moral,2024-03-21_10h34.55.892,MoralCondition_v2,2022.2.5,29.97314403989123,
9,0,9,0,0,0,0,0,,,,,,,,,,,,,,,,,,,,,458.6450052000582,0.0001633996143937111,0.09926059981808066,464.64465439971536,5.999080799985677,464.8448150996119,464.8448150996119,0.09038379974663258,0.1994154998101294,5.9992505996488035,470.91160359978676,470.91160359978676,470.91160359978676,0.05134219955652952,0.16577479941770434,476.6113413996063,476.81157609960064,5.999390799552202,6.0990742994472384,482.81134360004216,11.999262899626046,482.94465819979087,482.94465819979087,-3.020046278834343e-05,0.09898549970239401,up,1.7811031001619995,484.7613491998054,4.0499959141016006e-05,0.09771970007568598,490.7779922997579,490.7779922997579,0.00889969989657402,0.11422140011563897,1.0,3.3064504000358284,,,,,,,482.91143829980865,482.91143829980865,490.7779922997579,470.91160359978676,470.91160359978676,6.0989869995974,6.099096699617803,12.099193499423563,672,Moral,2024-03-21_10h34.55.892,MoralCondition_v2,2022.2.5,29.97314403989123,
9,0,9,0,1,0,1,0,,,,,,,,,,,,,,,,,,,,,,,,,,,,,,,,,,,,,,,,,,,,,,,,,,,494.1113183000125,494.1113183000125,0.00729720015078783,0.09748160000890493,1.0,1.0579166002571583,,,,,,,,,,,,,,,672,Moral,2024-03-21_10h34.55.892,MoralCondition_v2,2022.2.5,29.97314403989123,
9,0,9,0,2,0,2,0,,,,,,,,,,,,,,,,,,,,,,,,,,,,,,,,,,,,,,,,,,,,,,,,,,,495.21133399987593,495.21133399987593,0.007521199993789196,0.09787590010091662,6.0,2.3914863001555204,,,,,,,,,,,,,,,672,Moral,2024-03-21_10h34.55.892,MoralCondition_v2,2022.2.5,29.97314403989123,
9,0,9,0,3,0,3,0,,,,,,,,,,,,,,,,,,,,,,,,,,,,,,,,,,,,,,,,,,,,,,,,,,,497.6446630996652,497.6446630996652,0.00702620018273592,0.09820879995822906,1.0,0.9257907001301646,,,,,,,,,,,,,,,672,Moral,2024-03-21_10h34.55.892,MoralCondition_v2,2022.2.5,29.97314403989123,
9,0,9,0,4,0,4,0,,,,,,,,,,,,,,,,,,,,,,,,,,,,,,,,,,,,,,,,,,,,,,,,,,,498.6113078999333,498.6113078999333,0.00729759968817234,0.09777250001206994,1.0,0.2915579997934401,,,,,,,,,,,,,,,672,Moral,2024-03-21_10h34.55.892,MoralCondition_v2,2022.2.5,29.97314403989123,
9,0,9,0,5,0,5,0,,,,,,,,,,,,,,,,,,,,,,,,,,,,,,,,,,,,,,,,,,,,,,,,,,,498.96122059971094,498.96122059971094,0.010482899844646454,0.11418290017172694,1.0,0.3381214998662472,,,,,,,,,,,,,,,672,Moral,2024-03-21_10h34.55.892,MoralCondition_v2,2022.2.5,29.97314403989123,
9,0,9,0,6,0,6,0,,,,,,,,,,,,,,,,,,,,,,,,,,,,,,,,,,,,,,,,,,,,,,,,,,,499.3278234996833,499.3278234996833,0.006413599941879511,0.09920539986342192,1.0,0.7271242002025247,,,,,,,,,,,,,,,672,Moral,2024-03-21_10h34.55.892,MoralCondition_v2,2022.2.5,29.97314403989123,
9,0,9,0,,,,,,,,,,,,,,,,,,,,,,,,,,,,,,,,,,,,,,,,,,,,,,,,,,,,,,,,,,,,,500.0947211999446,500.0947211999446,0.0013597998768091202,0.09839800000190735,7.0,2.131079100072384,,,,,,,,,672,Moral,2024-03-21_10h34.55.892,MoralCondition_v2,2022.2.5,29.97314403989123,
10,0,10,0,0,0,0,0,,,,,,,,,,,,,,,,,,,,,502.26124119991437,0.00023290002718567848,0.09649319993332028,508.2615421996452,6.030077700037509,508.5115612000227,508.5115612000227,0.12832479970529675,0.24632139969617128,6.013045399915427,514.5444505997002,514.5444505997002,514.5444505997002,0.07279699994251132,0.18002149974927306,520.2447016998194,520.4445581999607,6.013077299576253,6.1132009997963905,526.4445140999742,12.013248499948531,526.5778729999438,526.5778729999438,0.013182299677282572,0.1130661997012794,up,0.5957700000144541,527.2279095998965,4.239985719323158e-05,0.09775469964370131,533.2278026998974,533.2278026998974,0.006892799865454435,0.09783689957112074,1.0,2.2584912995807827,,,,,,,526.5445053996518,526.5445053996518,533.2278026998974,,,,,,672,Moral,2024-03-21_10h34.55.892,MoralCondition_v2,2022.2.5,29.97314403989123,
10,0,10,0,1,0,1,0,,,,,,,,,,,,,,,,,,,,,,,,,,,,,,,,,,,,,,,,,,,,,,,,,,,535.5279830996878,535.5279830996878,0.006471300031989813,0.09730250015854836,1.0,0.5584104000590742,,,,,,,,,,,,,,,672,Moral,2024-03-21_10h34.55.892,MoralCondition_v2,2022.2.5,29.97314403989123,
10,0,10,0,2,0,2,0,,,,,,,,,,,,,,,,,,,,,,,,,,,,,,,,,,,,,,,,,,,,,,,,,,,536.1277566999197,536.1277566999197,0.007446999661624432,0.0976384999230504,1.0,0.5579092004336417,,,,,,,,,,,,,,,672,Moral,2024-03-21_10h34.55.892,MoralCondition_v2,2022.2.5,29.97314403989123,
10,0,10,0,3,0,3,0,,,,,,,,,,,,,,,,,,,,,,,,,,,,,,,,,,,,,,,,,,,,,,,,,,,536.7279754998162,536.7279754998162,0.008851199876517057,0.09728699969127774,1.0,0.7231250000186265,,,,,,,,,,,,,,,672,Moral,2024-03-21_10h34.55.892,MoralCondition_v2,2022.2.5,29.97314403989123,
10,0,10,0,4,0,4,0,,,,,,,,,,,,,,,,,,,,,,,,,,,,,,,,,,,,,,,,,,,,,,,,,,,537.4944469998591,537.4944469998591,0.007749699987471104,0.0980990999378264,6.0,1.8913316996768117,,,,,,,,,,,,,,,672,Moral,2024-03-21_10h34.55.892,MoralCondition_v2,2022.2.5,29.97314403989123,
10,0,10,0,5,0,5,0,,,,,,,,,,,,,,,,,,,,,,,,,,,,,,,,,,,,,,,,,,,,,,,,,,,539.4444187995978,539.4444187995978,0.009238500148057938,0.11470940010622144,1.0,1.1063690003938973,,,,,,,,,,,,,,,672,Moral,2024-03-21_10h34.55.892,MoralCondition_v2,2022.2.5,29.97314403989123,
10,0,10,0,6,0,6,0,,,,,,,,,,,,,,,,,,,,,,,,,,,,,,,,,,,,,,,,,,,,,,,,,,,540.5779295000248,540.5779295000248,0.006812199950218201,0.09802359994500875,1.0,0.6922900998033583,,,,,,,,,,,,,,,672,Moral,2024-03-21_10h34.55.892,MoralCondition_v2,2022.2.5,29.97314403989123,
10,0,10,0,,,,,,,,,,,,,,,,,,,,,,,,,,,,,,,,,,,,,,,,,,,,,,,,,,,,,,,,,,,,,541.3109875996597,541.3109875996597,0.0019506001845002174,0.09713689982891083,7.0,3.39615450007841,,,,,,,,,672,Moral,2024-03-21_10h34.55.892,MoralCondition_v2,2022.2.5,29.97314403989123,
11,0,11,0,0,0,0,0,,,,,,,,,,,,,,,,,,,,,544.7448710999452,0.000157100148499012,0.09931940026581287,550.7444795998745,5.999041400384158,550.9279832998291,550.9279832998291,0.07505080010741949,0.18251320021227002,6.015723899938166,557.0278391996399,557.0278391996399,557.0278391996399,0.07063250010833144,0.1823756000958383,562.727778499946,562.9277622997761,6.015727899968624,6.115768400020897,568.9277923000045,12.015796899795532,569.061076299753,569.061076299753,0.01592859998345375,0.13232129998505116,up,0.6324530001729727,569.7277389997616,3.5099685192108154e-05,0.09784039994701743,575.7611376997083,575.7611376997083,0.025512799620628357,0.1312135998159647,1.0,2.3068553004413843,,,,,,,569.0278151999228,569.0278151999228,,556.9279114999808,556.9279114999808,6.09907290013507,,,672,Moral,2024-03-21_10h34.55.892,MoralCondition_v2,2022.2.5,29.97314403989123,
11,0,11,0,1,0,1,0,,,,,,,,,,,,,,,,,,,,,,,,,,,,,,,,,,,,,,,,,,,,,,,,,,,578.0943628000095,578.0943628000095,0.00808669999241829,0.09919640002772212,1.0,0.45920109981670976,,,,,,,,,,,,,,,672,Moral,2024-03-21_10h34.55.892,MoralCondition_v2,2022.2.5,29.97314403989123,
11,0,11,0,2,0,2,0,,,,,,,,,,,,,,,,,,,,,,,,,,,,,,,,,,,,,,,,,,,,,,,,,,,578.5943454997614,578.5943454997614,0.009059799835085869,0.09780609980225563,6.0,3.0565591999329627,,,,,,,,,,,,,,,672,Moral,2024-03-21_10h34.55.892,MoralCondition_v2,2022.2.5,29.97314403989123,
11,0,11,0,3,0,3,0,,,,,,,,,,,,,,,,,,,,,,,,,,,,,,,,,,,,,,,,,,,,,,,,,,,581.6942336997017,581.6942336997017,0.009360900148749352,0.0990985999815166,1.0,1.257566999644041,,,,,,,,,,,,,,,672,Moral,2024-03-21_10h34.55.892,MoralCondition_v2,2022.2.5,29.97314403989123,
11,0,11,0,4,0,4,0,,,,,,,,,,,,,,,,,,,,,,,,,,,,,,,,,,,,,,,,,,,,,,,,,,,582.99434309965,582.99434309965,0.00568309985101223,0.09932149993255734,1.0,0.8283520000986755,,,,,,,,,,,,,,,672,Moral,2024-03-21_10h34.55.892,MoralCondition_v2,2022.2.5,29.97314403989123,
11,0,11,0,5,0,5,0,,,,,,,,,,,,,,,,,,,,,,,,,,,,,,,,,,,,,,,,,,,,,,,,,,,583.8779201996513,583.8779201996513,0.0073762997053563595,0.11399299977347255,1.0,0.7741415998898447,,,,,,,,,,,,,,,672,Moral,2024-03-21_10h34.55.892,MoralCondition_v2,2022.2.5,29.97314403989123,
11,0,11,0,6,0,6,0,,,,,,,,,,,,,,,,,,,,,,,,,,,,,,,,,,,,,,,,,,,,,,,,,,,584.6777057000436,584.6777057000436,0.006628700066357851,0.09928999980911613,1.0,1.1605476001277566,,,,,,,,,,,,,,,672,Moral,2024-03-21_10h34.55.892,MoralCondition_v2,2022.2.5,29.97314403989123,
11,0,11,0,,,,,,,,,,,,,,,,,,,,,,,,,,,,,,,,,,,,,,,,,,,,,,,,,,,,,,,,,,,,,585.8779035997577,585.8779035997577,0.000691200140863657,0.09920060029253364,6.0,2.2664667000062764,,,,,,,,,672,Moral,2024-03-21_10h34.55.892,MoralCondition_v2,2022.2.5,29.97314403989123,
12,0,12,0,0,0,0,0,,,,,,,,,,,,,,,,,,,,,588.1778514999896,0.00023650005459785461,0.09847090020775795,594.1943544996902,6.014884700067341,594.3610906000249,594.3610906000249,0.081623500213027,0.1818401999771595,6.014871200080961,600.461103099864,600.461103099864,600.461103099864,0.07004969986155629,0.18174959998577833,606.1611477998085,606.3609761996195,6.014918100088835,6.114862899761647,612.3609671997838,12.014892099890858,612.4942968999967,612.4942968999967,0.015138799790292978,0.11511079967021942,up,0.5356205003336072,613.0943068997003,4.699965938925743e-05,0.09796149982139468,619.1110024000518,619.1110024000518,0.008558100089430809,0.11469049984589219,1.0,1.8736909995786846,,,,,,,612.4609630997293,612.4609630997293,619.1110024000518,600.3611011998728,600.3611011998728,,,,672,Moral,2024-03-21_10h34.55.892,MoralCondition_v2,2022.2.5,29.97314403989123,
12,0,12,0,1,0,1,0,,,,,,,,,,,,,,,,,,,,,,,,,,,,,,,,,,,,,,,,,,,,,,,,,,,621.0108812996186,621.0108812996186,0.007250399794429541,0.0976966000162065,1.0,1.3249586997553706,,,,,,,,,,,,,,,672,Moral,2024-03-21_10h34.55.892,MoralCondition_v2,2022.2.5,29.97314403989123,
12,0,12,0,2,0,2,0,,,,,,,,,,,,,,,,,,,,,,,,,,,,,,,,,,,,,,,,,,,,,,,,,,,622.3777622999623,622.3777622999623,0.007322799880057573,0.0977823999710381,1.0,0.9583274000324309,,,,,,,,,,,,,,,672,Moral,2024-03-21_10h34.55.892,MoralCondition_v2,2022.2.5,29.97314403989123,
12,0,12,0,3,0,3,0,,,,,,,,,,,,,,,,,,,,,,,,,,,,,,,,,,,,,,,,,,,,,,,,,,,623.3775173998438,623.3775173998438,0.007604400161653757,0.09767960011959076,1.0,0.8579943003132939,,,,,,,,,,,,,,,672,Moral,2024-03-21_10h34.55.892,MoralCondition_v2,2022.2.5,29.97314403989123,
12,0,12,0,4,0,4,0,,,,,,,,,,,,,,,,,,,,,,,,,,,,,,,,,,,,,,,,,,,,,,,,,,,624.2776748999022,624.2776748999022,0.007189000025391579,0.09809109987691045,1.0,1.1250768001191318,,,,,,,,,,,,,,,672,Moral,2024-03-21_10h34.55.892,MoralCondition_v2,2022.2.5,29.97314403989123,
12,0,12,0,5,0,5,0,,,,,,,,,,,,,,,,,,,,,,,,,,,,,,,,,,,,,,,,,,,,,,,,,,,625.4443019996397,625.4443019996397,0.0074233002960681915,0.09786340035498142,1.0,1.1914154002442956,,,,,,,,,,,,,,,672,Moral,2024-03-21_10h34.55.892,MoralCondition_v2,2022.2.5,29.97314403989123,
12,0,12,0,6,0,6,0,,,,,,,,,,,,,,,,,,,,,,,,,,,,,,,,,,,,,,,,,,,,,,,,,,,626.6776707000099,626.6776707000099,0.006283099763095379,0.09867790015414357,5.0,2.12673950009048,,,,,,,,,,,,,,,672,Moral,2024-03-21_10h34.55.892,MoralCondition_v2,2022.2.5,29.97314403989123,
12,0,12,0,,,,,,,,,,,,,,,,,,,,,,,,,,,,,,,,,,,,,,,,,,,,,,,,,,,,,,,,,,,,,628.84447549982,628.84447549982,0.0007135001942515373,0.09899399988353252,6.0,2.1661950000561774,,,,,,,,,672,Moral,2024-03-21_10h34.55.892,MoralCondition_v2,2022.2.5,29.97314403989123,
13,0,13,0,0,0,0,0,,,,,,,,,,,,,,,,,,,,,631.0444310996681,0.00013250019401311874,0.09925520000979304,637.0611584996805,6.01591410022229,637.2445602999069,637.2445602999069,0.08694409998133779,0.19916620012372732,5.999097200110555,643.3110124999657,643.3110124999657,643.3110124999657,0.05505149997770786,0.16597709991037846,649.0109269996174,649.2442155997269,5.99905199976638,6.099038899876177,655.2441832995974,11.9990288997069,655.3441875996068,655.3441875996068,1.2499745935201645e-05,0.09905349975451827,up,0.9420802006497979,656.3275158000179,5.21000474691391e-05,0.0979777998290956,662.3277708999813,662.3277708999813,0.008911400102078915,0.09796839999035001,3.0,3.2233286001719534,,,,,,,655.3108463999815,655.3108463999815,662.3277708999813,643.3110124999657,643.3110124999657,,6.099087399896234,12.099050200078636,672,Moral,2024-03-21_10h34.55.892,MoralCondition_v2,2022.2.5,29.97314403989123,
13,0,13,0,1,0,1,0,,,,,,,,,,,,,,,,,,,,,,,,,,,,,,,,,,,,,,,,,,,,,,,,,,,665.594120899681,665.594120899681,0.006538300309330225,0.09902280010282993,5.0,2.2602492002770305,,,,,,,,,,,,,,,672,Moral,2024-03-21_10h34.55.892,MoralCondition_v2,2022.2.5,29.97314403989123,
13,0,13,0,2,0,2,0,,,,,,,,,,,,,,,,,,,,,,,,,,,,,,,,,,,,,,,,,,,,,,,,,,,667.9109574998729,667.9109574998729,0.007622200064361095,0.11424629995599389,4.0,2.040859800297767,,,,,,,,,,,,,,,672,Moral,2024-03-21_10h34.55.892,MoralCondition_v2,2022.2.5,29.97314403989123,
13,0,13,0,3,0,3,0,,,,,,,,,,,,,,,,,,,,,,,,,,,,,,,,,,,,,,,,,,,,,,,,,,,669.9941716999747,669.9941716999747,0.0076143997721374035,0.11415140004828572,5.0,1.474065000191331,,,,,,,,,,,,,,,672,Moral,2024-03-21_10h34.55.892,MoralCondition_v2,2022.2.5,29.97314403989123,
13,0,13,0,4,0,4,0,,,,,,,,,,,,,,,,,,,,,,,,,,,,,,,,,,,,,,,,,,,,,,,,,,,671.4941722997464,671.4941722997464,0.007401600014418364,0.09764780011028051,5.0,2.0914770998060703,,,,,,,,,,,,,,,672,Moral,2024-03-21_10h34.55.892,MoralCondition_v2,2022.2.5,29.97314403989123,
13,0,13,0,5,0,5,0,,,,,,,,,,,,,,,,,,,,,,,,,,,,,,,,,,,,,,,,,,,,,,,,,,,673.6277301996015,673.6277301996015,0.007548199966549873,0.09775870013982058,2.0,1.858531099744141,,,,,,,,,,,,,,,672,Moral,2024-03-21_10h34.55.892,MoralCondition_v2,2022.2.5,29.97314403989123,
13,0,13,0,6,0,6,0,,,,,,,,,,,,,,,,,,,,,,,,,,,,,,,,,,,,,,,,,,,,,,,,,,,675.5443897000514,675.5443897000514,0.008480199612677097,0.11359119974076748,5.0,3.5062329000793397,,,,,,,,,,,,,,,672,Moral,2024-03-21_10h34.55.892,MoralCondition_v2,2022.2.5,29.97314403989123,
13,0,13,0,,,,,,,,,,,,,,,,,,,,,,,,,,,,,,,,,,,,,,,,,,,,,,,,,,,,,,,,,,,,,679.0775206000544,679.0775206000544,0.0015243003144860268,0.09786480013281107,2.0,2.164236099924892,,,,,,,,,672,Moral,2024-03-21_10h34.55.892,MoralCondition_v2,2022.2.5,29.97314403989123,
14,0,14,0,0,0,0,0,,,,,,,,,,,,,,,,,,,,,681.2776734996587,0.00017150025814771652,0.09922249987721443,687.2774819000624,5.999068799894303,687.4442553999834,687.4442553999834,0.06646359991282225,0.16602629981935024,5.999039600137621,693.5441892999224,693.5441892999224,693.5441892999224,0.053715100046247244,0.16586569976061583,699.2441300996579,699.4774221996777,5.999006299767643,6.099003599956632,705.4774127998389,11.999115100130439,705.5774419000372,705.5774419000372,-6.980029866099358e-05,0.09901569969952106,up,0.4443375002592802,706.0774115999229,6.869994103908539e-05,0.09801199985668063,712.0940095996484,712.0940095996484,0.010797800030559301,0.11469379998743534,1.0,4.171520099975169,,,,,,,705.5440457998775,705.5440457998775,712.0940095996484,693.444120099768,693.444120099768,6.098926200065762,6.099104600027204,12.099023600108922,672,Moral,2024-03-21_10h34.55.892,MoralCondition_v2,2022.2.5,29.97314403989123,
14,0,14,0,1,0,1,0,,,,,,,,,,,,,,,,,,,,,,,,,,,,,,,,,,,,,,,,,,,,,,,,,,,716.2940430999734,716.2940430999734,0.006628300063312054,0.09949930012226105,1.0,0.46022020000964403,,,,,,,,,,,,,,,672,Moral,2024-03-21_10h34.55.892,MoralCondition_v2,2022.2.5,29.97314403989123,
14,0,14,0,2,0,2,0,,,,,,,,,,,,,,,,,,,,,,,,,,,,,,,,,,,,,,,,,,,,,,,,,,,716.7941286000423,716.7941286000423,0.006546699907630682,0.09740910027176142,1.0,0.7917386000044644,,,,,,,,,,,,,,,672,Moral,2024-03-21_10h34.55.892,MoralCondition_v2,2022.2.5,29.97314403989123,
14,0,14,0,3,0,3,0,,,,,,,,,,,,,,,,,,,,,,,,,,,,,,,,,,,,,,,,,,,,,,,,,,,717.6273412997834,717.6273412997834,0.0073991999961435795,0.09794529993087053,1.0,0.891497700009495,,,,,,,,,,,,,,,672,Moral,2024-03-21_10h34.55.892,MoralCondition_v2,2022.2.5,29.97314403989123,
14,0,14,0,4,0,4,0,,,,,,,,,,,,,,,,,,,,,,,,,,,,,,,,,,,,,,,,,,,,,,,,,,,718.5608040997759,718.5608040997759,0.007459900341928005,0.09778310032561421,6.0,2.291571300011128,,,,,,,,,,,,,,,672,Moral,2024-03-21_10h34.55.892,MoralCondition_v2,2022.2.5,29.97314403989123,
14,0,14,0,5,0,5,0,,,,,,,,,,,,,,,,,,,,,,,,,,,,,,,,,,,,,,,,,,,,,,,,,,,720.8939958000556,720.8939958000556,0.007412599865347147,0.09879049984738231,1.0,1.225954500027001,,,,,,,,,,,,,,,672,Moral,2024-03-21_10h34.55.892,MoralCondition_v2,2022.2.5,29.97314403989123,
14,0,14,0,6,0,6,0,,,,,,,,,,,,,,,,,,,,,,,,,,,,,,,,,,,,,,,,,,,,,,,,,,,722.1607470000163,722.1607470000163,0.006958900019526482,0.09828960010781884,1.0,0.7922137998975813,,,,,,,,,,,,,,,672,Moral,2024-03-21_10h34.55.892,MoralCondition_v2,2022.2.5,29.97314403989123,
14,0,14,0,,,,,,,,,,,,,,,,,,,,,,,,,,,,,,,,,,,,,,,,,,,,,,,,,,,,,,,,,,,,,722.9939063000493,722.9939063000493,0.0011984999291598797,0.09792799968272448,6.0,3.86476040026173,,,,,,,,,672,Moral,2024-03-21_10h34.55.892,MoralCondition_v2,2022.2.5,29.97314403989123,
15,0,15,0,0,0,0,0,,,,,,,,,,,,,,,,,,,,,726.8940789997578,0.00045529985800385475,0.09865170018747449,732.9106679996476,6.01536520011723,733.0773502998054,733.0773502998054,0.08275419985875487,0.18220929987728596,6.015210899990052,739.1938661998138,739.1938661998138,739.1938661998138,0.08443479984998703,0.19840009976178408,744.8940894999541,745.0939519996755,6.031988099683076,6.131968799978495,751.0939303999767,12.03203359991312,751.2272767997347,751.2272767997347,0.0321851996704936,0.13190999999642372,up,0.7463829005137086,752.0273537999019,4.0699727833271027e-05,0.0980007997713983,758.0276015996933,758.0276015996933,0.009008199907839298,0.09799099992960691,1.0,5.0898373001255095,,,,,,,751.1939121996984,751.1939121996984,758.0276015996933,739.0603839997202,739.0603839997202,,,,672,Moral,2024-03-21_10h34.55.892,MoralCondition_v2,2022.2.5,29.97314403989123,
15,0,15,0,1,0,1,0,,,,,,,,,,,,,,,,,,,,,,,,,,,,,,,,,,,,,,,,,,,,,,,,,,,763.1607100996189,763.1607100996189,0.0077102999202907085,0.09739969996735454,1.0,0.5243246997706592,,,,,,,,,,,,,,,672,Moral,2024-03-21_10h34.55.892,MoralCondition_v2,2022.2.5,29.97314403989123,
15,0,15,0,2,0,2,0,,,,,,,,,,,,,,,,,,,,,,,,,,,,,,,,,,,,,,,,,,,,,,,,,,,763.7271580998786,763.7271580998786,0.007191299926489592,0.09805419994518161,1.0,0.7252290002070367,,,,,,,,,,,,,,,672,Moral,2024-03-21_10h34.55.892,MoralCondition_v2,2022.2.5,29.97314403989123,
15,0,15,0,3,0,3,0,,,,,,,,,,,,,,,,,,,,,,,,,,,,,,,,,,,,,,,,,,,,,,,,,,,764.5108484998345,764.5108484998345,0.007663500029593706,0.11415119981393218,1.0,0.6408782000653446,,,,,,,,,,,,,,,672,Moral,2024-03-21_10h34.55.892,MoralCondition_v2,2022.2.5,29.97314403989123,
15,0,15,0,4,0,4,0,,,,,,,,,,,,,,,,,,,,,,,,,,,,,,,,,,,,,,,,,,,,,,,,,,,765.194140299689,765.194140299689,0.008600400295108557,0.1148538002744317,4.0,1.94055309984833,,,,,,,,,,,,,,,672,Moral,2024-03-21_10h34.55.892,MoralCondition_v2,2022.2.5,29.97314403989123,
15,0,15,0,5,0,5,0,,,,,,,,,,,,,,,,,,,,,,,,,,,,,,,,,,,,,,,,,,,,,,,,,,,767.1605472997762,767.1605472997762,0.007040699943900108,0.09786240011453629,1.0,1.5918300999328494,,,,,,,,,,,,,,,672,Moral,2024-03-21_10h34.55.892,MoralCondition_v2,2022.2.5,29.97314403989123,
15,0,15,0,6,0,6,0,,,,,,,,,,,,,,,,,,,,,,,,,,,,,,,,,,,,,,,,,,,,,,,,,,,768.7939009997062,768.7939009997062,0.006469599902629852,0.09900090005248785,1.0,1.3291366999037564,,,,,,,,,,,,,,,672,Moral,2024-03-21_10h34.55.892,MoralCondition_v2,2022.2.5,29.97314403989123,
15,0,15,0,,,,,,,,,,,,,,,,,,,,,,,,,,,,,,,,,,,,,,,,,,,,,,,,,,,,,,,,,,,,,770.1605650996789,770.1605650996789,0.001162099651992321,0.09818239975720644,6.0,2.598520999774337,,,,,,,,,672,Moral,2024-03-21_10h34.55.892,MoralCondition_v2,2022.2.5,29.97314403989123,
16,0,16,0,0,0,0,0,,,,,,,,,,,,,,,,,,,,,772.7942566997372,0.00013540033251047134,0.09925680002197623,778.7938240999356,5.999073000159115,778.9941640999168,778.9941640999168,0.08978149993345141,0.19917930010706186,5.999054700136185,785.0605142996646,785.0605142996646,785.0605142996646,0.05780309997498989,0.16638049995526671,790.7605053996667,790.993819099851,5.999048999976367,6.099090000148863,796.993793499656,11.999016900081187,797.0939092999324,797.0939092999324,-0.00013560010120272636,0.09907769970595837,up,0.2965369005687535,797.4271404999308,4.610000178217888e-05,0.09810770023614168,803.4604952996597,803.4604952996597,0.02591279987245798,0.1311570000834763,5.0,3.874723100103438,,,,,,,797.0604446996003,797.0604446996003,,785.0605142996646,785.0605142996646,6.0992438001558185,6.099081499967724,12.099041400011629,672,Moral,2024-03-21_10h34.55.892,MoralCondition_v2,2022.2.5,29.97314403989123,
16,0,16,0,1,0,1,0,,,,,,,,,,,,,,,,,,,,,,,,,,,,,,,,,,,,,,,,,,,,,,,,,,,807.3603853997774,807.3603853997774,0.0059724003076553345,0.0992000000551343,6.0,1.8607449997216463,,,,,,,,,,,,,,,672,Moral,2024-03-21_10h34.55.892,MoralCondition_v2,2022.2.5,29.97314403989123,
16,0,16,0,2,0,2,0,,,,,,,,,,,,,,,,,,,,,,,,,,,,,,,,,,,,,,,,,,,,,,,,,,,809.2606882997788,809.2606882997788,0.006908500101417303,0.09795309975743294,5.0,1.625749500002712,,,,,,,,,,,,,,,672,Moral,2024-03-21_10h34.55.892,MoralCondition_v2,2022.2.5,29.97314403989123,
16,0,16,0,3,0,3,0,,,,,,,,,,,,,,,,,,,,,,,,,,,,,,,,,,,,,,,,,,,,,,,,,,,810.9269507997669,810.9269507997669,0.00620570033788681,0.09871840011328459,5.0,4.593417900148779,,,,,,,,,,,,,,,672,Moral,2024-03-21_10h34.55.892,MoralCondition_v2,2022.2.5,29.97314403989123,
16,0,16,0,4,0,4,0,,,,,,,,,,,,,,,,,,,,,,,,,,,,,,,,,,,,,,,,,,,,,,,,,,,815.5605759997852,815.5605759997852,0.007338699884712696,0.09759650006890297,3.0,2.49139149999246,,,,,,,,,,,,,,,672,Moral,2024-03-21_10h34.55.892,MoralCondition_v2,2022.2.5,29.97314403989123,
16,0,16,0,5,0,5,0,,,,,,,,,,,,,,,,,,,,,,,,,,,,,,,,,,,,,,,,,,,,,,,,,,,818.0935734999366,818.0935734999366,0.0068280999548733234,0.09930420015007257,5.0,0.9603423001244664,,,,,,,,,,,,,,,672,Moral,2024-03-21_10h34.55.892,MoralCondition_v2,2022.2.5,29.97314403989123,
16,0,16,0,6,0,6,0,,,,,,,,,,,,,,,,,,,,,,,,,,,,,,,,,,,,,,,,,,,,,,,,,,,819.0936302999035,819.0936302999035,0.006503300275653601,0.09887990029528737,5.0,1.726674699690193,,,,,,,,,,,,,,,672,Moral,2024-03-21_10h34.55.892,MoralCondition_v2,2022.2.5,29.97314403989123,
16,0,16,0,,,,,,,,,,,,,,,,,,,,,,,,,,,,,,,,,,,,,,,,,,,,,,,,,,,,,,,,,,,,,820.8606236996129,820.8606236996129,0.0016365000046789646,0.09755810024216771,3.0,2.7637569000944495,,,,,,,,,672,Moral,2024-03-21_10h34.55.892,MoralCondition_v2,2022.2.5,29.97314403989123,
17,0,17,0,0,0,0,0,,,,,,,,,,,,,,,,,,,,,823.6607707999647,0.000319099985063076,0.09793359972536564,829.6603665999137,6.031196899712086,829.860229099635,829.860229099635,0.09389529982581735,0.19765679957345128,6.031423799693584,835.9602681999095,835.9602681999095,835.9602681999095,0.0883401995524764,0.1979846996255219,841.6603200999089,841.860368900001,6.031199399847537,6.131104599684477,847.8603190998547,12.031151599716395,847.9936134000309,847.9936134000309,0.03135569952428341,0.131086899433285,up,0.5801166999153793,848.6270055999048,7.589999586343765e-05,0.09800479980185628,854.6602650997229,854.6602650997229,0.026699299924075603,0.1312596001662314,4.0,3.472441599704325,,,,,,,847.960339399986,847.960339399986,,835.8603469999507,835.8603469999507,,,,672,Moral,2024-03-21_10h34.55.892,MoralCondition_v2,2022.2.5,29.97314403989123,
17,0,17,0,1,0,1,0,,,,,,,,,,,,,,,,,,,,,,,,,,,,,,,,,,,,,,,,,,,,,,,,,,,858.1602040999569,858.1602040999569,0.0071045998483896255,0.09816709998995066,3.0,2.225495900027454,,,,,,,,,,,,,,,672,Moral,2024-03-21_10h34.55.892,MoralCondition_v2,2022.2.5,29.97314403989123,
17,0,17,0,2,0,2,0,,,,,,,,,,,,,,,,,,,,,,,,,,,,,,,,,,,,,,,,,,,,,,,,,,,860.427018799819,860.427018799819,0.009709000121802092,0.09755549998953938,4.0,1.7224669000133872,,,,,,,,,,,,,,,672,Moral,2024-03-21_10h34.55.892,MoralCondition_v2,2022.2.5,29.97314403989123,
17,0,17,0,3,0,3,0,,,,,,,,,,,,,,,,,,,,,,,,,,,,,,,,,,,,,,,,,,,,,,,,,,,862.1934886998497,862.1934886998497,0.008541899733245373,0.09925669990479946,3.0,3.2918853000737727,,,,,,,,,,,,,,,672,Moral,2024-03-21_10h34.55.892,MoralCondition_v2,2022.2.5,29.97314403989123,
17,0,17,0,4,0,4,0,,,,,,,,,,,,,,,,,,,,,,,,,,,,,,,,,,,,,,,,,,,,,,,,,,,865.5268111997284,865.5268111997284,0.007004399783909321,0.09814069978892803,5.0,2.459602499846369,,,,,,,,,,,,,,,672,Moral,2024-03-21_10h34.55.892,MoralCondition_v2,2022.2.5,29.97314403989123,
17,0,17,0,5,0,5,0,,,,,,,,,,,,,,,,,,,,,,,,,,,,,,,,,,,,,,,,,,,,,,,,,,,868.0436704000458,868.0436704000458,0.008459100034087896,0.11439630016684532,3.0,5.240543299820274,,,,,,,,,,,,,,,672,Moral,2024-03-21_10h34.55.892,MoralCondition_v2,2022.2.5,29.97314403989123,
17,0,17,0,6,0,6,0,,,,,,,,,,,,,,,,,,,,,,,,,,,,,,,,,,,,,,,,,,,,,,,,,,,873.3101121997461,873.3101121997461,0.006449799984693527,0.09921310003846884,2.0,1.5940652997232974,,,,,,,,,,,,,,,672,Moral,2024-03-21_10h34.55.892,MoralCondition_v2,2022.2.5,29.97314403989123,
17,0,17,0,,,,,,,,,,,,,,,,,,,,,,,,,,,,,,,,,,,,,,,,,,,,,,,,,,,,,,,,,,,,,874.9436145997606,874.9436145997606,0.0009011998772621155,0.09910099999979138,3.0,2.9663372999057174,,,,,,,,,672,Moral,2024-03-21_10h34.55.892,MoralCondition_v2,2022.2.5,29.97314403989123,
18,0,18,0,0,0,0,0,,,,,,,,,,,,,,,,,,,,,877.9437993997708,0.000134199857711792,0.09916230011731386,883.9266653996892,5.99900159984827,884.0934860999696,884.0934860999696,0.04735179990530014,0.14934719959273934,6.015813899692148,890.2267159000039,890.2267159000039,890.2267159000039,0.07602979987859726,0.18268849980086088,895.9268009997904,896.1267637000419,6.015852099750191,6.115753699559718,902.1267715999857,12.015786699950695,902.2601025998592,902.2601025998592,0.01595499971881509,0.11583959963172674,up,0.7857816005125642,903.093414099887,1.890026032924652e-05,0.09911910025402904,909.093412599992,909.093412599992,0.006844100076705217,0.09892290038987994,6.0,3.2933529000729322,,,,,,,902.2267863997258,902.2267863997258,909.093412599992,890.0766259999946,890.0766259999946,6.082380199804902,,,672,Moral,2024-03-21_10h34.55.892,MoralCondition_v2,2022.2.5,29.97314403989123,
18,0,18,0,1,0,1,0,,,,,,,,,,,,,,,,,,,,,,,,,,,,,,,,,,,,,,,,,,,,,,,,,,,912.4437001999468,912.4437001999468,0.00776899978518486,0.11451179999858141,6.0,6.174220900051296,,,,,,,,,,,,,,,672,Moral,2024-03-21_10h34.55.892,MoralCondition_v2,2022.2.5,29.97314403989123,
18,0,18,0,2,0,2,0,,,,,,,,,,,,,,,,,,,,,,,,,,,,,,,,,,,,,,,,,,,,,,,,,,,918.6432541999966,918.6432541999966,0.006626499816775322,0.09939360013231635,5.0,2.9269363000057638,,,,,,,,,,,,,,,672,Moral,2024-03-21_10h34.55.892,MoralCondition_v2,2022.2.5,29.97314403989123,
18,0,18,0,3,0,3,0,,,,,,,,,,,,,,,,,,,,,,,,,,,,,,,,,,,,,,,,,,,,,,,,,,,921.6102134999819,921.6102134999819,0.007190799806267023,0.0980163998901844,2.0,1.8252026000991464,,,,,,,,,,,,,,,672,Moral,2024-03-21_10h34.55.892,MoralCondition_v2,2022.2.5,29.97314403989123,
18,0,18,0,4,0,4,0,,,,,,,,,,,,,,,,,,,,,,,,,,,,,,,,,,,,,,,,,,,,,,,,,,,923.4767749998719,923.4767749998719,0.006493100430816412,0.09934900002554059,5.0,3.726998600177467,,,,,,,,,,,,,,,672,Moral,2024-03-21_10h34.55.892,MoralCondition_v2,2022.2.5,29.97314403989123,
18,0,18,0,5,0,5,0,,,,,,,,,,,,,,,,,,,,,,,,,,,,,,,,,,,,,,,,,,,,,,,,,,,927.2602686998434,927.2602686998434,0.008192799985408783,0.11429749988019466,6.0,2.8407986001111567,,,,,,,,,,,,,,,672,Moral,2024-03-21_10h34.55.892,MoralCondition_v2,2022.2.5,29.97314403989123,
18,0,18,0,6,0,6,0,,,,,,,,,,,,,,,,,,,,,,,,,,,,,,,,,,,,,,,,,,,,,,,,,,,930.1436306997202,930.1436306997202,0.007902799639850855,0.11428779968991876,5.0,2.273904299829155,,,,,,,,,,,,,,,672,Moral,2024-03-21_10h34.55.892,MoralCondition_v2,2022.2.5,29.97314403989123,
18,0,18,0,,,,,,,,,,,,,,,,,,,,,,,,,,,,,,,,,,,,,,,,,,,,,,,,,,,,,,,,,,,,,932.4434703998268,932.4434703998268,0.0011897003278136253,0.09802650008350611,2.0,4.964489799924195,,,,,,,,,672,Moral,2024-03-21_10h34.55.892,MoralCondition_v2,2022.2.5,29.97314403989123,
19,0,19,0,0,0,0,0,,,,,,,,,,,,,,,,,,,,,937.443771599792,0.00024370010942220688,0.09794609993696213,943.4599305996671,6.014539199881256,943.6265287999995,943.6265287999995,0.08239199966192245,0.1813348000869155,6.014479999896139,949.7266159998253,949.7266159998253,949.7266159998253,0.06952439993619919,0.18135929992422462,955.4265882000327,955.626554499846,6.014459799975157,6.1145873996429145,961.6265451996587,12.014451699797064,961.7598536997102,961.7598536997102,0.014591899700462818,0.1144252996891737,up,0.502354500349611,962.3265281999484,4.610000178217888e-05,0.09807710023596883,968.3267814996652,968.3267814996652,0.009210700169205666,0.0979921999387443,1.0,3.7895834003575146,,,,,,,961.7265314999968,961.7265314999968,968.3267814996652,949.6265829997137,949.6265829997137,,,,672,Moral,2024-03-21_10h34.55.892,MoralCondition_v2,2022.2.5,29.97314403989123,
19,0,19,0,1,0,1,0,,,,,,,,,,,,,,,,,,,,,,,,,,,,,,,,,,,,,,,,,,,,,,,,,,,972.1599909998477,972.1599909998477,0.006558799650520086,0.09821019973605871,1.0,0.559621499851346,,,,,,,,,,,,,,,672,Moral,2024-03-21_10h34.55.892,MoralCondition_v2,2022.2.5,29.97314403989123,
19,0,19,0,2,0,2,0,,,,,,,,,,,,,,,,,,,,,,,,,,,,,,,,,,,,,,,,,,,,,,,,,,,972.7598178996705,972.7598178996705,0.0060457997024059296,0.0984726999886334,1.0,0.6935312999412417,,,,,,,,,,,,,,,672,Moral,2024-03-21_10h34.55.892,MoralCondition_v2,2022.2.5,29.97314403989123,
19,0,19,0,3,0,3,0,,,,,,,,,,,,,,,,,,,,,,,,,,,,,,,,,,,,,,,,,,,,,,,,,,,973.493176299613,973.493176299613,0.0071564000099897385,0.09901780029758811,1.0,1.393026900012046,,,,,,,,,,,,,,,672,Moral,2024-03-21_10h34.55.892,MoralCondition_v2,2022.2.5,29.97314403989123,
19,0,19,0,4,0,4,0,,,,,,,,,,,,,,,,,,,,,,,,,,,,,,,,,,,,,,,,,,,,,,,,,,,974.9266096996143,974.9266096996143,0.006610100157558918,0.09913109987974167,5.0,1.893545199651271,,,,,,,,,,,,,,,672,Moral,2024-03-21_10h34.55.892,MoralCondition_v2,2022.2.5,29.97314403989123,
19,0,19,0,5,0,5,0,,,,,,,,,,,,,,,,,,,,,,,,,,,,,,,,,,,,,,,,,,,,,,,,,,,976.8602495999075,976.8602495999075,0.00681710010394454,0.0972800999879837,1.0,1.5251211998984218,,,,,,,,,,,,,,,672,Moral,2024-03-21_10h34.55.892,MoralCondition_v2,2022.2.5,29.97314403989123,
19,0,19,0,6,0,6,0,,,,,,,,,,,,,,,,,,,,,,,,,,,,,,,,,,,,,,,,,,,,,,,,,,,978.4263307997026,978.4263307997026,0.005879699718207121,0.09877000004053116,1.0,1.5273551000282168,,,,,,,,,,,,,,,672,Moral,2024-03-21_10h34.55.892,MoralCondition_v2,2022.2.5,29.97314403989123,
19,0,19,0,,,,,,,,,,,,,,,,,,,,,,,,,,,,,,,,,,,,,,,,,,,,,,,,,,,,,,,,,,,,,979.9934004000388,979.9934004000388,0.0013043996877968311,0.09755509998649359,6.0,1.7975304001010954,,,,,,,,,672,Moral,2024-03-21_10h34.55.892,MoralCondition_v2,2022.2.5,29.97314403989123,
