loop.thisRepN,loop.thisTrialN,loop.thisN,loop.thisIndex,evaluate_all_emotions.thisRepN,evaluate_all_emotions.thisTrialN,evaluate_all_emotions.thisN,evaluate_all_emotions.thisIndex,sync_beep_1.started,p_port.started,p_port.stopped,sync_beep_2.started,sync_beep_2.stopped,sync_beep_3.started,sync_beep_4.started,sync_beep_4.stopped,baseline.started,p_port_2.started,p_port_2.stopped,baseline.stopped,p_port_3.started,Game_Start_Text.started,p_port_4.started,p_port_4.stopped,key_resp.started,key_resp.keys,key_resp.rt,fixation_cross.started,p_port_5.started,p_port_5.stopped,fixation_cross.stopped,p_port_6.started,p_port_6.stopped,player_image_intro.started,player_name_intro.started,p_port_7.started,p_port_7.stopped,p_port_8.started,player_image_offer.started,player_name_offer.started,proposed_split.started,p_port_9.started,p_port_9.stopped,proposed_split.stopped,accept_reject.started,p_port_15.started,p_port_15.stopped,accept_reject.stopped,p_port_10.started,p_port_10.stopped,arrow_instructions.started,offer_choice.started,p_port_11.started,p_port_11.stopped,offer_choice.keys,offer_choice.rt,Instructions_Affinity_Score.started,p_port_12.started,p_port_12.stopped,Emotion_Image.started,AffinityScore.started,p_port_13.started,p_port_13.stopped,AffinityScore.response,AffinityScore.rt,Instruction.started,Moral_Disgust_Score.started,p_port_14.started,p_port_14.stopped,Moral_Disgust_Score.response,Moral_Disgust_Score.rt,player_image_offer.stopped,player_name_offer.stopped,Instructions_Affinity_Score.stopped,player_image_intro.stopped,player_name_intro.stopped,p_port_8.stopped,participant,session,date,expName,psychopyVersion,frameRate,
,,,,,,,,19.491736079007385,0.0008120997808873653,0.10970330005511642,20.09067146978341,20.390732700005174,20.70750426999293,21.29065326959826,21.60733149992302,21.60733149992302,0.02656749961897731,0.12634539976716042,41.60732849966735,20.026559599675238,41.74066059989855,0.026840599719434977,0.12653409969061613,42.20733989961445,space,1.6876517999917269,,,,,,,,,,,,,,,,,,,,,,,,,,,,,,,,,,,,,,,,,,,,,,,,,,,673,Moral,2024-03-22_14h20.17.563,MoralCondition_v2,2022.2.5,29.994567987769116,
0,0,0,0,0,0,0,0,,,,,,,,,,,,,,,,,,,,43.95725999958813,0.0005741999484598637,0.09942279988899827,49.95734119974077,5.999323999974877,6.099164499901235,50.207347199786454,50.207347199786454,0.09420959977433085,0.2497367998585105,6.016188699752092,56.27409279998392,56.27409279998392,56.27409279998392,0.07929989974945784,0.21608119970187545,61.97398309968412,62.140842400025576,6.016227399930358,6.116082400083542,68.15730489976704,11.99933600006625,12.099326299969107,68.29051909968257,68.29051909968257,0.032806599978357553,0.13263339968398213,up,2.091098199598491,70.42396469973028,4.659965634346008e-05,0.097732899710536,76.47413259977475,76.47413259977475,0.03078069956973195,0.1479149996303022,5.0,12.467943499796093,,,,,,,,,,,,,673,Moral,2024-03-22_14h20.17.563,MoralCondition_v2,2022.2.5,29.994567987769116,
0,0,0,0,1,0,1,0,,,,,,,,,,,,,,,,,,,,,,,,,,,,,,,,,,,,,,,,,,,,,,,,,,,,88.97385519975796,88.97385519975796,0.015457000117748976,0.11580300005152822,1.0,3.8346686996519566,,,,,,,,,,,,,673,Moral,2024-03-22_14h20.17.563,MoralCondition_v2,2022.2.5,29.994567987769116,
0,0,0,0,2,0,2,0,,,,,,,,,,,,,,,,,,,,,,,,,,,,,,,,,,,,,,,,,,,,,,,,,,,,92.85750849964097,92.85750849964097,0.013631700072437525,0.11414190009236336,1.0,1.934849699959159,,,,,,,,,,,,,673,Moral,2024-03-22_14h20.17.563,MoralCondition_v2,2022.2.5,29.994567987769116,
0,0,0,0,3,0,3,0,,,,,,,,,,,,,,,,,,,,,,,,,,,,,,,,,,,,,,,,,,,,,,,,,,,,94.82409689994529,94.82409689994529,0.009075199719518423,0.09915939997881651,1.0,2.3250602004118264,,,,,,,,,,,,,673,Moral,2024-03-22_14h20.17.563,MoralCondition_v2,2022.2.5,29.994567987769116,
0,0,0,0,4,0,4,0,,,,,,,,,,,,,,,,,,,,,,,,,,,,,,,,,,,,,,,,,,,,,,,,,,,,97.19078689999878,97.19078689999878,0.008672299794852734,0.09923259960487485,1.0,2.0913941003382206,,,,,,,,,,,,,673,Moral,2024-03-22_14h20.17.563,MoralCondition_v2,2022.2.5,29.994567987769116,
0,0,0,0,5,0,5,0,,,,,,,,,,,,,,,,,,,,,,,,,,,,,,,,,,,,,,,,,,,,,,,,,,,,99.32399179972708,99.32399179972708,0.008603599853813648,0.09912290005013347,1.0,1.2249920000322163,,,,,,,,,,,,,673,Moral,2024-03-22_14h20.17.563,MoralCondition_v2,2022.2.5,29.994567987769116,
0,0,0,0,6,0,6,0,,,,,,,,,,,,,,,,,,,,,,,,,,,,,,,,,,,,,,,,,,,,,,,,,,,,100.60737309977412,100.60737309977412,0.009863699786365032,0.11470149969682097,5.0,2.7056752000935376,,,,,,,,,,,,,673,Moral,2024-03-22_14h20.17.563,MoralCondition_v2,2022.2.5,29.994567987769116,
0,0,0,0,,,,,,,,,,,,,,,,,,,,,,,,,,,,,,,,,,,,,,,,,,,,,,,,,,,,,,,,,,,,,,103.34083310002461,103.34083310002461,0.0012561003677546978,0.09761300031095743,6.0,6.397771299816668,,,,,,,673,Moral,2024-03-22_14h20.17.563,MoralCondition_v2,2022.2.5,29.994567987769116,
1,0,1,0,0,0,0,0,,,,,,,,,,,,,,,,,,,,109.77390289958566,0.0003751995973289013,0.09699669992551208,115.77391879959032,6.030397699680179,,115.99070920003578,115.99070920003578,0.11496199993416667,0.2136350995860994,6.013664899859577,122.05717839999124,122.05717839999124,122.05717839999124,0.06684619979932904,0.18042599968612194,127.75746539980173,127.95723259961233,6.013658999465406,6.113659899681807,133.95722629968077,12.013645499479026,,134.09057509992272,134.09057509992272,0.013801399618387222,0.11366029968485236,up,1.371014399919659,135.5238937996328,5.740020424127579e-05,0.09774240013211966,141.5406277999282,141.5406277999282,0.009425000287592411,0.11457990016788244,1.0,3.7394308000802994,,,,,,,134.0572241996415,134.0572241996415,141.5406277999282,,,,673,Moral,2024-03-22_14h20.17.563,MoralCondition_v2,2022.2.5,29.994567987769116,
1,0,1,0,1,0,1,0,,,,,,,,,,,,,,,,,,,,,,,,,,,,,,,,,,,,,,,,,,,,,,,,,,,,145.30718649970368,145.30718649970368,0.00744710024446249,0.09779960010200739,6.0,3.2580373999662697,,,,,,,,,,,,,673,Moral,2024-03-22_14h20.17.563,MoralCondition_v2,2022.2.5,29.994567987769116,
1,0,1,0,2,0,2,0,,,,,,,,,,,,,,,,,,,,,,,,,,,,,,,,,,,,,,,,,,,,,,,,,,,,148.6242580995895,148.6242580995895,0.0076731001026928425,0.11411010008305311,1.0,1.4409429002553225,,,,,,,,,,,,,673,Moral,2024-03-22_14h20.17.563,MoralCondition_v2,2022.2.5,29.994567987769116,
1,0,1,0,3,0,3,0,,,,,,,,,,,,,,,,,,,,,,,,,,,,,,,,,,,,,,,,,,,,,,,,,,,,150.09057480003685,150.09057480003685,0.008186900056898594,0.09862579964101315,1.0,1.3247965998016298,,,,,,,,,,,,,673,Moral,2024-03-22_14h20.17.563,MoralCondition_v2,2022.2.5,29.994567987769116,
1,0,1,0,4,0,4,0,,,,,,,,,,,,,,,,,,,,,,,,,,,,,,,,,,,,,,,,,,,,,,,,,,,,151.45718989986926,151.45718989986926,0.007143599912524223,0.09811640018597245,1.0,1.0586160002276301,,,,,,,,,,,,,673,Moral,2024-03-22_14h20.17.563,MoralCondition_v2,2022.2.5,29.994567987769116,
1,0,1,0,5,0,5,0,,,,,,,,,,,,,,,,,,,,,,,,,,,,,,,,,,,,,,,,,,,,,,,,,,,,152.55717539973557,152.55717539973557,0.007106500212103128,0.09946370031684637,4.0,3.5267981998622417,,,,,,,,,,,,,673,Moral,2024-03-22_14h20.17.563,MoralCondition_v2,2022.2.5,29.994567987769116,
1,0,1,0,6,0,6,0,,,,,,,,,,,,,,,,,,,,,,,,,,,,,,,,,,,,,,,,,,,,,,,,,,,,156.1238315999508,156.1238315999508,0.006745699793100357,0.09910789970308542,4.0,1.9268558002077043,,,,,,,,,,,,,673,Moral,2024-03-22_14h20.17.563,MoralCondition_v2,2022.2.5,29.994567987769116,
1,0,1,0,,,,,,,,,,,,,,,,,,,,,,,,,,,,,,,,,,,,,,,,,,,,,,,,,,,,,,,,,,,,,,158.09072639979422,158.09072639979422,0.0007331003434956074,0.09918900020420551,6.0,2.4330603000707924,,,,,,,673,Moral,2024-03-22_14h20.17.563,MoralCondition_v2,2022.2.5,29.994567987769116,
2,0,2,0,0,0,0,0,,,,,,,,,,,,,,,,,,,,160.55736919958144,0.00015489989891648293,0.09920200007036328,166.5738478996791,6.015807100106031,,166.7573388000019,166.7573388000019,0.0848522000014782,0.19932790007442236,6.032454299740493,172.85707119992003,172.85707119992003,172.85707119992003,0.08762939972802997,0.19915129989385605,178.5571959996596,178.75719549972564,5.999101299792528,6.099316599778831,184.7572015998885,11.9990902999416,12.099116999655962,184.8571774996817,184.8571774996817,1.2999866157770157e-05,0.09911079984158278,up,1.092375099658966,185.99062709975988,4.0499959141016006e-05,0.09753859974443913,191.99071699986234,191.99071699986234,0.009406500030308962,0.09758129995316267,3.0,3.622770099900663,,,,,,,184.8571774996817,184.8571774996817,191.99071699986234,172.75717399967834,172.75717399967834,,673,Moral,2024-03-22_14h20.17.563,MoralCondition_v2,2022.2.5,29.994567987769116,
2,0,2,0,1,0,1,0,,,,,,,,,,,,,,,,,,,,,,,,,,,,,,,,,,,,,,,,,,,,,,,,,,,,195.65710049960762,195.65710049960762,0.006683800369501114,0.09914940036833286,1.0,1.3602686999365687,,,,,,,,,,,,,673,Moral,2024-03-22_14h20.17.563,MoralCondition_v2,2022.2.5,29.994567987769116,
2,0,2,0,2,0,2,0,,,,,,,,,,,,,,,,,,,,,,,,,,,,,,,,,,,,,,,,,,,,,,,,,,,,197.0571202998981,197.0571202998981,0.006754699628800154,0.09920759964734316,5.0,2.0268640997819602,,,,,,,,,,,,,673,Moral,2024-03-22_14h20.17.563,MoralCondition_v2,2022.2.5,29.994567987769116,
2,0,2,0,3,0,3,0,,,,,,,,,,,,,,,,,,,,,,,,,,,,,,,,,,,,,,,,,,,,,,,,,,,,199.12364099966362,199.12364099966362,0.007021599914878607,0.09934949968010187,5.0,1.5267097000032663,,,,,,,,,,,,,673,Moral,2024-03-22_14h20.17.563,MoralCondition_v2,2022.2.5,29.994567987769116,
2,0,2,0,4,0,4,0,,,,,,,,,,,,,,,,,,,,,,,,,,,,,,,,,,,,,,,,,,,,,,,,,,,,200.69056289969012,200.69056289969012,0.007508500013500452,0.09787350008264184,1.0,1.058138099964708,,,,,,,,,,,,,673,Moral,2024-03-22_14h20.17.563,MoralCondition_v2,2022.2.5,29.994567987769116,
2,0,2,0,5,0,5,0,,,,,,,,,,,,,,,,,,,,,,,,,,,,,,,,,,,,,,,,,,,,,,,,,,,,201.79068350000307,201.79068350000307,0.007182700093835592,0.09849700005725026,1.0,0.8587988996878266,,,,,,,,,,,,,673,Moral,2024-03-22_14h20.17.563,MoralCondition_v2,2022.2.5,29.994567987769116,
2,0,2,0,6,0,6,0,,,,,,,,,,,,,,,,,,,,,,,,,,,,,,,,,,,,,,,,,,,,,,,,,,,,202.70740940002725,202.70740940002725,0.00925770029425621,0.11401729984208941,1.0,1.206084799952805,,,,,,,,,,,,,673,Moral,2024-03-22_14h20.17.563,MoralCondition_v2,2022.2.5,29.994567987769116,
2,0,2,0,,,,,,,,,,,,,,,,,,,,,,,,,,,,,,,,,,,,,,,,,,,,,,,,,,,,,,,,,,,,,,203.94049579976127,203.94049579976127,0.0007262001745402813,0.09945320012047887,6.0,1.6999865998513997,,,,,,,673,Moral,2024-03-22_14h20.17.563,MoralCondition_v2,2022.2.5,29.994567987769116,
3,0,3,0,0,0,0,0,,,,,,,,,,,,,,,,,,,,205.67419099994004,0.00027410034090280533,0.09820390027016401,211.67365149967372,6.031253000255674,,211.8740576999262,211.8740576999262,0.09313110029324889,0.19836390018463135,6.031677899882197,217.97389909997582,217.97389909997582,217.97389909997582,0.08440829999744892,0.19824100006371737,223.67376109957695,223.87403649976477,6.0317236999981105,6.13182649994269,229.87385799968615,12.031553000211716,,230.0070682996884,230.0070682996884,0.0316079999320209,0.13152970001101494,up,1.4386398997157812,231.5071549997665,4.809955134987831e-05,0.09823999973013997,237.5237564998679,237.5237564998679,0.009604199789464474,0.11456469958648086,5.0,2.005996299907565,,,,,,,229.97376099973917,229.97376099973917,237.5237564998679,217.87377179972827,217.87377179972827,,673,Moral,2024-03-22_14h20.17.563,MoralCondition_v2,2022.2.5,29.994567987769116,
3,0,3,0,1,0,1,0,,,,,,,,,,,,,,,,,,,,,,,,,,,,,,,,,,,,,,,,,,,,,,,,,,,,239.5740012000315,239.5740012000315,0.00884919986128807,0.11394849978387356,4.0,1.8727397001348436,,,,,,,,,,,,,673,Moral,2024-03-22_14h20.17.563,MoralCondition_v2,2022.2.5,29.994567987769116,
3,0,3,0,2,0,2,0,,,,,,,,,,,,,,,,,,,,,,,,,,,,,,,,,,,,,,,,,,,,,,,,,,,,241.4739562999457,241.4739562999457,0.007200099993497133,0.09814309980720282,5.0,1.2586656999774277,,,,,,,,,,,,,673,Moral,2024-03-22_14h20.17.563,MoralCondition_v2,2022.2.5,29.994567987769116,
3,0,3,0,3,0,3,0,,,,,,,,,,,,,,,,,,,,,,,,,,,,,,,,,,,,,,,,,,,,,,,,,,,,242.77377509977669,242.77377509977669,0.0076166000217199326,0.09761640010401607,1.0,1.2578019998036325,,,,,,,,,,,,,673,Moral,2024-03-22_14h20.17.563,MoralCondition_v2,2022.2.5,29.994567987769116,
3,0,3,0,4,0,4,0,,,,,,,,,,,,,,,,,,,,,,,,,,,,,,,,,,,,,,,,,,,,,,,,,,,,244.0736978999339,244.0736978999339,0.007072499953210354,0.0980031001381576,1.0,0.4254159997217357,,,,,,,,,,,,,673,Moral,2024-03-22_14h20.17.563,MoralCondition_v2,2022.2.5,29.994567987769116,
3,0,3,0,5,0,5,0,,,,,,,,,,,,,,,,,,,,,,,,,,,,,,,,,,,,,,,,,,,,,,,,,,,,244.54061959963292,244.54061959963292,0.007073500193655491,0.09805240016430616,1.0,0.4922234998084605,,,,,,,,,,,,,673,Moral,2024-03-22_14h20.17.563,MoralCondition_v2,2022.2.5,29.994567987769116,
3,0,3,0,6,0,6,0,,,,,,,,,,,,,,,,,,,,,,,,,,,,,,,,,,,,,,,,,,,,,,,,,,,,245.0735845998861,245.0735845998861,0.006916200276464224,0.09904100000858307,1.0,0.5266461996361613,,,,,,,,,,,,,673,Moral,2024-03-22_14h20.17.563,MoralCondition_v2,2022.2.5,29.994567987769116,
3,0,3,0,,,,,,,,,,,,,,,,,,,,,,,,,,,,,,,,,,,,,,,,,,,,,,,,,,,,,,,,,,,,,,245.64065369963646,245.64065369963646,0.001090100035071373,0.09809109987691045,6.0,1.4981229999102652,,,,,,,673,Moral,2024-03-22_14h20.17.563,MoralCondition_v2,2022.2.5,29.994567987769116,
4,0,4,0,0,0,0,0,,,,,,,,,,,,,,,,,,,,247.1739547997713,0.00014619994908571243,0.09918009955435991,253.19040349964052,6.015808999538422,,253.37360269995406,253.37360269995406,0.08482829947024584,0.19915679981932044,5.999227999709547,259.42359020002186,259.42359020002186,259.42359020002186,0.050083999522030354,0.14924629963934422,265.123721299693,265.35717349965125,6.015958399511874,6.115783599670976,271.35699849994853,12.015777899418026,,271.4904392999597,271.4904392999597,0.016003799624741077,0.11569719947874546,up,0.3715809998102486,271.9237700998783,5.650008097290993e-05,0.09777829982340336,277.9198971996084,277.9198971996084,0.005896099843084812,0.09393410012125969,1.0,1.6595767997205257,,,,,,,271.42372369999066,271.42372369999066,277.9198971996084,259.42359020002186,259.42359020002186,6.099088999442756,673,Moral,2024-03-22_14h20.17.563,MoralCondition_v2,2022.2.5,29.994567987769116,
4,0,4,0,1,0,1,0,,,,,,,,,,,,,,,,,,,,,,,,,,,,,,,,,,,,,,,,,,,,,,,,,,,,279.6236868998967,279.6236868998967,0.00757910031825304,0.09809060022234917,1.0,0.7246654001064599,,,,,,,,,,,,,673,Moral,2024-03-22_14h20.17.563,MoralCondition_v2,2022.2.5,29.994567987769116,
4,0,4,0,2,0,2,0,,,,,,,,,,,,,,,,,,,,,,,,,,,,,,,,,,,,,,,,,,,,,,,,,,,,280.39026509970427,280.39026509970427,0.005268900189548731,0.09937090007588267,5.0,1.99531070003286,,,,,,,,,,,,,673,Moral,2024-03-22_14h20.17.563,MoralCondition_v2,2022.2.5,29.994567987769116,
4,0,4,0,3,0,3,0,,,,,,,,,,,,,,,,,,,,,,,,,,,,,,,,,,,,,,,,,,,,,,,,,,,,282.42354229977354,282.42354229977354,0.007694699801504612,0.09774969983845949,6.0,1.3908779001794755,,,,,,,,,,,,,673,Moral,2024-03-22_14h20.17.563,MoralCondition_v2,2022.2.5,29.994567987769116,
4,0,4,0,4,0,4,0,,,,,,,,,,,,,,,,,,,,,,,,,,,,,,,,,,,,,,,,,,,,,,,,,,,,283.87396549992263,283.87396549992263,0.007818100042641163,0.1137638003565371,5.0,1.173915000166744,,,,,,,,,,,,,673,Moral,2024-03-22_14h20.17.563,MoralCondition_v2,2022.2.5,29.994567987769116,
4,0,4,0,5,0,5,0,,,,,,,,,,,,,,,,,,,,,,,,,,,,,,,,,,,,,,,,,,,,,,,,,,,,285.07373779965565,285.07373779965565,0.007536100223660469,0.09783679991960526,1.0,1.5247375001199543,,,,,,,,,,,,,673,Moral,2024-03-22_14h20.17.563,MoralCondition_v2,2022.2.5,29.994567987769116,
4,0,4,0,6,0,6,0,,,,,,,,,,,,,,,,,,,,,,,,,,,,,,,,,,,,,,,,,,,,,,,,,,,,286.6403692997992,286.6403692997992,0.007265499792993069,0.09798929980024695,1.0,0.39163520000874996,,,,,,,,,,,,,673,Moral,2024-03-22_14h20.17.563,MoralCondition_v2,2022.2.5,29.994567987769116,
4,0,4,0,,,,,,,,,,,,,,,,,,,,,,,,,,,,,,,,,,,,,,,,,,,,,,,,,,,,,,,,,,,,,,287.07371119968593,287.07371119968593,0.0007055001333355904,0.09891299996525049,6.0,1.566219300031662,,,,,,,673,Moral,2024-03-22_14h20.17.563,MoralCondition_v2,2022.2.5,29.994567987769116,
5,0,5,0,0,0,0,0,,,,,,,,,,,,,,,,,,,,288.6737085999921,0.00021900003775954247,0.09859360009431839,294.6736472998746,6.031785800121725,,294.8735684999265,294.8735684999265,0.09649930009618402,0.19863699981942773,6.031731000170112,300.97390959970653,300.97390959970653,300.97390959970653,0.0889473999850452,0.1986569999717176,306.67357789957896,306.87363029969856,6.031757799908519,6.131709199864417,312.87360599962994,12.031807899940759,,313.0069279996678,313.0069279996678,0.031867699697613716,0.13168249977752566,up,1.3028437001630664,314.37353600002825,4.9099791795015335e-05,0.09809920005500317,320.3903505997732,320.3903505997732,0.009010899811983109,0.11458469973877072,1.0,1.8066030000336468,,,,,,,312.97358099976555,312.97358099976555,320.3903505997732,300.873604899738,300.873604899738,,673,Moral,2024-03-22_14h20.17.563,MoralCondition_v2,2022.2.5,29.994567987769116,
5,0,5,0,1,0,1,0,,,,,,,,,,,,,,,,,,,,,,,,,,,,,,,,,,,,,,,,,,,,,,,,,,,,322.2234353995882,322.2234353995882,0.007716000080108643,0.0976766999810934,1.0,0.7912196000106633,,,,,,,,,,,,,673,Moral,2024-03-22_14h20.17.563,MoralCondition_v2,2022.2.5,29.994567987769116,
5,0,5,0,2,0,2,0,,,,,,,,,,,,,,,,,,,,,,,,,,,,,,,,,,,,,,,,,,,,,,,,,,,,323.0569556998089,323.0569556998089,0.007237199693918228,0.09786479966714978,5.0,1.6586685995571315,,,,,,,,,,,,,673,Moral,2024-03-22_14h20.17.563,MoralCondition_v2,2022.2.5,29.994567987769116,
5,0,5,0,3,0,3,0,,,,,,,,,,,,,,,,,,,,,,,,,,,,,,,,,,,,,,,,,,,,,,,,,,,,324.756944200024,324.756944200024,0.006487499922513962,0.09915269957855344,1.0,1.4602945996448398,,,,,,,,,,,,,673,Moral,2024-03-22_14h20.17.563,MoralCondition_v2,2022.2.5,29.994567987769116,
5,0,5,0,4,0,4,0,,,,,,,,,,,,,,,,,,,,,,,,,,,,,,,,,,,,,,,,,,,,,,,,,,,,326.25700019998476,326.25700019998476,0.007592800073325634,0.09791700029745698,1.0,1.691283400170505,,,,,,,,,,,,,673,Moral,2024-03-22_14h20.17.563,MoralCondition_v2,2022.2.5,29.994567987769116,
5,0,5,0,5,0,5,0,,,,,,,,,,,,,,,,,,,,,,,,,,,,,,,,,,,,,,,,,,,,,,,,,,,,327.9902724996209,327.9902724996209,0.007051799912005663,0.09821739979088306,7.0,1.9920677999034524,,,,,,,,,,,,,673,Moral,2024-03-22_14h20.17.563,MoralCondition_v2,2022.2.5,29.994567987769116,
5,0,5,0,6,0,6,0,,,,,,,,,,,,,,,,,,,,,,,,,,,,,,,,,,,,,,,,,,,,,,,,,,,,330.04039629967883,330.04039629967883,0.008219399955123663,0.11382189998403192,6.0,1.5402143001556396,,,,,,,,,,,,,673,Moral,2024-03-22_14h20.17.563,MoralCondition_v2,2022.2.5,29.994567987769116,
5,0,5,0,,,,,,,,,,,,,,,,,,,,,,,,,,,,,,,,,,,,,,,,,,,,,,,,,,,,,,,,,,,,,,331.6069069998339,331.6069069998339,0.001177800353616476,0.09798380034044385,6.0,5.1647395002655685,,,,,,,673,Moral,2024-03-22_14h20.17.563,MoralCondition_v2,2022.2.5,29.994567987769116,
6,0,6,0,0,0,0,0,,,,,,,,,,,,,,,,,,,,336.8071636999957,0.00035530002787709236,0.09690140001475811,342.823524300009,6.013510800432414,,343.02364399982616,343.02364399982616,0.1113050002604723,0.21374309994280338,6.01373070012778,349.0901764999144,349.0901764999144,349.0901764999144,0.0797137999907136,0.18043929990381002,354.79032719973475,354.99004079960287,6.013359600212425,6.113545599859208,360.99017719971016,12.013534899801016,,361.1234883000143,361.1234883000143,0.013479100074619055,0.11345979990437627,down,0.7059657000936568,361.8733369000256,3.7800054997205734e-05,0.09808839997276664,367.8906551999971,367.8906551999971,0.009430800098925829,0.11485369969159365,6.0,2.9064476997591555,,,,,,,361.09002099977806,361.09002099977806,367.8906551999971,,,,673,Moral,2024-03-22_14h20.17.563,MoralCondition_v2,2022.2.5,29.994567987769116,
6,0,6,0,1,0,1,0,,,,,,,,,,,,,,,,,,,,,,,,,,,,,,,,,,,,,,,,,,,,,,,,,,,,370.82343819970265,370.82343819970265,0.007007000036537647,0.098042500205338,5.0,1.3255777996964753,,,,,,,,,,,,,673,Moral,2024-03-22_14h20.17.563,MoralCondition_v2,2022.2.5,29.994567987769116,
6,0,6,0,2,0,2,0,,,,,,,,,,,,,,,,,,,,,,,,,,,,,,,,,,,,,,,,,,,,,,,,,,,,372.190231599845,372.190231599845,0.006342199631035328,0.09850829979404807,5.0,1.426580199971795,,,,,,,,,,,,,673,Moral,2024-03-22_14h20.17.563,MoralCondition_v2,2022.2.5,29.994567987769116,
6,0,6,0,3,0,3,0,,,,,,,,,,,,,,,,,,,,,,,,,,,,,,,,,,,,,,,,,,,,,,,,,,,,373.65664279973134,373.65664279973134,0.008619400206953287,0.0976225002668798,1.0,1.6233196002431214,,,,,,,,,,,,,673,Moral,2024-03-22_14h20.17.563,MoralCondition_v2,2022.2.5,29.994567987769116,
6,0,6,0,4,0,4,0,,,,,,,,,,,,,,,,,,,,,,,,,,,,,,,,,,,,,,,,,,,,,,,,,,,,375.32344029983506,375.32344029983506,0.006321900058537722,0.09913090011104941,5.0,1.5272872000932693,,,,,,,,,,,,,673,Moral,2024-03-22_14h20.17.563,MoralCondition_v2,2022.2.5,29.994567987769116,
6,0,6,0,5,0,5,0,,,,,,,,,,,,,,,,,,,,,,,,,,,,,,,,,,,,,,,,,,,,,,,,,,,,376.8900563996285,376.8900563996285,0.006390400230884552,0.09912170004099607,5.0,1.2605309002101421,,,,,,,,,,,,,673,Moral,2024-03-22_14h20.17.563,MoralCondition_v2,2022.2.5,29.994567987769116,
6,0,6,0,6,0,6,0,,,,,,,,,,,,,,,,,,,,,,,,,,,,,,,,,,,,,,,,,,,,,,,,,,,,378.19015749963,378.19015749963,0.007209199946373701,0.09743679966777563,1.0,1.4247996001504362,,,,,,,,,,,,,673,Moral,2024-03-22_14h20.17.563,MoralCondition_v2,2022.2.5,29.994567987769116,
6,0,6,0,,,,,,,,,,,,,,,,,,,,,,,,,,,,,,,,,,,,,,,,,,,,,,,,,,,,,,,,,,,,,,379.65668189991266,379.65668189991266,0.0007293997332453728,0.09897230006754398,2.0,2.1664423998445272,,,,,,,673,Moral,2024-03-22_14h20.17.563,MoralCondition_v2,2022.2.5,29.994567987769116,
7,0,7,0,0,0,0,0,,,,,,,,,,,,,,,,,,,,381.85703999968246,0.00023119989782571793,0.09787829965353012,387.8567296997644,6.031157799996436,,388.056754199788,388.056754199788,0.09868839988484979,0.1980525995604694,6.031088799703866,394.1567629999481,394.1567629999481,394.1567629999481,0.08639509975910187,0.19785229954868555,399.85680039972067,400.0566821997054,6.031070699449629,6.131121199578047,406.0566953998059,12.031133299693465,,406.19004129990935,406.19004129990935,0.03129539964720607,0.13107379944995046,up,0.8394581996835768,407.09023839980364,4.850002005696297e-05,0.09762169979512691,413.10692229960114,413.10692229960114,0.008763100020587444,0.11435809964314103,5.0,2.206461500376463,,,,,,,406.15669969981536,406.15669969981536,413.10692229960114,394.056753099896,394.056753099896,,673,Moral,2024-03-22_14h20.17.563,MoralCondition_v2,2022.2.5,29.994567987769116,
7,0,7,0,1,0,1,0,,,,,,,,,,,,,,,,,,,,,,,,,,,,,,,,,,,,,,,,,,,,,,,,,,,,415.3400790998712,415.3400790998712,0.0068373000249266624,0.0981521001085639,5.0,0.992578299716115,,,,,,,,,,,,,673,Moral,2024-03-22_14h20.17.563,MoralCondition_v2,2022.2.5,29.994567987769116,
7,0,7,0,2,0,2,0,,,,,,,,,,,,,,,,,,,,,,,,,,,,,,,,,,,,,,,,,,,,,,,,,,,,416.3734364998527,416.3734364998527,0.006471300031989813,0.09913689969107509,1.0,1.4607178997248411,,,,,,,,,,,,,673,Moral,2024-03-22_14h20.17.563,MoralCondition_v2,2022.2.5,29.994567987769116,
7,0,7,0,3,0,3,0,,,,,,,,,,,,,,,,,,,,,,,,,,,,,,,,,,,,,,,,,,,,,,,,,,,,417.87330199964345,417.87330199964345,0.006363800261169672,0.09908160008490086,1.0,0.8941017999313772,,,,,,,,,,,,,673,Moral,2024-03-22_14h20.17.563,MoralCondition_v2,2022.2.5,29.994567987769116,
7,0,7,0,4,0,4,0,,,,,,,,,,,,,,,,,,,,,,,,,,,,,,,,,,,,,,,,,,,,,,,,,,,,418.80645779985934,418.80645779985934,0.007269099820405245,0.0990884997881949,1.0,0.5595143996179104,,,,,,,,,,,,,673,Moral,2024-03-22_14h20.17.563,MoralCondition_v2,2022.2.5,29.994567987769116,
7,0,7,0,5,0,5,0,,,,,,,,,,,,,,,,,,,,,,,,,,,,,,,,,,,,,,,,,,,,,,,,,,,,419.4234319999814,419.4234319999814,0.009710700251162052,0.11347490036860108,1.0,0.8382938001304865,,,,,,,,,,,,,673,Moral,2024-03-22_14h20.17.563,MoralCondition_v2,2022.2.5,29.994567987769116,
7,0,7,0,6,0,6,0,,,,,,,,,,,,,,,,,,,,,,,,,,,,,,,,,,,,,,,,,,,,,,,,,,,,420.2899537999183,420.2899537999183,0.007194099947810173,0.09789739968255162,7.0,1.7249779999256134,,,,,,,,,,,,,673,Moral,2024-03-22_14h20.17.563,MoralCondition_v2,2022.2.5,29.994567987769116,
7,0,7,0,,,,,,,,,,,,,,,,,,,,,,,,,,,,,,,,,,,,,,,,,,,,,,,,,,,,,,,,,,,,,,422.0571490996517,422.0571490996517,0.00191799970343709,0.09709729999303818,6.0,1.9299289002083242,,,,,,,673,Moral,2024-03-22_14h20.17.563,MoralCondition_v2,2022.2.5,29.994567987769116,
8,0,8,0,0,0,0,0,,,,,,,,,,,,,,,,,,,,424.02351139998063,0.00024670036509633064,0.09794550016522408,430.023489699699,6.031456200405955,,430.22335249977186,430.22335249977186,0.09466330008581281,0.19805649993941188,6.031375499907881,436.32311919983476,436.32311919983476,436.32311919983476,0.08339329995214939,0.19788220012560487,442.02321789972484,442.2233455996029,6.031368900090456,6.131195600144565,448.22346019977704,12.03145350003615,,448.3565597999841,448.3565597999841,0.031459399964660406,0.1312830001115799,up,1.2973270998336375,449.68986919987947,4.71002422273159e-05,0.09753989987075329,455.7232319000177,455.7232319000177,0.024753100238740444,0.13078089989721775,5.0,5.340713699813932,,,,,,,448.3232548995875,448.3232548995875,,436.22323629958555,436.22323629958555,,673,Moral,2024-03-22_14h20.17.563,MoralCondition_v2,2022.2.5,29.994567987769116,
8,0,8,0,1,0,1,0,,,,,,,,,,,,,,,,,,,,,,,,,,,,,,,,,,,,,,,,,,,,,,,,,,,,461.0900058997795,461.0900058997795,0.008873300161212683,0.09825160028412938,4.0,1.4898362001404166,,,,,,,,,,,,,673,Moral,2024-03-22_14h20.17.563,MoralCondition_v2,2022.2.5,29.994567987769116,
8,0,8,0,2,0,2,0,,,,,,,,,,,,,,,,,,,,,,,,,,,,,,,,,,,,,,,,,,,,,,,,,,,,462.6231582998298,462.6231582998298,0.006683900021016598,0.09908889979124069,4.0,2.0602639000862837,,,,,,,,,,,,,673,Moral,2024-03-22_14h20.17.563,MoralCondition_v2,2022.2.5,29.994567987769116,
8,0,8,0,3,0,3,0,,,,,,,,,,,,,,,,,,,,,,,,,,,,,,,,,,,,,,,,,,,,,,,,,,,,464.72330799978226,464.72330799978226,0.0066944002173841,0.0984044000506401,1.0,1.4594037998467684,,,,,,,,,,,,,673,Moral,2024-03-22_14h20.17.563,MoralCondition_v2,2022.2.5,29.994567987769116,
8,0,8,0,4,0,4,0,,,,,,,,,,,,,,,,,,,,,,,,,,,,,,,,,,,,,,,,,,,,,,,,,,,,466.2233669999987,466.2233669999987,0.007138099987059832,0.0978872999548912,1.0,0.8251724001020193,,,,,,,,,,,,,673,Moral,2024-03-22_14h20.17.563,MoralCondition_v2,2022.2.5,29.994567987769116,
8,0,8,0,5,0,5,0,,,,,,,,,,,,,,,,,,,,,,,,,,,,,,,,,,,,,,,,,,,,,,,,,,,,467.08992839977145,467.08992839977145,0.007781200110912323,0.09764719987288117,1.0,1.2576303002424538,,,,,,,,,,,,,673,Moral,2024-03-22_14h20.17.563,MoralCondition_v2,2022.2.5,29.994567987769116,
8,0,8,0,6,0,6,0,,,,,,,,,,,,,,,,,,,,,,,,,,,,,,,,,,,,,,,,,,,,,,,,,,,,468.38980999961495,468.38980999961495,0.007204699795693159,0.09773720009252429,6.0,2.6583086997270584,,,,,,,,,,,,,673,Moral,2024-03-22_14h20.17.563,MoralCondition_v2,2022.2.5,29.994567987769116,
8,0,8,0,,,,,,,,,,,,,,,,,,,,,,,,,,,,,,,,,,,,,,,,,,,,,,,,,,,,,,,,,,,,,,471.08995589986444,471.08995589986444,0.0007046000100672245,0.09908969979733229,6.0,4.066049600020051,,,,,,,673,Moral,2024-03-22_14h20.17.563,MoralCondition_v2,2022.2.5,29.994567987769116,
9,0,9,0,0,0,0,0,,,,,,,,,,,,,,,,,,,,475.1899410998449,0.00026800017803907394,0.0984056000597775,481.1897787996568,6.0317257000133395,,481.37319519976154,481.37319519976154,0.07638939982280135,0.1817950000986457,6.015065600164235,487.4729422000237,487.4729422000237,487.4729422000237,0.07076729973778129,0.18171279970556498,493.17309589963406,493.3730843998492,6.0150286997668445,6.115018799901009,499.37308829976246,12.015041899867356,,499.50639380002394,499.50639380002394,0.01514699961990118,0.11501779966056347,down,1.1560665997676551,500.70626479992643,4.54997643828392e-05,0.11461659986525774,506.7065365999006,506.7065365999006,0.008965699933469296,0.09783919993788004,1.0,2.523729700129479,,,,,,,499.47303659981117,499.47303659981117,506.7065365999006,487.37312009977177,487.37312009977177,,673,Moral,2024-03-22_14h20.17.563,MoralCondition_v2,2022.2.5,29.994567987769116,
9,0,9,0,1,0,1,0,,,,,,,,,,,,,,,,,,,,,,,,,,,,,,,,,,,,,,,,,,,,,,,,,,,,509.27300289971754,509.27300289971754,0.00665519991889596,0.09901509992778301,5.0,1.293388199992478,,,,,,,,,,,,,673,Moral,2024-03-22_14h20.17.563,MoralCondition_v2,2022.2.5,29.994567987769116,
9,0,9,0,2,0,2,0,,,,,,,,,,,,,,,,,,,,,,,,,,,,,,,,,,,,,,,,,,,,,,,,,,,,510.6062543997541,510.6062543997541,0.0072165001183748245,0.09934940002858639,1.0,1.1928345998749137,,,,,,,,,,,,,673,Moral,2024-03-22_14h20.17.563,MoralCondition_v2,2022.2.5,29.994567987769116,
9,0,9,0,3,0,3,0,,,,,,,,,,,,,,,,,,,,,,,,,,,,,,,,,,,,,,,,,,,,,,,,,,,,511.83977339975536,511.83977339975536,0.008044399786740541,0.09789289999753237,1.0,1.1907957000657916,,,,,,,,,,,,,673,Moral,2024-03-22_14h20.17.563,MoralCondition_v2,2022.2.5,29.994567987769116,
9,0,9,0,4,0,4,0,,,,,,,,,,,,,,,,,,,,,,,,,,,,,,,,,,,,,,,,,,,,,,,,,,,,513.0730635998771,513.0730635998771,0.007295900024473667,0.09743760013952851,5.0,1.1247781999409199,,,,,,,,,,,,,673,Moral,2024-03-22_14h20.17.563,MoralCondition_v2,2022.2.5,29.994567987769116,
9,0,9,0,5,0,5,0,,,,,,,,,,,,,,,,,,,,,,,,,,,,,,,,,,,,,,,,,,,,,,,,,,,,514.2397403996438,514.2397403996438,0.007121100090444088,0.09772330010309815,5.0,0.9586519999429584,,,,,,,,,,,,,673,Moral,2024-03-22_14h20.17.563,MoralCondition_v2,2022.2.5,29.994567987769116,
9,0,9,0,6,0,6,0,,,,,,,,,,,,,,,,,,,,,,,,,,,,,,,,,,,,,,,,,,,,,,,,,,,,515.2564270999283,515.2564270999283,0.007571500260382891,0.11449189996346831,5.0,0.841157500166446,,,,,,,,,,,,,673,Moral,2024-03-22_14h20.17.563,MoralCondition_v2,2022.2.5,29.994567987769116,
9,0,9,0,,,,,,,,,,,,,,,,,,,,,,,,,,,,,,,,,,,,,,,,,,,,,,,,,,,,,,,,,,,,,,516.1230508997105,516.1230508997105,0.000729699619114399,0.09902209974825382,2.0,2.0329801999032497,,,,,,,673,Moral,2024-03-22_14h20.17.563,MoralCondition_v2,2022.2.5,29.994567987769116,
10,0,10,0,0,0,0,0,,,,,,,,,,,,,,,,,,,,518.1900420999154,0.00015430012717843056,0.0992183000780642,524.189663299825,5.9990194998681545,6.099134299904108,524.3563924999908,524.3563924999908,0.060808099806308746,0.1659976001828909,5.999226199928671,530.456233299803,530.456233299803,530.456233299803,0.055733599700033665,0.16586959967389703,536.1562521997839,536.3895880999044,6.032314899843186,6.132316799834371,542.3896567998454,12.032342199701816,,542.5061148996465,542.5061148996465,0.03231319971382618,0.11559799965471029,down,0.8834951999597251,543.4397288998589,4.879990592598915e-05,0.09797419980168343,549.473089999985,549.473089999985,0.0252832998521626,0.1313348999246955,7.0,3.2739722998812795,,,,,,,542.4562908997759,542.4562908997759,,530.3566609998234,530.3566609998234,6.09942530002445,673,Moral,2024-03-22_14h20.17.563,MoralCondition_v2,2022.2.5,29.994567987769116,
10,0,10,0,1,0,1,0,,,,,,,,,,,,,,,,,,,,,,,,,,,,,,,,,,,,,,,,,,,,,,,,,,,,552.77302339999,552.77302339999,0.006855200044810772,0.09923420008271933,7.0,1.0264687002636492,,,,,,,,,,,,,673,Moral,2024-03-22_14h20.17.563,MoralCondition_v2,2022.2.5,29.994567987769116,
10,0,10,0,2,0,2,0,,,,,,,,,,,,,,,,,,,,,,,,,,,,,,,,,,,,,,,,,,,,,,,,,,,,553.8396300999448,553.8396300999448,0.007119799964129925,0.09801420010626316,1.0,1.3919632001779974,,,,,,,,,,,,,673,Moral,2024-03-22_14h20.17.563,MoralCondition_v2,2022.2.5,29.994567987769116,
10,0,10,0,3,0,3,0,,,,,,,,,,,,,,,,,,,,,,,,,,,,,,,,,,,,,,,,,,,,,,,,,,,,555.2728462996893,555.2728462996893,0.006737200077623129,0.09897900000214577,6.0,1.5600693998858333,,,,,,,,,,,,,673,Moral,2024-03-22_14h20.17.563,MoralCondition_v2,2022.2.5,29.994567987769116,
10,0,10,0,4,0,4,0,,,,,,,,,,,,,,,,,,,,,,,,,,,,,,,,,,,,,,,,,,,,,,,,,,,,556.8729602997191,556.8729602997191,0.007574600167572498,0.09781600022688508,7.0,1.157862599939108,,,,,,,,,,,,,673,Moral,2024-03-22_14h20.17.563,MoralCondition_v2,2022.2.5,29.994567987769116,
10,0,10,0,5,0,5,0,,,,,,,,,,,,,,,,,,,,,,,,,,,,,,,,,,,,,,,,,,,,,,,,,,,,558.0728548998013,558.0728548998013,0.007521300110965967,0.09766450012102723,1.0,1.5579630001448095,,,,,,,,,,,,,673,Moral,2024-03-22_14h20.17.563,MoralCondition_v2,2022.2.5,29.994567987769116,
10,0,10,0,6,0,6,0,,,,,,,,,,,,,,,,,,,,,,,,,,,,,,,,,,,,,,,,,,,,,,,,,,,,559.6730414996855,559.6730414996855,0.006818199995905161,0.09904260002076626,7.0,1.2600161000154912,,,,,,,,,,,,,673,Moral,2024-03-22_14h20.17.563,MoralCondition_v2,2022.2.5,29.994567987769116,
10,0,10,0,,,,,,,,,,,,,,,,,,,,,,,,,,,,,,,,,,,,,,,,,,,,,,,,,,,,,,,,,,,,,,560.9728786000051,560.9728786000051,0.0007221000269055367,0.09927960019558668,1.0,1.9998412998393178,,,,,,,673,Moral,2024-03-22_14h20.17.563,MoralCondition_v2,2022.2.5,29.994567987769116,
11,0,11,0,0,0,0,0,,,,,,,,,,,,,,,,,,,,563.0064224000089,0.0002752002328634262,0.09736140025779605,569.0227983999066,6.01399220013991,,569.1894751996733,569.1894751996733,0.07556000025942922,0.1807514000684023,6.014242900069803,575.2895909999497,575.2895909999497,575.2895909999497,0.0701923999004066,0.18086729990318418,580.9893664997071,581.1894724997692,6.014060799963772,6.114181399811059,587.1894673998468,12.014044600073248,,587.3227697997354,587.3227697997354,0.014224600046873093,0.113928799983114,down,2.7227452998049557,590.1060885996558,4.6900007873773575e-05,0.09806420002132654,596.1228573997505,596.1228573997505,0.010805400088429451,0.11463890038430691,5.0,4.238598600029945,,,,,,,587.2894415999763,587.2894415999763,596.1228573997505,575.1894537997432,575.1894537997432,,673,Moral,2024-03-22_14h20.17.563,MoralCondition_v2,2022.2.5,29.994567987769116,
11,0,11,0,1,0,1,0,,,,,,,,,,,,,,,,,,,,,,,,,,,,,,,,,,,,,,,,,,,,,,,,,,,,600.389433299657,600.389433299657,0.0060096001252532005,0.09917289996519685,1.0,1.3608488999307156,,,,,,,,,,,,,673,Moral,2024-03-22_14h20.17.563,MoralCondition_v2,2022.2.5,29.994567987769116,
11,0,11,0,2,0,2,0,,,,,,,,,,,,,,,,,,,,,,,,,,,,,,,,,,,,,,,,,,,,,,,,,,,,601.7894747997634,601.7894747997634,0.006315199658274651,0.09895999962463975,5.0,1.1271993997506797,,,,,,,,,,,,,673,Moral,2024-03-22_14h20.17.563,MoralCondition_v2,2022.2.5,29.994567987769116,
11,0,11,0,3,0,3,0,,,,,,,,,,,,,,,,,,,,,,,,,,,,,,,,,,,,,,,,,,,,,,,,,,,,602.9559387997724,602.9559387997724,0.007466800045222044,0.09748500026762486,5.0,0.8913591997697949,,,,,,,,,,,,,673,Moral,2024-03-22_14h20.17.563,MoralCondition_v2,2022.2.5,29.994567987769116,
11,0,11,0,4,0,4,0,,,,,,,,,,,,,,,,,,,,,,,,,,,,,,,,,,,,,,,,,,,,,,,,,,,,603.8892220999114,603.8892220999114,0.007246699649840593,0.09800579957664013,5.0,1.4586522998288274,,,,,,,,,,,,,673,Moral,2024-03-22_14h20.17.563,MoralCondition_v2,2022.2.5,29.994567987769116,
11,0,11,0,5,0,5,0,,,,,,,,,,,,,,,,,,,,,,,,,,,,,,,,,,,,,,,,,,,,,,,,,,,,605.3893494997174,605.3893494997174,0.007256099954247475,0.09776670020073652,1.0,1.4915773002430797,,,,,,,,,,,,,673,Moral,2024-03-22_14h20.17.563,MoralCondition_v2,2022.2.5,29.994567987769116,
11,0,11,0,6,0,6,0,,,,,,,,,,,,,,,,,,,,,,,,,,,,,,,,,,,,,,,,,,,,,,,,,,,,606.9228044999763,606.9228044999763,0.007074899971485138,0.09808749984949827,5.0,1.2588010001927614,,,,,,,,,,,,,673,Moral,2024-03-22_14h20.17.563,MoralCondition_v2,2022.2.5,29.994567987769116,
11,0,11,0,,,,,,,,,,,,,,,,,,,,,,,,,,,,,,,,,,,,,,,,,,,,,,,,,,,,,,,,,,,,,,608.2228730996139,608.2228730996139,0.0013286997564136982,0.09752359986305237,2.0,2.797376099973917,,,,,,,673,Moral,2024-03-22_14h20.17.563,MoralCondition_v2,2022.2.5,29.994567987769116,
12,0,12,0,0,0,0,0,,,,,,,,,,,,,,,,,,,,611.0564142996445,0.00020330026745796204,0.0989426001906395,617.0726293995976,6.0155294998548925,,617.2392861996777,617.2392861996777,0.08243220020085573,0.18227169988676906,6.01545810000971,623.373012600001,623.373012600001,623.373012600001,0.10792319988831878,0.21555159986019135,629.0726072997786,629.2391109997407,6.015122000128031,6.1153380000032485,635.2392346998677,12.015404199715704,,635.372582399752,635.372582399752,0.015491699799895287,0.1153054996393621,down,1.2099791998043656,636.6226357999258,4.20999713242054e-05,0.09789309976622462,642.6394555997103,642.6394555997103,0.025358099956065416,0.11446749977767467,5.0,2.05692039988935,,,,,,,,,,623.2393065998331,623.2393065998331,,673,Moral,2024-03-22_14h20.17.563,MoralCondition_v2,2022.2.5,29.994567987769116,
12,0,12,0,1,0,1,0,,,,,,,,,,,,,,,,,,,,,,,,,,,,,,,,,,,,,,,,,,,,,,,,,,,,644.7393720997497,644.7393720997497,0.007656299974769354,0.09807520033791661,1.0,1.558241699822247,,,,,,,,,,,,,673,Moral,2024-03-22_14h20.17.563,MoralCondition_v2,2022.2.5,29.994567987769116,
12,0,12,0,2,0,2,0,,,,,,,,,,,,,,,,,,,,,,,,,,,,,,,,,,,,,,,,,,,,,,,,,,,,646.3392542996444,646.3392542996444,0.007616300135850906,0.09783629979938269,5.0,2.0246260999701917,,,,,,,,,,,,,673,Moral,2024-03-22_14h20.17.563,MoralCondition_v2,2022.2.5,29.994567987769116,
12,0,12,0,3,0,3,0,,,,,,,,,,,,,,,,,,,,,,,,,,,,,,,,,,,,,,,,,,,,,,,,,,,,648.4060430997051,648.4060430997051,0.008250000420957804,0.09798780037090182,5.0,0.8241202998906374,,,,,,,,,,,,,673,Moral,2024-03-22_14h20.17.563,MoralCondition_v2,2022.2.5,29.994567987769116,
12,0,12,0,4,0,4,0,,,,,,,,,,,,,,,,,,,,,,,,,,,,,,,,,,,,,,,,,,,,,,,,,,,,649.2896995996125,649.2896995996125,0.007703999988734722,0.1143398997373879,5.0,0.9744616998359561,,,,,,,,,,,,,673,Moral,2024-03-22_14h20.17.563,MoralCondition_v2,2022.2.5,29.994567987769116,
12,0,12,0,5,0,5,0,,,,,,,,,,,,,,,,,,,,,,,,,,,,,,,,,,,,,,,,,,,,,,,,,,,,650.2892609997652,650.2892609997652,0.00739490007981658,0.09837769996374846,5.0,0.7260365001857281,,,,,,,,,,,,,673,Moral,2024-03-22_14h20.17.563,MoralCondition_v2,2022.2.5,29.994567987769116,
12,0,12,0,6,0,6,0,,,,,,,,,,,,,,,,,,,,,,,,,,,,,,,,,,,,,,,,,,,,,,,,,,,,651.0557029996999,651.0557029996999,0.006524800322949886,0.09923880035057664,1.0,1.3603491000831127,,,,,,,,,,,,,673,Moral,2024-03-22_14h20.17.563,MoralCondition_v2,2022.2.5,29.994567987769116,
12,0,12,0,,,,,,,,,,,,,,,,,,,,,,,,,,,,,,,,,,,,,,,,,,,,,,,,,,,,,,,,,,,,,,652.4559064996429,652.4559064996429,0.0011732997372746468,0.09766489965841174,2.0,2.0311285997740924,,,,,,,673,Moral,2024-03-22_14h20.17.563,MoralCondition_v2,2022.2.5,29.994567987769116,
13,0,13,0,0,0,0,0,,,,,,,,,,,,,,,,,,,,654.5226483996958,0.0004374999552965164,0.09791139978915453,660.5225288998336,6.031147100031376,,660.7225289996713,660.7225289996713,0.0867201997898519,0.19793519983068109,6.031130000017583,666.805896199774,666.805896199774,666.805896199774,0.08176800003275275,0.1812111996114254,672.5057174996473,672.7058104998432,6.014413899742067,6.114420699886978,678.7057677996345,12.014451999682933,,678.8391363997944,678.8391363997944,0.01452199975028634,0.11430849973112345,down,0.19843450002372265,679.0725095998496,5.2199698984622955e-05,0.09788349969312549,685.0892145996913,685.0892145996913,0.02030509989708662,0.11459109978750348,5.0,1.19518500007689,,,,,,,678.8057680996135,678.8057680996135,,666.7224873998202,666.7224873998202,,673,Moral,2024-03-22_14h20.17.563,MoralCondition_v2,2022.2.5,29.994567987769116,
13,0,13,0,1,0,1,0,,,,,,,,,,,,,,,,,,,,,,,,,,,,,,,,,,,,,,,,,,,,,,,,,,,,686.3225521999411,686.3225521999411,0.007138400338590145,0.09748840006068349,1.0,1.424831499811262,,,,,,,,,,,,,673,Moral,2024-03-22_14h20.17.563,MoralCondition_v2,2022.2.5,29.994567987769116,
13,0,13,0,2,0,2,0,,,,,,,,,,,,,,,,,,,,,,,,,,,,,,,,,,,,,,,,,,,,,,,,,,,,687.7889560996555,687.7889560996555,0.007100100163370371,0.09918319992721081,5.0,1.0599736999720335,,,,,,,,,,,,,673,Moral,2024-03-22_14h20.17.563,MoralCondition_v2,2022.2.5,29.994567987769116,
13,0,13,0,3,0,3,0,,,,,,,,,,,,,,,,,,,,,,,,,,,,,,,,,,,,,,,,,,,,,,,,,,,,688.8892422998324,688.8892422998324,0.006483200006186962,0.09905539965257049,5.0,0.42701860005035996,,,,,,,,,,,,,673,Moral,2024-03-22_14h20.17.563,MoralCondition_v2,2022.2.5,29.994567987769116,
13,0,13,0,4,0,4,0,,,,,,,,,,,,,,,,,,,,,,,,,,,,,,,,,,,,,,,,,,,,,,,,,,,,689.355633799918,689.355633799918,0.007463700138032436,0.09799800021573901,5.0,0.5579106002114713,,,,,,,,,,,,,673,Moral,2024-03-22_14h20.17.563,MoralCondition_v2,2022.2.5,29.994567987769116,
13,0,13,0,5,0,5,0,,,,,,,,,,,,,,,,,,,,,,,,,,,,,,,,,,,,,,,,,,,,,,,,,,,,689.9556372999214,689.9556372999214,0.007170399650931358,0.09777509979903698,5.0,0.6249847002327442,,,,,,,,,,,,,673,Moral,2024-03-22_14h20.17.563,MoralCondition_v2,2022.2.5,29.994567987769116,
13,0,13,0,6,0,6,0,,,,,,,,,,,,,,,,,,,,,,,,,,,,,,,,,,,,,,,,,,,,,,,,,,,,690.6392596997321,690.6392596997321,0.008242799900472164,0.11459019966423512,1.0,1.1737233996391296,,,,,,,,,,,,,673,Moral,2024-03-22_14h20.17.563,MoralCondition_v2,2022.2.5,29.994567987769116,
13,0,13,0,,,,,,,,,,,,,,,,,,,,,,,,,,,,,,,,,,,,,,,,,,,,,,,,,,,,,,,,,,,,,,691.8390587000176,691.8390587000176,0.0013991002924740314,0.0973729002289474,2.0,1.4638195997104049,,,,,,,673,Moral,2024-03-22_14h20.17.563,MoralCondition_v2,2022.2.5,29.994567987769116,
14,0,14,0,0,0,0,0,,,,,,,,,,,,,,,,,,,,693.3392053996213,0.00029799994081258774,0.09743559965863824,699.355691799894,6.014289199840277,,699.5725504998118,699.5725504998118,0.11807049950584769,0.23111619986593723,6.030702999792993,705.6388977998868,705.6388977998868,705.6388977998868,0.08702509943395853,0.19744289945811033,711.3389555998147,711.5389365996234,6.030713799409568,6.130747699644417,717.5389586999081,12.030721899587661,,717.6722850999795,717.6722850999795,0.030882999766618013,0.13066039932891726,up,0.28522370010614395,718.0055970996618,1.5000347048044205e-05,0.09922580001875758,724.0221895999275,724.0221895999275,0.01055060001090169,0.11573690036311746,5.0,1.3064955002628267,,,,,,,717.6389318997972,717.6389318997972,724.0221895999275,,,,673,Moral,2024-03-22_14h20.17.563,MoralCondition_v2,2022.2.5,29.994567987769116,
14,0,14,0,1,0,1,0,,,,,,,,,,,,,,,,,,,,,,,,,,,,,,,,,,,,,,,,,,,,,,,,,,,,725.3558009997942,725.3558009997942,0.007317599840462208,0.09741359995678067,4.0,1.957947799935937,,,,,,,,,,,,,673,Moral,2024-03-22_14h20.17.563,MoralCondition_v2,2022.2.5,29.994567987769116,
14,0,14,0,2,0,2,0,,,,,,,,,,,,,,,,,,,,,,,,,,,,,,,,,,,,,,,,,,,,,,,,,,,,727.355628399644,727.355628399644,0.006584600079804659,0.09916040021926165,1.0,1.2273016995750368,,,,,,,,,,,,,673,Moral,2024-03-22_14h20.17.563,MoralCondition_v2,2022.2.5,29.994567987769116,
14,0,14,0,3,0,3,0,,,,,,,,,,,,,,,,,,,,,,,,,,,,,,,,,,,,,,,,,,,,,,,,,,,,728.6392055996694,728.6392055996694,0.00895680021494627,0.11449160007759929,1.0,0.6402116999961436,,,,,,,,,,,,,673,Moral,2024-03-22_14h20.17.563,MoralCondition_v2,2022.2.5,29.994567987769116,
14,0,14,0,4,0,4,0,,,,,,,,,,,,,,,,,,,,,,,,,,,,,,,,,,,,,,,,,,,,,,,,,,,,729.3054686998948,729.3054686998948,0.006591799668967724,0.09919440001249313,1.0,0.6270151999779046,,,,,,,,,,,,,673,Moral,2024-03-22_14h20.17.563,MoralCondition_v2,2022.2.5,29.994567987769116,
14,0,14,0,5,0,5,0,,,,,,,,,,,,,,,,,,,,,,,,,,,,,,,,,,,,,,,,,,,,,,,,,,,,729.9724586997181,729.9724586997181,0.0067218998447060585,0.09847630001604557,1.0,0.5260113999247551,,,,,,,,,,,,,673,Moral,2024-03-22_14h20.17.563,MoralCondition_v2,2022.2.5,29.994567987769116,
14,0,14,0,6,0,6,0,,,,,,,,,,,,,,,,,,,,,,,,,,,,,,,,,,,,,,,,,,,,,,,,,,,,730.5388540998101,730.5388540998101,0.007151300087571144,0.09912399994209409,7.0,1.3602432999759912,,,,,,,,,,,,,673,Moral,2024-03-22_14h20.17.563,MoralCondition_v2,2022.2.5,29.994567987769116,
14,0,14,0,,,,,,,,,,,,,,,,,,,,,,,,,,,,,,,,,,,,,,,,,,,,,,,,,,,,,,,,,,,,,,731.938870199956,731.938870199956,0.0011289999820291996,0.09836120018735528,7.0,2.465206400025636,,,,,,,673,Moral,2024-03-22_14h20.17.563,MoralCondition_v2,2022.2.5,29.994567987769116,
15,0,15,0,0,0,0,0,,,,,,,,,,,,,,,,,,,,734.4391965996474,0.00026590004563331604,0.09911740012466908,740.4388729999773,5.999126000329852,6.09905350022018,740.6054078997113,740.6054078997113,0.05405879998579621,0.16583519987761974,5.999110099859536,746.7053411998786,746.7053411998786,746.7053411998786,0.052777200005948544,0.16580939991399646,752.4055977999233,752.6056240997277,5.999258100055158,6.099033599719405,758.6054860996082,11.99910550005734,12.099065399728715,758.7388060996309,758.7388060996309,2.998858690261841e-07,0.09923429973423481,down,3.01945500029251,761.8221731996164,5.389982834458351e-05,0.09786490024998784,767.8385296999477,767.8385296999477,0.02695930004119873,0.11433359980583191,2.0,2.555369900073856,,,,,,,758.7054367996752,758.7054367996752,,746.6054981998168,746.6054981998168,6.09912020014599,673,Moral,2024-03-22_14h20.17.563,MoralCondition_v2,2022.2.5,29.994567987769116,
15,0,15,0,1,0,1,0,,,,,,,,,,,,,,,,,,,,,,,,,,,,,,,,,,,,,,,,,,,,,,,,,,,,770.4386692997068,770.4386692997068,0.006848100107163191,0.0991516001522541,2.0,1.0266170999966562,,,,,,,,,,,,,673,Moral,2024-03-22_14h20.17.563,MoralCondition_v2,2022.2.5,29.994567987769116,
15,0,15,0,2,0,2,0,,,,,,,,,,,,,,,,,,,,,,,,,,,,,,,,,,,,,,,,,,,,,,,,,,,,771.5054012998007,771.5054012998007,0.007485100068151951,0.09784060018137097,6.0,2.491578500252217,,,,,,,,,,,,,673,Moral,2024-03-22_14h20.17.563,MoralCondition_v2,2022.2.5,29.994567987769116,
15,0,15,0,3,0,3,0,,,,,,,,,,,,,,,,,,,,,,,,,,,,,,,,,,,,,,,,,,,,,,,,,,,,774.0388505998999,774.0388505998999,0.007044400088489056,0.09924380015581846,6.0,1.0264588999561965,,,,,,,,,,,,,673,Moral,2024-03-22_14h20.17.563,MoralCondition_v2,2022.2.5,29.994567987769116,
15,0,15,0,4,0,4,0,,,,,,,,,,,,,,,,,,,,,,,,,,,,,,,,,,,,,,,,,,,,,,,,,,,,775.1053788997233,775.1053788997233,0.006743700243532658,0.09906850010156631,6.0,0.6932362001389265,,,,,,,,,,,,,673,Moral,2024-03-22_14h20.17.563,MoralCondition_v2,2022.2.5,29.994567987769116,
15,0,15,0,5,0,5,0,,,,,,,,,,,,,,,,,,,,,,,,,,,,,,,,,,,,,,,,,,,,,,,,,,,,775.8388729998842,775.8388729998842,0.007515599951148033,0.09764729999005795,6.0,1.09105519996956,,,,,,,,,,,,,673,Moral,2024-03-22_14h20.17.563,MoralCondition_v2,2022.2.5,29.994567987769116,
15,0,15,0,6,0,6,0,,,,,,,,,,,,,,,,,,,,,,,,,,,,,,,,,,,,,,,,,,,,,,,,,,,,776.9721367997117,776.9721367997117,0.008133899886161089,0.09806729992851615,6.0,1.1908440999686718,,,,,,,,,,,,,673,Moral,2024-03-22_14h20.17.563,MoralCondition_v2,2022.2.5,29.994567987769116,
15,0,15,0,,,,,,,,,,,,,,,,,,,,,,,,,,,,,,,,,,,,,,,,,,,,,,,,,,,,,,,,,,,,,,778.2055416000076,778.2055416000076,0.001241500023752451,0.09787259995937347,2.0,2.231158900074661,,,,,,,673,Moral,2024-03-22_14h20.17.563,MoralCondition_v2,2022.2.5,29.994567987769116,
16,0,16,0,0,0,0,0,,,,,,,,,,,,,,,,,,,,780.4722667997703,0.00016070017591118813,0.09922130033373833,786.4720801999792,5.999223600141704,6.099073000252247,786.6387765998952,786.6387765998952,0.05381920002400875,0.16590350028127432,5.999031400308013,792.7387559995987,792.7387559995987,792.7387559995987,0.05279819993302226,0.16598880011588335,798.4386773998849,798.6389086996205,5.999382600188255,6.099295000080019,804.6385597996414,11.999038999900222,12.09918100014329,804.755094899796,804.755094899796,-0.0005164998583495617,0.0824163998477161,down,0.23506820015609264,805.0552590996958,4.759989678859711e-05,0.09787219995632768,811.0551883997396,811.0551883997396,0.008815700188279152,0.09775139996781945,5.0,2.2568133999593556,,,,,,,804.7387688998133,804.7387688998133,811.0551883997396,792.638710399624,792.638710399624,6.099204299971461,673,Moral,2024-03-22_14h20.17.563,MoralCondition_v2,2022.2.5,29.994567987769116,
16,0,16,0,1,0,1,0,,,,,,,,,,,,,,,,,,,,,,,,,,,,,,,,,,,,,,,,,,,,,,,,,,,,813.3554671998136,813.3554671998136,0.0067483000457286835,0.09926429996266961,1.0,1.4266535001806915,,,,,,,,,,,,,673,Moral,2024-03-22_14h20.17.563,MoralCondition_v2,2022.2.5,29.994567987769116,
16,0,16,0,2,0,2,0,,,,,,,,,,,,,,,,,,,,,,,,,,,,,,,,,,,,,,,,,,,,,,,,,,,,814.8218946997076,814.8218946997076,0.007427400443702936,0.0975051000714302,5.0,0.891512899659574,,,,,,,,,,,,,673,Moral,2024-03-22_14h20.17.563,MoralCondition_v2,2022.2.5,29.994567987769116,
16,0,16,0,3,0,3,0,,,,,,,,,,,,,,,,,,,,,,,,,,,,,,,,,,,,,,,,,,,,,,,,,,,,815.7553699999116,815.7553699999116,0.00852059992030263,0.0974747003056109,5.0,0.3235349003225565,,,,,,,,,,,,,673,Moral,2024-03-22_14h20.17.563,MoralCondition_v2,2022.2.5,29.994567987769116,
16,0,16,0,4,0,4,0,,,,,,,,,,,,,,,,,,,,,,,,,,,,,,,,,,,,,,,,,,,,,,,,,,,,816.1219469998032,816.1219469998032,0.007767399773001671,0.09834069991484284,5.0,0.3581967996433377,,,,,,,,,,,,,673,Moral,2024-03-22_14h20.17.563,MoralCondition_v2,2022.2.5,29.994567987769116,
16,0,16,0,5,0,5,0,,,,,,,,,,,,,,,,,,,,,,,,,,,,,,,,,,,,,,,,,,,,,,,,,,,,816.5218670000322,816.5218670000322,0.007141599897295237,0.09785400005057454,1.0,1.2586488001979887,,,,,,,,,,,,,673,Moral,2024-03-22_14h20.17.563,MoralCondition_v2,2022.2.5,29.994567987769116,
16,0,16,0,6,0,6,0,,,,,,,,,,,,,,,,,,,,,,,,,,,,,,,,,,,,,,,,,,,,,,,,,,,,817.8219214999117,817.8219214999117,0.006913400255143642,0.09790599998086691,5.0,0.9255492999218404,,,,,,,,,,,,,673,Moral,2024-03-22_14h20.17.563,MoralCondition_v2,2022.2.5,29.994567987769116,
16,0,16,0,,,,,,,,,,,,,,,,,,,,,,,,,,,,,,,,,,,,,,,,,,,,,,,,,,,,,,,,,,,,,,818.7884934996255,818.7884934996255,0.0007184999994933605,0.09876850014552474,2.0,2.0660980003885925,,,,,,,673,Moral,2024-03-22_14h20.17.563,MoralCondition_v2,2022.2.5,29.994567987769116,
17,0,17,0,0,0,0,0,,,,,,,,,,,,,,,,,,,,820.8888713996857,0.0004944996908307076,0.09740420011803508,826.9053818997927,6.013881799764931,,827.0718115996569,827.0718115996569,0.070998499635607,0.18072039959952235,6.013875299599022,833.172024499625,833.172024499625,833.172024499625,0.06997629953548312,0.18075149971991777,838.8719323999248,839.0718260998838,6.013993899803609,6.113854999653995,845.0718511999585,12.013937499839813,,845.2051412998699,845.2051412998699,0.014043799601495266,0.11383149959146976,up,0.9603315000422299,846.2051497995853,3.79001721739769e-05,0.09792309999465942,852.2216979996301,852.2216979996301,0.02543159993365407,0.11433310015127063,2.0,4.290263100061566,,,,,,,845.1717602997087,845.1717602997087,,833.0718062999658,833.0718062999658,,673,Moral,2024-03-22_14h20.17.563,MoralCondition_v2,2022.2.5,29.994567987769116,
17,0,17,0,1,0,1,0,,,,,,,,,,,,,,,,,,,,,,,,,,,,,,,,,,,,,,,,,,,,,,,,,,,,856.5549910999835,856.5549910999835,0.006564600393176079,0.0993431000970304,5.0,1.3935974002815783,,,,,,,,,,,,,673,Moral,2024-03-22_14h20.17.563,MoralCondition_v2,2022.2.5,29.994567987769116,
17,0,17,0,2,0,2,0,,,,,,,,,,,,,,,,,,,,,,,,,,,,,,,,,,,,,,,,,,,,,,,,,,,,857.988476799801,857.988476799801,0.006588299758732319,0.09913739981129766,1.0,1.193551099859178,,,,,,,,,,,,,673,Moral,2024-03-22_14h20.17.563,MoralCondition_v2,2022.2.5,29.994567987769116,
17,0,17,0,3,0,3,0,,,,,,,,,,,,,,,,,,,,,,,,,,,,,,,,,,,,,,,,,,,,,,,,,,,,859.221724699717,859.221724699717,0.007531600072979927,0.09779610019177198,1.0,0.591261999681592,,,,,,,,,,,,,673,Moral,2024-03-22_14h20.17.563,MoralCondition_v2,2022.2.5,29.994567987769116,
17,0,17,0,4,0,4,0,,,,,,,,,,,,,,,,,,,,,,,,,,,,,,,,,,,,,,,,,,,,,,,,,,,,859.8549118996598,859.8549118996598,0.007218700367957354,0.09782120026648045,7.0,1.3251608000136912,,,,,,,,,,,,,673,Moral,2024-03-22_14h20.17.563,MoralCondition_v2,2022.2.5,29.994567987769116,
17,0,17,0,5,0,5,0,,,,,,,,,,,,,,,,,,,,,,,,,,,,,,,,,,,,,,,,,,,,,,,,,,,,861.2388345999643,861.2388345999643,0.0076812999323010445,0.11421940010040998,1.0,0.9407844999805093,,,,,,,,,,,,,673,Moral,2024-03-22_14h20.17.563,MoralCondition_v2,2022.2.5,29.994567987769116,
17,0,17,0,6,0,6,0,,,,,,,,,,,,,,,,,,,,,,,,,,,,,,,,,,,,,,,,,,,,,,,,,,,,862.2050660997629,862.2050660997629,0.006316300015896559,0.09897249983623624,1.0,0.6272164001129568,,,,,,,,,,,,,673,Moral,2024-03-22_14h20.17.563,MoralCondition_v2,2022.2.5,29.994567987769116,
17,0,17,0,,,,,,,,,,,,,,,,,,,,,,,,,,,,,,,,,,,,,,,,,,,,,,,,,,,,,,,,,,,,,,862.8718637996353,862.8718637996353,0.0011021001264452934,0.09839239995926619,6.0,1.9316191002726555,,,,,,,673,Moral,2024-03-22_14h20.17.563,MoralCondition_v2,2022.2.5,29.994567987769116,
18,0,18,0,0,0,0,0,,,,,,,,,,,,,,,,,,,,864.8390277000144,0.00013959966599941254,0.09896630002185702,870.838348899968,6.0323197999969125,,871.0548715996556,871.0548715996556,0.10285249957814813,0.2155895996838808,6.015517899766564,877.1217538998462,877.1217538998462,877.1217538998462,0.07428709976375103,0.18244699947535992,882.8216605000198,883.0216133999638,6.0155466995202005,6.115527499932796,889.0216171997599,12.015544599853456,,889.1549554998055,889.1549554998055,0.015721199568361044,0.11547819944098592,down,0.410784600302577,889.604940999765,3.3600255846977234e-05,0.09818050032481551,895.6217184998095,895.6217184998095,0.011806700378656387,0.11499650031328201,5.0,2.1707620001398027,,,,,,,889.1215937999077,889.1215937999077,895.6217184998095,,,,673,Moral,2024-03-22_14h20.17.563,MoralCondition_v2,2022.2.5,29.994567987769116,
18,0,18,0,1,0,1,0,,,,,,,,,,,,,,,,,,,,,,,,,,,,,,,,,,,,,,,,,,,,,,,,,,,,897.8215052997693,897.8215052997693,0.007477100007236004,0.09769179997965693,2.0,1.5911614000797272,,,,,,,,,,,,,673,Moral,2024-03-22_14h20.17.563,MoralCondition_v2,2022.2.5,29.994567987769116,
18,0,18,0,2,0,2,0,,,,,,,,,,,,,,,,,,,,,,,,,,,,,,,,,,,,,,,,,,,,,,,,,,,,899.4548223996535,899.4548223996535,0.0074848998337984085,0.09797140024602413,2.0,2.8247969998046756,,,,,,,,,,,,,673,Moral,2024-03-22_14h20.17.563,MoralCondition_v2,2022.2.5,29.994567987769116,
18,0,18,0,3,0,3,0,,,,,,,,,,,,,,,,,,,,,,,,,,,,,,,,,,,,,,,,,,,,,,,,,,,,902.3216072996147,902.3216072996147,0.0076385000720620155,0.09793339995667338,2.0,0.6912974999286234,,,,,,,,,,,,,673,Moral,2024-03-22_14h20.17.563,MoralCondition_v2,2022.2.5,29.994567987769116,
18,0,18,0,4,0,4,0,,,,,,,,,,,,,,,,,,,,,,,,,,,,,,,,,,,,,,,,,,,,,,,,,,,,903.0550166997127,903.0550166997127,0.006986800115555525,0.09805160015821457,5.0,2.258776200003922,,,,,,,,,,,,,673,Moral,2024-03-22_14h20.17.563,MoralCondition_v2,2022.2.5,29.994567987769116,
18,0,18,0,5,0,5,0,,,,,,,,,,,,,,,,,,,,,,,,,,,,,,,,,,,,,,,,,,,,,,,,,,,,905.3551625995897,905.3551625995897,0.007645000237971544,0.09723220020532608,5.0,1.0242027002386749,,,,,,,,,,,,,673,Moral,2024-03-22_14h20.17.563,MoralCondition_v2,2022.2.5,29.994567987769116,
18,0,18,0,6,0,6,0,,,,,,,,,,,,,,,,,,,,,,,,,,,,,,,,,,,,,,,,,,,,,,,,,,,,906.4382149996236,906.4382149996236,0.008485899772495031,0.11404519993811846,5.0,0.5398956998251379,,,,,,,,,,,,,673,Moral,2024-03-22_14h20.17.563,MoralCondition_v2,2022.2.5,29.994567987769116,
18,0,18,0,,,,,,,,,,,,,,,,,,,,,,,,,,,,,,,,,,,,,,,,,,,,,,,,,,,,,,,,,,,,,,907.0050774998963,907.0050774998963,0.0011911001056432724,0.09846530016511679,3.0,3.9315685001201928,,,,,,,673,Moral,2024-03-22_14h20.17.563,MoralCondition_v2,2022.2.5,29.994567987769116,
19,0,19,0,0,0,0,0,,,,,,,,,,,,,,,,,,,,910.9719316000119,0.0003611999563872814,0.09791780030354857,916.9882141998969,6.014617200009525,,917.1550172995776,917.1550172995776,0.07378430012613535,0.1812610002234578,6.014573200140148,923.2548499996774,923.2548499996774,923.2548499996774,0.074324999935925,0.18130959989503026,928.9548113998026,929.1547946999781,6.014583200216293,6.114739099983126,935.1547870999202,12.014584000222385,,935.2881625997834,935.2881625997834,0.014909399673342705,0.11470729997381568,up,2.718213699758053,938.054784799926,4.600035026669502e-05,0.09769200021401048,944.0712168999016,944.0712168999016,0.026009400375187397,0.11426990013569593,2.0,4.256013600155711,,,,,,,935.2548427996226,935.2548427996226,,923.1380207999609,923.1380207999609,,673,Moral,2024-03-22_14h20.17.563,MoralCondition_v2,2022.2.5,29.994567987769116,
19,0,19,0,1,0,1,0,,,,,,,,,,,,,,,,,,,,,,,,,,,,,,,,,,,,,,,,,,,,,,,,,,,,948.3713616998866,948.3713616998866,0.007421400398015976,0.0975963999517262,2.0,1.1579419001936913,,,,,,,,,,,,,673,Moral,2024-03-22_14h20.17.563,MoralCondition_v2,2022.2.5,29.994567987769116,
19,0,19,0,2,0,2,0,,,,,,,,,,,,,,,,,,,,,,,,,,,,,,,,,,,,,,,,,,,,,,,,,,,,949.571288399864,949.571288399864,0.005308600142598152,0.09918139968067408,2.0,0.661595200188458,,,,,,,,,,,,,673,Moral,2024-03-22_14h20.17.563,MoralCondition_v2,2022.2.5,29.994567987769116,
19,0,19,0,3,0,3,0,,,,,,,,,,,,,,,,,,,,,,,,,,,,,,,,,,,,,,,,,,,,,,,,,,,,950.2714411998168,950.2714411998168,0.006538799963891506,0.09917479986324906,2.0,0.5938281998969615,,,,,,,,,,,,,673,Moral,2024-03-22_14h20.17.563,MoralCondition_v2,2022.2.5,29.994567987769116,
19,0,19,0,4,0,4,0,,,,,,,,,,,,,,,,,,,,,,,,,,,,,,,,,,,,,,,,,,,,,,,,,,,,950.904873599764,950.904873599764,0.006762799806892872,0.09813860012218356,5.0,1.3602016000077128,,,,,,,,,,,,,673,Moral,2024-03-22_14h20.17.563,MoralCondition_v2,2022.2.5,29.994567987769116,
19,0,19,0,5,0,5,0,,,,,,,,,,,,,,,,,,,,,,,,,,,,,,,,,,,,,,,,,,,,,,,,,,,,952.3046594997868,952.3046594997868,0.007631099782884121,0.09822600008919835,5.0,0.9582295999862254,,,,,,,,,,,,,673,Moral,2024-03-22_14h20.17.563,MoralCondition_v2,2022.2.5,29.994567987769116,
19,0,19,0,6,0,6,0,,,,,,,,,,,,,,,,,,,,,,,,,,,,,,,,,,,,,,,,,,,,,,,,,,,,953.3046622998081,953.3046622998081,0.0067912000231444836,0.09913570014759898,2.0,1.0266166999936104,,,,,,,,,,,,,673,Moral,2024-03-22_14h20.17.563,MoralCondition_v2,2022.2.5,29.994567987769116,
19,0,19,0,,,,,,,,,,,,,,,,,,,,,,,,,,,,,,,,,,,,,,,,,,,,,,,,,,,,,,,,,,,,,,954.3715788000263,954.3715788000263,0.0012572999112308025,0.09811319969594479,6.0,5.731624600011855,,,,,,,673,Moral,2024-03-22_14h20.17.563,MoralCondition_v2,2022.2.5,29.994567987769116,
