loop.thisRepN,loop.thisTrialN,loop.thisN,loop.thisIndex,evaluate_all_emotions.thisRepN,evaluate_all_emotions.thisTrialN,evaluate_all_emotions.thisN,evaluate_all_emotions.thisIndex,sync_beep_1.started,p_port.started,p_port.stopped,sync_beep_1.stopped,sync_beep_2.started,sync_beep_2.stopped,sync_beep_3.started,sync_beep_3.stopped,sync_beep_4.started,sync_beep_4.stopped,baseline.started,p_port_2.started,p_port_2.stopped,baseline.stopped,p_port_3.started,Game_Start_Text.started,p_port_4.started,p_port_4.stopped,key_resp.started,key_resp.keys,key_resp.rt,fixation_cross.started,p_port_5.started,p_port_5.stopped,fixation_cross.stopped,p_port_6.started,player_image_intro.started,player_name_intro.started,p_port_7.started,p_port_7.stopped,p_port_8.started,player_image_offer.started,player_name_offer.started,proposed_split.started,p_port_9.started,p_port_9.stopped,proposed_split.stopped,accept_reject.started,p_port_15.started,p_port_15.stopped,accept_reject.stopped,p_port_10.started,arrow_instructions.started,offer_choice.started,p_port_11.started,p_port_11.stopped,offer_choice.keys,offer_choice.rt,Instructions_Affinity_Score.started,p_port_12.started,p_port_12.stopped,Instructions_Affinity_Score.stopped,Emotion_Image.started,AffinityScore.started,p_port_13.started,p_port_13.stopped,AffinityScore.response,AffinityScore.rt,Instruction.started,Moral_Disgust_Score.started,p_port_14.started,p_port_14.stopped,Moral_Disgust_Score.response,Moral_Disgust_Score.rt,p_port_6.stopped,player_image_intro.stopped,player_name_intro.stopped,player_image_offer.stopped,player_name_offer.stopped,p_port_8.stopped,p_port_10.stopped,participant,session,date,expName,psychopyVersion,frameRate,
,,,,,,,,11.117717780079692,0.0008012000471353531,0.10855069989338517,11.449409000109881,11.71603967002593,12.015853200107813,12.299680970003829,12.61608440009877,12.915991870081053,13.232602700125426,13.232602700125426,0.007495099678635597,0.10870399978011847,28.23261780012399,15.008644099812955,28.332794399932027,0.008851399645209312,0.10876709967851639,28.799309799913317,space,2.1514791999943554,,,,,,,,,,,,,,,,,,,,,,,,,,,,,,,,,,,,,,,,,,,,,,,,,,,674,Moral,2024-04-03_12h11.45.632,MoralCondition_v2,2022.2.5,30.004791763308273,
0,0,0,0,0,0,0,0,,,,,,,,,,,,,,,,,,,,,,31.016079099848866,0.0016615004278719425,0.09823740040883422,37.03264639992267,6.014868900179863,37.26572259981185,37.26572259981185,0.11939170025289059,0.24822690011933446,6.014907400123775,43.3327293000184,43.3327293000184,43.3327293000184,0.08931870013475418,0.21491739992052317,49.032603200059384,49.19946390017867,6.015108900144696,6.1149523998610675,55.19937950000167,12.01502550020814,55.31559950020164,55.31559950020164,0.014855499844998121,0.11471370002254844,down,0.9079451002180576,56.265908599831164,4.959991201758385e-05,0.097575300373137,62.29951119981706,62.29951119981706,62.29951119981706,0.018693000078201294,0.1310318000614643,1.0,8.13016889989376,,,,,,,,,,,,,,674,Moral,2024-04-03_12h11.45.632,MoralCondition_v2,2022.2.5,30.004791763308273,
0,0,0,0,1,0,1,0,,,,,,,,,,,,,,,,,,,,,,,,,,,,,,,,,,,,,,,,,,,,,,,,,,,,,70.44939879979938,70.44939879979938,0.008810100145637989,0.09928259998559952,6.0,4.191496699582785,,,,,,,,,,,,,,674,Moral,2024-04-03_12h11.45.632,MoralCondition_v2,2022.2.5,30.004791763308273,
0,0,0,0,2,0,2,0,,,,,,,,,,,,,,,,,,,,,,,,,,,,,,,,,,,,,,,,,,,,,,,,,,,,,74.6822780999355,74.6822780999355,0.00915120029821992,0.09919660026207566,2.0,3.291063299868256,,,,,,,,,,,,,,674,Moral,2024-04-03_12h11.45.632,MoralCondition_v2,2022.2.5,30.004791763308273,
0,0,0,0,3,0,3,0,,,,,,,,,,,,,,,,,,,,,,,,,,,,,,,,,,,,,,,,,,,,,,,,,,,,,78.03288580011576,78.03288580011576,0.009790100157260895,0.11584739992395043,6.0,2.140846900176257,,,,,,,,,,,,,,674,Moral,2024-04-03_12h11.45.632,MoralCondition_v2,2022.2.5,30.004791763308273,
0,0,0,0,4,0,4,0,,,,,,,,,,,,,,,,,,,,,,,,,,,,,,,,,,,,,,,,,,,,,,,,,,,,,80.21588010014966,80.21588010014966,0.009814299643039703,0.1150593999773264,5.0,2.7732480000704527,,,,,,,,,,,,,,674,Moral,2024-04-03_12h11.45.632,MoralCondition_v2,2022.2.5,30.004791763308273,
0,0,0,0,5,0,5,0,,,,,,,,,,,,,,,,,,,,,,,,,,,,,,,,,,,,,,,,,,,,,,,,,,,,,83.03244780004025,83.03244780004025,0.011920100077986717,0.11413990007713437,7.0,1.9699630001559854,,,,,,,,,,,,,,674,Moral,2024-04-03_12h11.45.632,MoralCondition_v2,2022.2.5,30.004791763308273,
0,0,0,0,6,0,6,0,,,,,,,,,,,,,,,,,,,,,,,,,,,,,,,,,,,,,,,,,,,,,,,,,,,,,85.03240780020133,85.03240780020133,0.00817849999293685,0.09909259993582964,5.0,1.9587070997804403,,,,,,,,,,,,,,674,Moral,2024-04-03_12h11.45.632,MoralCondition_v2,2022.2.5,30.004791763308273,
0,0,0,0,,,,,,,,,,,,,,,,,,,,,,,,,,,,,,,,,,,,,,,,,,,,,,,,,,,,,,,,,,,,,,,87.03240460017696,87.03240460017696,0.001626799814403057,0.0981997000053525,2.0,7.331229399889708,,,,,,,,674,Moral,2024-04-03_12h11.45.632,MoralCondition_v2,2022.2.5,30.004791763308273,
1,0,1,0,0,0,0,0,,,,,,,,,,,,,,,,,,,,,,94.39955940004438,0.00013560010120272636,0.09906490007415414,100.39917539991438,5.999214000068605,100.58266949979588,100.58266949979588,0.0788885997608304,0.1827117996290326,6.01573249977082,106.68239129986614,106.68239129986614,106.68239129986614,0.07659679977223277,0.18237089971080422,112.38250719988719,112.58261559996754,6.015881999861449,6.115777999628335,118.58250020025298,12.015752799808979,118.71581770014018,118.71581770014018,0.01597349951043725,0.1157266995869577,up,1.139497600030154,119.91586419986561,4.930002614855766e-05,0.09786010021343827,,125.93239950016141,125.93239950016141,0.02394569991156459,0.11424699984490871,1.0,5.2584114000201225,,,,,,,6.09891019994393,106.58249589987099,106.58249589987099,118.68257360020652,118.68257360020652,,,674,Moral,2024-04-03_12h11.45.632,MoralCondition_v2,2022.2.5,30.004791763308273,
1,0,1,0,1,0,1,0,,,,,,,,,,,,,,,,,,,,,,,,,,,,,,,,,,,,,,,,,,,,,,,,,,,,,131.2492325999774,131.2492325999774,0.008506800048053265,0.11411970015615225,6.0,2.174286199733615,,,,,,,,,,,,,,674,Moral,2024-04-03_12h11.45.632,MoralCondition_v2,2022.2.5,30.004791763308273,
1,0,1,0,2,0,2,0,,,,,,,,,,,,,,,,,,,,,,,,,,,,,,,,,,,,,,,,,,,,,,,,,,,,,133.4491337002255,133.4491337002255,0.0064514996483922005,0.09875250002369285,4.0,1.6601929999887943,,,,,,,,,,,,,,674,Moral,2024-04-03_12h11.45.632,MoralCondition_v2,2022.2.5,30.004791763308273,
1,0,1,0,3,0,3,0,,,,,,,,,,,,,,,,,,,,,,,,,,,,,,,,,,,,,,,,,,,,,,,,,,,,,135.14929670002311,135.14929670002311,0.007054000161588192,0.0974981002509594,5.0,2.4247993999160826,,,,,,,,,,,,,,674,Moral,2024-04-03_12h11.45.632,MoralCondition_v2,2022.2.5,30.004791763308273,
1,0,1,0,4,0,4,0,,,,,,,,,,,,,,,,,,,,,,,,,,,,,,,,,,,,,,,,,,,,,,,,,,,,,137.6157327000983,137.6157327000983,0.006231300067156553,0.09918939974159002,2.0,1.6274488000199199,,,,,,,,,,,,,,674,Moral,2024-04-03_12h11.45.632,MoralCondition_v2,2022.2.5,30.004791763308273,
1,0,1,0,5,0,5,0,,,,,,,,,,,,,,,,,,,,,,,,,,,,,,,,,,,,,,,,,,,,,,,,,,,,,139.2824475998059,139.2824475998059,0.007538700010627508,0.09827659977599978,1.0,1.7250093999318779,,,,,,,,,,,,,,674,Moral,2024-04-03_12h11.45.632,MoralCondition_v2,2022.2.5,30.004791763308273,
1,0,1,0,6,0,6,0,,,,,,,,,,,,,,,,,,,,,,,,,,,,,,,,,,,,,,,,,,,,,,,,,,,,,141.0659787999466,141.0659787999466,0.011204800102859735,0.11602840013802052,2.0,2.2060227999463677,,,,,,,,,,,,,,674,Moral,2024-04-03_12h11.45.632,MoralCondition_v2,2022.2.5,30.004791763308273,
1,0,1,0,,,,,,,,,,,,,,,,,,,,,,,,,,,,,,,,,,,,,,,,,,,,,,,,,,,,,,,,,,,,,,,143.29922940023243,143.29922940023243,0.0007242998108267784,0.09885700000450015,7.0,4.899402900133282,,,,,,,,674,Moral,2024-04-03_12h11.45.632,MoralCondition_v2,2022.2.5,30.004791763308273,
2,0,2,0,0,0,0,0,,,,,,,,,,,,,,,,,,,,,,148.23271179990843,0.00016249995678663254,0.09947320027276874,154.24920029984787,6.015967400278896,154.43244680017233,154.43244680017233,0.09370210021734238,0.19948770012706518,5.999234599992633,160.49918540008366,160.49918540008366,160.49918540008366,0.05797359999269247,0.1659387000836432,166.19904610002413,166.39886990003288,6.032394699752331,6.13253299985081,172.3992114001885,11.999394599813968,172.53238340001553,172.53238340001553,0.00024329964071512222,0.09917999990284443,up,0.7073915000073612,173.2992275999859,7.100030779838562e-05,0.09767960011959076,179.29925049981102,179.29925049981102,179.29925049981102,0.009055800270289183,0.0974006000906229,2.0,3.122789300046861,,,,,,,,160.49918540008366,160.49918540008366,172.49922849982977,172.49922849982977,6.099207499995828,12.099441399797797,674,Moral,2024-04-03_12h11.45.632,MoralCondition_v2,2022.2.5,30.004791763308273,
2,0,2,0,1,0,1,0,,,,,,,,,,,,,,,,,,,,,,,,,,,,,,,,,,,,,,,,,,,,,,,,,,,,,182.46584089985117,182.46584089985117,0.007952000014483929,0.09715900011360645,1.0,1.3236821996979415,,,,,,,,,,,,,,674,Moral,2024-04-03_12h11.45.632,MoralCondition_v2,2022.2.5,30.004791763308273,
2,0,2,0,2,0,2,0,,,,,,,,,,,,,,,,,,,,,,,,,,,,,,,,,,,,,,,,,,,,,,,,,,,,,183.8324230001308,183.8324230001308,0.006910600233823061,0.09812889993190765,2.0,1.5587668996304274,,,,,,,,,,,,,,674,Moral,2024-04-03_12h11.45.632,MoralCondition_v2,2022.2.5,30.004791763308273,
2,0,2,0,3,0,3,0,,,,,,,,,,,,,,,,,,,,,,,,,,,,,,,,,,,,,,,,,,,,,,,,,,,,,185.4324731999077,185.4324731999077,0.007402000017464161,0.0977831999771297,1.0,1.7915683002211154,,,,,,,,,,,,,,674,Moral,2024-04-03_12h11.45.632,MoralCondition_v2,2022.2.5,30.004791763308273,
2,0,2,0,4,0,4,0,,,,,,,,,,,,,,,,,,,,,,,,,,,,,,,,,,,,,,,,,,,,,,,,,,,,,187.26587020000443,187.26587020000443,0.0073726000264286995,0.09757980005815625,2.0,1.6910926001146436,,,,,,,,,,,,,,674,Moral,2024-04-03_12h11.45.632,MoralCondition_v2,2022.2.5,30.004791763308273,
2,0,2,0,5,0,5,0,,,,,,,,,,,,,,,,,,,,,,,,,,,,,,,,,,,,,,,,,,,,,,,,,,,,,188.99924769997597,188.99924769997597,0.007375400047749281,0.09784330008551478,4.0,2.3581307996064425,,,,,,,,,,,,,,674,Moral,2024-04-03_12h11.45.632,MoralCondition_v2,2022.2.5,30.004791763308273,
2,0,2,0,6,0,6,0,,,,,,,,,,,,,,,,,,,,,,,,,,,,,,,,,,,,,,,,,,,,,,,,,,,,,191.41588009987026,191.41588009987026,0.008750800043344498,0.11422260012477636,7.0,1.6066916999407113,,,,,,,,,,,,,,674,Moral,2024-04-03_12h11.45.632,MoralCondition_v2,2022.2.5,30.004791763308273,
2,0,2,0,,,,,,,,,,,,,,,,,,,,,,,,,,,,,,,,,,,,,,,,,,,,,,,,,,,,,,,,,,,,,,,193.04902980010957,193.04902980010957,0.0013247998431324959,0.0980460001155734,7.0,1.6978090000338852,,,,,,,,674,Moral,2024-04-03_12h11.45.632,MoralCondition_v2,2022.2.5,30.004791763308273,
3,0,3,0,0,0,0,0,,,,,,,,,,,,,,,,,,,,,,194.78245590021834,0.0003208001144230366,0.09775849990546703,200.7657131999731,6.014468899928033,200.94892930006608,200.94892930006608,0.05695539992302656,0.16457120003178716,6.0310526001267135,207.08256080001593,207.08256080001593,207.08256080001593,0.0935725998133421,0.19800629978999496,212.78258669981733,212.98228299990296,6.031053800135851,6.1311928001232445,218.98238530009985,12.03116749972105,219.11562060005963,219.11562060005963,0.031201399862766266,0.1310380999930203,up,0.8751699002459645,220.04872820014134,1.550000160932541e-05,0.09918020013719797,,226.08227350004017,226.08227350004017,0.02601819997653365,0.1325805000960827,5.0,2.9741273000836372,,,,,,,6.097557200118899,206.94897630019113,206.94897630019113,219.08227579994127,219.08227579994127,,,674,Moral,2024-04-03_12h11.45.632,MoralCondition_v2,2022.2.5,30.004791763308273,
3,0,3,0,1,0,1,0,,,,,,,,,,,,,,,,,,,,,,,,,,,,,,,,,,,,,,,,,,,,,,,,,,,,,229.09923460008577,229.09923460008577,0.008241900242865086,0.1140812998637557,2.0,2.673379300162196,,,,,,,,,,,,,,674,Moral,2024-04-03_12h11.45.632,MoralCondition_v2,2022.2.5,30.004791763308273,
3,0,3,0,2,0,2,0,,,,,,,,,,,,,,,,,,,,,,,,,,,,,,,,,,,,,,,,,,,,,,,,,,,,,231.79898920003325,231.79898920003325,0.006850899662822485,0.09928289987146854,1.0,1.2600920996628702,,,,,,,,,,,,,,674,Moral,2024-04-03_12h11.45.632,MoralCondition_v2,2022.2.5,30.004791763308273,
3,0,3,0,3,0,3,0,,,,,,,,,,,,,,,,,,,,,,,,,,,,,,,,,,,,,,,,,,,,,,,,,,,,,233.0988465999253,233.0988465999253,0.007500600069761276,0.09799010027199984,6.0,1.6578581002540886,,,,,,,,,,,,,,674,Moral,2024-04-03_12h11.45.632,MoralCondition_v2,2022.2.5,30.004791763308273,
3,0,3,0,4,0,4,0,,,,,,,,,,,,,,,,,,,,,,,,,,,,,,,,,,,,,,,,,,,,,,,,,,,,,234.79894929984584,234.79894929984584,0.006980199832469225,0.0990599999204278,5.0,1.2266159998252988,,,,,,,,,,,,,,674,Moral,2024-04-03_12h11.45.632,MoralCondition_v2,2022.2.5,30.004791763308273,
3,0,3,0,5,0,5,0,,,,,,,,,,,,,,,,,,,,,,,,,,,,,,,,,,,,,,,,,,,,,,,,,,,,,236.065749600064,236.065749600064,0.007521199993789196,0.09814970009028912,6.0,1.7247835998423398,,,,,,,,,,,,,,674,Moral,2024-04-03_12h11.45.632,MoralCondition_v2,2022.2.5,30.004791763308273,
3,0,3,0,6,0,6,0,,,,,,,,,,,,,,,,,,,,,,,,,,,,,,,,,,,,,,,,,,,,,,,,,,,,,237.8491409998387,237.8491409998387,0.008989099878817797,0.11398919997736812,7.0,1.8395553999580443,,,,,,,,,,,,,,674,Moral,2024-04-03_12h11.45.632,MoralCondition_v2,2022.2.5,30.004791763308273,
3,0,3,0,,,,,,,,,,,,,,,,,,,,,,,,,,,,,,,,,,,,,,,,,,,,,,,,,,,,,,,,,,,,,,,239.71573220007122,239.71573220007122,0.0007309997454285622,0.09917300008237362,3.0,4.766596000175923,,,,,,,,674,Moral,2024-04-03_12h11.45.632,MoralCondition_v2,2022.2.5,30.004791763308273,
4,0,4,0,0,0,0,0,,,,,,,,,,,,,,,,,,,,,,244.51574230007827,0.00026300037279725075,0.09783220011740923,250.51550240023062,6.03112590033561,250.71551490016282,250.71551490016282,0.08803769992664456,0.19803269999101758,6.031086199916899,256.8155251001008,256.8155251001008,256.8155251001008,0.09365559974685311,0.19782189978286624,262.51539850002155,262.7155078998767,6.031146300025284,6.131073799915612,268.71549700014293,12.031124100089073,268.84882399998605,268.84882399998605,0.03142010001465678,0.1310513997450471,up,0.8302854001522064,269.71550570009276,3.550015389919281e-05,0.09779160004109144,,275.7490762001835,275.7490762001835,0.025684399995952845,0.1313481000252068,5.0,1.8731566998176277,,,,,,,,256.71552210021764,256.71552210021764,268.8155072000809,268.8155072000809,,,674,Moral,2024-04-03_12h11.45.632,MoralCondition_v2,2022.2.5,30.004791763308273,
4,0,4,0,1,0,1,0,,,,,,,,,,,,,,,,,,,,,,,,,,,,,,,,,,,,,,,,,,,,,,,,,,,,,277.6488735000603,277.6488735000603,0.007461399771273136,0.09780959971249104,3.0,2.257976899854839,,,,,,,,,,,,,,674,Moral,2024-04-03_12h11.45.632,MoralCondition_v2,2022.2.5,30.004791763308273,
4,0,4,0,2,0,2,0,,,,,,,,,,,,,,,,,,,,,,,,,,,,,,,,,,,,,,,,,,,,,,,,,,,,,279.94883030001074,279.94883030001074,0.007845199666917324,0.09925779979676008,2.0,1.4256237000226974,,,,,,,,,,,,,,674,Moral,2024-04-03_12h11.45.632,MoralCondition_v2,2022.2.5,30.004791763308273,
4,0,4,0,3,0,3,0,,,,,,,,,,,,,,,,,,,,,,,,,,,,,,,,,,,,,,,,,,,,,,,,,,,,,281.4156121001579,281.4156121001579,0.007579199969768524,0.09783610003069043,7.0,1.8914696001447737,,,,,,,,,,,,,,674,Moral,2024-04-03_12h11.45.632,MoralCondition_v2,2022.2.5,30.004791763308273,
4,0,4,0,4,0,4,0,,,,,,,,,,,,,,,,,,,,,,,,,,,,,,,,,,,,,,,,,,,,,,,,,,,,,283.36566219991073,283.36566219991073,0.007898099720478058,0.11431399965658784,1.0,2.1407534000463784,,,,,,,,,,,,,,674,Moral,2024-04-03_12h11.45.632,MoralCondition_v2,2022.2.5,30.004791763308273,
4,0,4,0,5,0,5,0,,,,,,,,,,,,,,,,,,,,,,,,,,,,,,,,,,,,,,,,,,,,,,,,,,,,,285.53203410003334,285.53203410003334,0.007326999679207802,0.09811639972031116,1.0,2.191723699681461,,,,,,,,,,,,,,674,Moral,2024-04-03_12h11.45.632,MoralCondition_v2,2022.2.5,30.004791763308273,
4,0,4,0,6,0,6,0,,,,,,,,,,,,,,,,,,,,,,,,,,,,,,,,,,,,,,,,,,,,,,,,,,,,,287.7822984000668,287.7822984000668,0.007622300181537867,0.11425830004736781,1.0,1.3074332997202873,,,,,,,,,,,,,,674,Moral,2024-04-03_12h11.45.632,MoralCondition_v2,2022.2.5,30.004791763308273,
4,0,4,0,,,,,,,,,,,,,,,,,,,,,,,,,,,,,,,,,,,,,,,,,,,,,,,,,,,,,,,,,,,,,,,289.1155928000808,289.1155928000808,0.001345600001513958,0.0977742001414299,7.0,5.330922800116241,,,,,,,,674,Moral,2024-04-03_12h11.45.632,MoralCondition_v2,2022.2.5,30.004791763308273,
5,0,5,0,0,0,0,0,,,,,,,,,,,,,,,,,,,,,,294.4822991997935,0.0002728002145886421,0.09726690035313368,300.4988683001138,6.014072700403631,300.682222600095,300.682222600095,0.0931080998852849,0.19768820004537702,6.030729399994016,306.78228170005605,306.78228170005605,306.78228170005605,0.09268839983269572,0.19741170015186071,312.48215560009703,312.68215830018744,6.0309163997881114,6.130843800026923,318.6820542002097,12.030797000043094,318.79852449987084,318.79852449987084,0.030696199741214514,0.11399429989978671,up,0.6329951002262533,319.46532780025154,5.059968680143356e-05,0.09774479968473315,325.4823340000585,325.4823340000585,325.4823340000585,0.009182899724692106,0.11455990001559258,2.0,5.439568900037557,,,,,,,,306.6822556001134,306.6822556001134,318.78191679995507,318.78191679995507,,,674,Moral,2024-04-03_12h11.45.632,MoralCondition_v2,2022.2.5,30.004791763308273,
5,0,5,0,1,0,1,0,,,,,,,,,,,,,,,,,,,,,,,,,,,,,,,,,,,,,,,,,,,,,,,,,,,,,330.9652610998601,330.9652610998601,0.00795739982277155,0.1143550998531282,2.0,1.6074260999448597,,,,,,,,,,,,,,674,Moral,2024-04-03_12h11.45.632,MoralCondition_v2,2022.2.5,30.004791763308273,
5,0,5,0,2,0,2,0,,,,,,,,,,,,,,,,,,,,,,,,,,,,,,,,,,,,,,,,,,,,,,,,,,,,,332.59865200007334,332.59865200007334,0.006785099860280752,0.09901250014081597,2.0,1.3934345999732614,,,,,,,,,,,,,,674,Moral,2024-04-03_12h11.45.632,MoralCondition_v2,2022.2.5,30.004791763308273,
5,0,5,0,3,0,3,0,,,,,,,,,,,,,,,,,,,,,,,,,,,,,,,,,,,,,,,,,,,,,,,,,,,,,334.0320128998719,334.0320128998719,0.007077400106936693,0.09799739997833967,2.0,1.6587105998769403,,,,,,,,,,,,,,674,Moral,2024-04-03_12h11.45.632,MoralCondition_v2,2022.2.5,30.004791763308273,
5,0,5,0,4,0,4,0,,,,,,,,,,,,,,,,,,,,,,,,,,,,,,,,,,,,,,,,,,,,,,,,,,,,,335.731934200041,335.731934200041,0.006553699728101492,0.09919369965791702,6.0,1.7270235996693373,,,,,,,,,,,,,,674,Moral,2024-04-03_12h11.45.632,MoralCondition_v2,2022.2.5,30.004791763308273,
5,0,5,0,5,0,5,0,,,,,,,,,,,,,,,,,,,,,,,,,,,,,,,,,,,,,,,,,,,,,,,,,,,,,337.498622499872,337.498622499872,0.007636900059878826,0.09788700006902218,3.0,2.49138560006395,,,,,,,,,,,,,,674,Moral,2024-04-03_12h11.45.632,MoralCondition_v2,2022.2.5,30.004791763308273,
5,0,5,0,6,0,6,0,,,,,,,,,,,,,,,,,,,,,,,,,,,,,,,,,,,,,,,,,,,,,,,,,,,,,340.0318626998924,340.0318626998924,0.0064097000285983086,0.09960860013961792,5.0,1.4938711998984218,,,,,,,,,,,,,,674,Moral,2024-04-03_12h11.45.632,MoralCondition_v2,2022.2.5,30.004791763308273,
5,0,5,0,,,,,,,,,,,,,,,,,,,,,,,,,,,,,,,,,,,,,,,,,,,,,,,,,,,,,,,,,,,,,,,341.5652716001496,341.5652716001496,0.0007071001455187798,0.09922520024701953,6.0,2.000082400161773,,,,,,,,674,Moral,2024-04-03_12h11.45.632,MoralCondition_v2,2022.2.5,30.004791763308273,
6,0,6,0,0,0,0,0,,,,,,,,,,,,,,,,,,,,,,343.59862670022994,0.0003884001635015011,0.09722740016877651,349.598584999796,6.0305940001271665,349.8152812998742,349.8152812998742,0.10347749991342425,0.21396359987556934,6.013868399895728,355.882031599991,355.882031599991,355.882031599991,0.07238079980015755,0.18059720005840063,361.58213149989024,361.781859499868,6.013875099830329,6.113878400065005,367.78200609982014,12.014047400094569,367.9151710998267,367.9151710998267,0.013909100089222193,0.11385919991880655,up,1.5481968997046351,369.51519609987736,4.2700208723545074e-05,0.09778530010953546,375.5320668001659,375.5320668001659,375.5320668001659,0.00956990011036396,0.11442459980025887,5.0,4.0392877999693155,,,,,,,,,,367.8650774001144,367.8650774001144,,,674,Moral,2024-04-03_12h11.45.632,MoralCondition_v2,2022.2.5,30.004791763308273,
6,0,6,0,1,0,1,0,,,,,,,,,,,,,,,,,,,,,,,,,,,,,,,,,,,,,,,,,,,,,,,,,,,,,379.59849080024287,379.59849080024287,0.007010799832642078,0.09734730003401637,1.0,3.757869299966842,,,,,,,,,,,,,,674,Moral,2024-04-03_12h11.45.632,MoralCondition_v2,2022.2.5,30.004791763308273,
6,0,6,0,2,0,2,0,,,,,,,,,,,,,,,,,,,,,,,,,,,,,,,,,,,,,,,,,,,,,,,,,,,,,383.39838379994035,383.39838379994035,0.005352099891752005,0.09909240016713738,7.0,2.011548699811101,,,,,,,,,,,,,,674,Moral,2024-04-03_12h11.45.632,MoralCondition_v2,2022.2.5,30.004791763308273,
6,0,6,0,3,0,3,0,,,,,,,,,,,,,,,,,,,,,,,,,,,,,,,,,,,,,,,,,,,,,,,,,,,,,385.4484970001504,385.4484970001504,0.00730480020865798,0.09776300005614758,3.0,1.6249623000621796,,,,,,,,,,,,,,674,Moral,2024-04-03_12h11.45.632,MoralCondition_v2,2022.2.5,30.004791763308273,
6,0,6,0,4,0,4,0,,,,,,,,,,,,,,,,,,,,,,,,,,,,,,,,,,,,,,,,,,,,,,,,,,,,,387.1152536999434,387.1152536999434,0.007260799873620272,0.09794129990041256,7.0,1.3254518997855484,,,,,,,,,,,,,,674,Moral,2024-04-03_12h11.45.632,MoralCondition_v2,2022.2.5,30.004791763308273,
6,0,6,0,5,0,5,0,,,,,,,,,,,,,,,,,,,,,,,,,,,,,,,,,,,,,,,,,,,,,,,,,,,,,388.49842770025134,388.49842770025134,0.009187200106680393,0.1144775003194809,5.0,2.639558000024408,,,,,,,,,,,,,,674,Moral,2024-04-03_12h11.45.632,MoralCondition_v2,2022.2.5,30.004791763308273,
6,0,6,0,6,0,6,0,,,,,,,,,,,,,,,,,,,,,,,,,,,,,,,,,,,,,,,,,,,,,,,,,,,,,391.1819422999397,391.1819422999397,0.00864560017362237,0.11448749992996454,2.0,1.773481999989599,,,,,,,,,,,,,,674,Moral,2024-04-03_12h11.45.632,MoralCondition_v2,2022.2.5,30.004791763308273,
6,0,6,0,,,,,,,,,,,,,,,,,,,,,,,,,,,,,,,,,,,,,,,,,,,,,,,,,,,,,,,,,,,,,,,392.98186489986256,392.98186489986256,0.0006999997422099113,0.09908840013667941,1.0,2.499557400122285,,,,,,,,674,Moral,2024-04-03_12h11.45.632,MoralCondition_v2,2022.2.5,30.004791763308273,
7,0,7,0,0,0,0,0,,,,,,,,,,,,,,,,,,,,,,395.51537259994075,0.00023650005459785461,0.09788439981639385,401.5151836001314,6.031309999991208,401.71503050019965,401.71503050019965,0.09212619997560978,0.19778589997440577,6.03112329961732,407.7983925999142,407.7983925999142,407.7983925999142,0.07136889966204762,0.18134079966694117,413.49856580002233,413.6983962999657,6.0145780998282135,6.114549899939448,419.6983346999623,12.014460999518633,419.8316735001281,419.8316735001281,0.014560999814420938,0.11430469946935773,up,0.7350725000724196,420.6317056999542,8.330028504133224e-05,0.09751249989494681,426.6487072999589,426.6487072999589,426.6487072999589,0.009200700093060732,0.11421100003644824,2.0,2.239331000018865,,,,,,,,407.6982553000562,407.6982553000562,419.79830250004306,419.79830250004306,,,674,Moral,2024-04-03_12h11.45.632,MoralCondition_v2,2022.2.5,30.004791763308273,
7,0,7,0,1,0,1,0,,,,,,,,,,,,,,,,,,,,,,,,,,,,,,,,,,,,,,,,,,,,,,,,,,,,,428.9149388000369,428.9149388000369,0.007703300099819899,0.09768979996442795,1.0,1.3909284002147615,,,,,,,,,,,,,,674,Moral,2024-04-03_12h11.45.632,MoralCondition_v2,2022.2.5,30.004791763308273,
7,0,7,0,2,0,2,0,,,,,,,,,,,,,,,,,,,,,,,,,,,,,,,,,,,,,,,,,,,,,,,,,,,,,430.36527349986136,430.36527349986136,0.008355500176548958,0.11435260018333793,2.0,1.3403209000825882,,,,,,,,,,,,,,674,Moral,2024-04-03_12h11.45.632,MoralCondition_v2,2022.2.5,30.004791763308273,
7,0,7,0,3,0,3,0,,,,,,,,,,,,,,,,,,,,,,,,,,,,,,,,,,,,,,,,,,,,,,,,,,,,,431.73158220015466,431.73158220015466,0.008425199892371893,0.09788310015574098,1.0,1.4902822999283671,,,,,,,,,,,,,,674,Moral,2024-04-03_12h11.45.632,MoralCondition_v2,2022.2.5,30.004791763308273,
7,0,7,0,4,0,4,0,,,,,,,,,,,,,,,,,,,,,,,,,,,,,,,,,,,,,,,,,,,,,,,,,,,,,433.2649778998457,433.2649778998457,0.008063099812716246,0.09750479971989989,7.0,1.5904712001793087,,,,,,,,,,,,,,674,Moral,2024-04-03_12h11.45.632,MoralCondition_v2,2022.2.5,30.004791763308273,
7,0,7,0,5,0,5,0,,,,,,,,,,,,,,,,,,,,,,,,,,,,,,,,,,,,,,,,,,,,,,,,,,,,,434.91523959999904,434.91523959999904,0.00814589997753501,0.11440610000863671,6.0,2.7741169999353588,,,,,,,,,,,,,,674,Moral,2024-04-03_12h11.45.632,MoralCondition_v2,2022.2.5,30.004791763308273,
7,0,7,0,6,0,6,0,,,,,,,,,,,,,,,,,,,,,,,,,,,,,,,,,,,,,,,,,,,,,,,,,,,,,437.7150294999592,437.7150294999592,0.006931999698281288,0.09905879991129041,2.0,2.226641200017184,,,,,,,,,,,,,,674,Moral,2024-04-03_12h11.45.632,MoralCondition_v2,2022.2.5,30.004791763308273,
7,0,7,0,,,,,,,,,,,,,,,,,,,,,,,,,,,,,,,,,,,,,,,,,,,,,,,,,,,,,,,,,,,,,,,439.98170100012794,439.98170100012794,0.0013775001280009747,0.09752380009740591,6.0,2.1310573001392186,,,,,,,,674,Moral,2024-04-03_12h11.45.632,MoralCondition_v2,2022.2.5,30.004791763308273,
8,0,8,0,0,0,0,0,,,,,,,,,,,,,,,,,,,,,,442.14847639994696,0.000134399626404047,0.09900949988514185,448.16499640000984,6.0156429996714,448.331684099976,448.331684099976,0.07848169980570674,0.18254189984872937,6.015569499693811,454.43147689988837,454.43147689988837,454.43147689988837,0.08373329974710941,0.18244699947535992,460.1314973998815,460.33154129981995,6.015640199650079,6.115568099543452,466.33149729995057,12.015602399595082,466.46484979987144,466.46484979987144,0.01574599975720048,0.11556159937754273,up,1.070618400350213,467.58150470023975,4.540011286735535e-05,0.09752590022981167,,473.6148076001555,473.6148076001555,0.027345300186425447,0.13097039982676506,5.0,2.537789599969983,,,,,,,,454.3315371000208,454.3315371000208,466.4314774000086,466.4314774000086,,,674,Moral,2024-04-03_12h11.45.632,MoralCondition_v2,2022.2.5,30.004791763308273,
8,0,8,0,1,0,1,0,,,,,,,,,,,,,,,,,,,,,,,,,,,,,,,,,,,,,,,,,,,,,,,,,,,,,476.19828160014004,476.19828160014004,0.007981000002473593,0.11417419975623488,3.0,1.5074217999354005,,,,,,,,,,,,,,674,Moral,2024-04-03_12h11.45.632,MoralCondition_v2,2022.2.5,30.004791763308273,
8,0,8,0,2,0,2,0,,,,,,,,,,,,,,,,,,,,,,,,,,,,,,,,,,,,,,,,,,,,,,,,,,,,,477.731501000002,477.731501000002,0.007427900098264217,0.09802580019459128,6.0,2.658537100069225,,,,,,,,,,,,,,674,Moral,2024-04-03_12h11.45.632,MoralCondition_v2,2022.2.5,30.004791763308273,
8,0,8,0,3,0,3,0,,,,,,,,,,,,,,,,,,,,,,,,,,,,,,,,,,,,,,,,,,,,,,,,,,,,,480.431357299909,480.431357299909,0.008966899942606688,0.09755189996212721,2.0,1.889478400349617,,,,,,,,,,,,,,674,Moral,2024-04-03_12h11.45.632,MoralCondition_v2,2022.2.5,30.004791763308273,
8,0,8,0,4,0,4,0,,,,,,,,,,,,,,,,,,,,,,,,,,,,,,,,,,,,,,,,,,,,,,,,,,,,,482.3648275001906,482.3648275001906,0.007710000034421682,0.09779520006850362,6.0,3.0911202002316713,,,,,,,,,,,,,,674,Moral,2024-04-03_12h11.45.632,MoralCondition_v2,2022.2.5,30.004791763308273,
8,0,8,0,5,0,5,0,,,,,,,,,,,,,,,,,,,,,,,,,,,,,,,,,,,,,,,,,,,,,,,,,,,,,485.4980239998549,485.4980239998549,0.007620200049132109,0.09767179982736707,6.0,1.79204719979316,,,,,,,,,,,,,,674,Moral,2024-04-03_12h11.45.632,MoralCondition_v2,2022.2.5,30.004791763308273,
8,0,8,0,6,0,6,0,,,,,,,,,,,,,,,,,,,,,,,,,,,,,,,,,,,,,,,,,,,,,,,,,,,,,487.33144700014964,487.33144700014964,0.007078600116074085,0.09817680018022656,1.0,2.2920134998857975,,,,,,,,,,,,,,674,Moral,2024-04-03_12h11.45.632,MoralCondition_v2,2022.2.5,30.004791763308273,
8,0,8,0,,,,,,,,,,,,,,,,,,,,,,,,,,,,,,,,,,,,,,,,,,,,,,,,,,,,,,,,,,,,,,,489.6648328998126,489.6648328998126,0.0017009000293910503,0.09759370004758239,3.0,2.597128000110388,,,,,,,,674,Moral,2024-04-03_12h11.45.632,MoralCondition_v2,2022.2.5,30.004791763308273,
9,0,9,0,0,0,0,0,,,,,,,,,,,,,,,,,,,,,,492.2984217000194,0.00028430018573999405,0.09790199995040894,498.29800840001553,6.031111900229007,498.4980492000468,498.4980492000468,0.091956099960953,0.19799700006842613,6.031070400029421,504.59798680013046,504.59798680013046,504.59798680013046,0.09515429986640811,0.1979101998731494,510.2979605002329,510.49834989989176,6.031504299957305,6.131027599796653,516.4979900000617,12.031094199977815,516.6313041001558,516.6313041001558,0.031190499663352966,0.13101499993354082,up,0.6398173999041319,517.3147161002271,2.1700281649827957e-05,0.09911400033161044,,523.3482278999873,523.3482278999873,0.02689150022342801,0.13252170011401176,2.0,2.5732754999771714,,,,,,,,504.49805840011686,504.49805840011686,516.5979311000556,516.5979311000556,,,674,Moral,2024-04-03_12h11.45.632,MoralCondition_v2,2022.2.5,30.004791763308273,
9,0,9,0,1,0,1,0,,,,,,,,,,,,,,,,,,,,,,,,,,,,,,,,,,,,,,,,,,,,,,,,,,,,,525.9480192000046,525.9480192000046,0.006639800034463406,0.09897120017558336,6.0,1.7598649999126792,,,,,,,,,,,,,,674,Moral,2024-04-03_12h11.45.632,MoralCondition_v2,2022.2.5,30.004791763308273,
9,0,9,0,2,0,2,0,,,,,,,,,,,,,,,,,,,,,,,,,,,,,,,,,,,,,,,,,,,,,,,,,,,,,527.7480092998594,527.7480092998594,0.006463299971073866,0.09914509998634458,2.0,2.3936975998803973,,,,,,,,,,,,,,674,Moral,2024-04-03_12h11.45.632,MoralCondition_v2,2022.2.5,30.004791763308273,
9,0,9,0,3,0,3,0,,,,,,,,,,,,,,,,,,,,,,,,,,,,,,,,,,,,,,,,,,,,,,,,,,,,,530.1813604999334,530.1813604999334,0.007435400038957596,0.09778410010039806,3.0,2.658047500066459,,,,,,,,,,,,,,674,Moral,2024-04-03_12h11.45.632,MoralCondition_v2,2022.2.5,30.004791763308273,
9,0,9,0,4,0,4,0,,,,,,,,,,,,,,,,,,,,,,,,,,,,,,,,,,,,,,,,,,,,,,,,,,,,,532.8980010999367,532.8980010999367,0.007861600257456303,0.11458999989554286,5.0,1.6075851996429265,,,,,,,,,,,,,,674,Moral,2024-04-03_12h11.45.632,MoralCondition_v2,2022.2.5,30.004791763308273,
9,0,9,0,5,0,5,0,,,,,,,,,,,,,,,,,,,,,,,,,,,,,,,,,,,,,,,,,,,,,,,,,,,,,534.5479427999817,534.5479427999817,0.007731799967586994,0.11418290017172694,2.0,2.907778900116682,,,,,,,,,,,,,,674,Moral,2024-04-03_12h11.45.632,MoralCondition_v2,2022.2.5,30.004791763308273,
9,0,9,0,6,0,6,0,,,,,,,,,,,,,,,,,,,,,,,,,,,,,,,,,,,,,,,,,,,,,,,,,,,,,537.481163599994,537.481163599994,0.006002199836075306,0.09909409983083606,1.0,1.4608599999919534,,,,,,,,,,,,,,674,Moral,2024-04-03_12h11.45.632,MoralCondition_v2,2022.2.5,30.004791763308273,
9,0,9,0,,,,,,,,,,,,,,,,,,,,,,,,,,,,,,,,,,,,,,,,,,,,,,,,,,,,,,,,,,,,,,,538.9812570000067,538.9812570000067,0.001183799933642149,0.09783540014177561,6.0,2.064746600110084,,,,,,,,674,Moral,2024-04-03_12h11.45.632,MoralCondition_v2,2022.2.5,30.004791763308273,
10,0,10,0,0,0,0,0,,,,,,,,,,,,,,,,,,,,,,541.0815730001777,0.00026560015976428986,0.09783200034871697,547.0978065999225,6.014382500201464,547.2644074000418,547.2644074000418,0.06981820007786155,0.18131750030443072,6.014419000130147,553.3644367000088,553.3644367000088,553.3644367000088,0.07398140011355281,0.1813129000365734,559.0644616000354,559.2645844002254,6.014564999844879,6.114338499959558,565.2644533999264,12.014416200108826,565.3977506998926,565.3977506998926,0.014518499840050936,0.11437389999628067,up,0.6413686000742018,566.0810589999892,4.579965025186539e-05,0.09797449968755245,572.0977202001959,572.0977202001959,572.0977202001959,0.009579099714756012,0.11461919965222478,6.0,2.9392578001134098,,,,,,,,553.2644631001167,553.2644631001167,565.364410399925,565.364410399925,,,674,Moral,2024-04-03_12h11.45.632,MoralCondition_v2,2022.2.5,30.004791763308273,
10,0,10,0,1,0,1,0,,,,,,,,,,,,,,,,,,,,,,,,,,,,,,,,,,,,,,,,,,,,,,,,,,,,,575.0644952999428,575.0644952999428,0.007474800106137991,0.09788959985598922,5.0,2.024629400111735,,,,,,,,,,,,,,674,Moral,2024-04-03_12h11.45.632,MoralCondition_v2,2022.2.5,30.004791763308273,
10,0,10,0,2,0,2,0,,,,,,,,,,,,,,,,,,,,,,,,,,,,,,,,,,,,,,,,,,,,,,,,,,,,,577.1477894000709,577.1477894000709,0.008254799991846085,0.11443080008029938,2.0,2.2404549000784755,,,,,,,,,,,,,,674,Moral,2024-04-03_12h11.45.632,MoralCondition_v2,2022.2.5,30.004791763308273,
10,0,10,0,3,0,3,0,,,,,,,,,,,,,,,,,,,,,,,,,,,,,,,,,,,,,,,,,,,,,,,,,,,,,579.4309975001961,579.4309975001961,0.008371800184249878,0.11414049984887242,2.0,2.0733733996748924,,,,,,,,,,,,,,674,Moral,2024-04-03_12h11.45.632,MoralCondition_v2,2022.2.5,30.004791763308273,
10,0,10,0,4,0,4,0,,,,,,,,,,,,,,,,,,,,,,,,,,,,,,,,,,,,,,,,,,,,,,,,,,,,,581.530943499878,581.530943499878,0.006808899808675051,0.0992397996596992,6.0,1.560125700198114,,,,,,,,,,,,,,674,Moral,2024-04-03_12h11.45.632,MoralCondition_v2,2022.2.5,30.004791763308273,
10,0,10,0,5,0,5,0,,,,,,,,,,,,,,,,,,,,,,,,,,,,,,,,,,,,,,,,,,,,,,,,,,,,,583.1310709002428,583.1310709002428,0.007054599933326244,0.09817830007523298,5.0,1.3589558997191489,,,,,,,,,,,,,,674,Moral,2024-04-03_12h11.45.632,MoralCondition_v2,2022.2.5,30.004791763308273,
10,0,10,0,6,0,6,0,,,,,,,,,,,,,,,,,,,,,,,,,,,,,,,,,,,,,,,,,,,,,,,,,,,,,584.5309843998402,584.5309843998402,0.0064187003299593925,0.09932650020346045,3.0,2.727046800311655,,,,,,,,,,,,,,674,Moral,2024-04-03_12h11.45.632,MoralCondition_v2,2022.2.5,30.004791763308273,
10,0,10,0,,,,,,,,,,,,,,,,,,,,,,,,,,,,,,,,,,,,,,,,,,,,,,,,,,,,,,,,,,,,,,,587.2976259998977,587.2976259998977,0.0020320997573435307,0.09749269997701049,3.0,2.3634914997965097,,,,,,,,674,Moral,2024-04-03_12h11.45.632,MoralCondition_v2,2022.2.5,30.004791763308273,
11,0,11,0,0,0,0,0,,,,,,,,,,,,,,,,,,,,,,589.6979678999633,0.00013609975576400757,0.09914549998939037,595.697723200079,5.99912799987942,595.8642624998465,595.8642624998465,0.06352989980950952,0.16603439999744296,5.9991084998473525,601.9642719998956,601.9642719998956,601.9642719998956,0.06509939953684807,0.16603479953482747,607.6642896002159,607.8642497002147,5.999156799633056,6.099106299690902,613.8642369001172,11.999120599590242,613.9975860998966,613.9975860998966,-0.00010320032015442848,0.09905569953843951,up,0.9850123999640346,615.0476446999237,4.959991201758385e-05,0.09791729971766472,621.0641373000108,621.0641373000108,621.0641373000108,0.00882259989157319,0.1145266997627914,6.0,2.339922800194472,,,,,,,6.099115699995309,601.8642708999105,601.8642708999105,613.9641907000914,613.9641907000914,6.099178100004792,12.099101399537176,674,Moral,2024-04-03_12h11.45.632,MoralCondition_v2,2022.2.5,30.004791763308273,
11,0,11,0,1,0,1,0,,,,,,,,,,,,,,,,,,,,,,,,,,,,,,,,,,,,,,,,,,,,,,,,,,,,,623.4307205001824,623.4307205001824,0.007129200268536806,0.09736230038106441,3.0,1.491490500047803,,,,,,,,,,,,,,674,Moral,2024-04-03_12h11.45.632,MoralCondition_v2,2022.2.5,30.004791763308273,
11,0,11,0,2,0,2,0,,,,,,,,,,,,,,,,,,,,,,,,,,,,,,,,,,,,,,,,,,,,,,,,,,,,,624.9809920000844,624.9809920000844,0.008938100188970566,0.11464120028540492,5.0,2.239719399716705,,,,,,,,,,,,,,674,Moral,2024-04-03_12h11.45.632,MoralCondition_v2,2022.2.5,30.004791763308273,
11,0,11,0,3,0,3,0,,,,,,,,,,,,,,,,,,,,,,,,,,,,,,,,,,,,,,,,,,,,,,,,,,,,,627.2473337999545,627.2473337999545,0.006333500146865845,0.09857119992375374,7.0,1.5598631999455392,,,,,,,,,,,,,,674,Moral,2024-04-03_12h11.45.632,MoralCondition_v2,2022.2.5,30.004791763308273,
11,0,11,0,4,0,4,0,,,,,,,,,,,,,,,,,,,,,,,,,,,,,,,,,,,,,,,,,,,,,,,,,,,,,628.84752940014,628.84752940014,0.006502099800854921,0.09906669985502958,2.0,2.727183800190687,,,,,,,,,,,,,,674,Moral,2024-04-03_12h11.45.632,MoralCondition_v2,2022.2.5,30.004791763308273,
11,0,11,0,5,0,5,0,,,,,,,,,,,,,,,,,,,,,,,,,,,,,,,,,,,,,,,,,,,,,,,,,,,,,631.6144087999128,631.6144087999128,0.007290299981832504,0.09819469973444939,5.0,1.7250801003538072,,,,,,,,,,,,,,674,Moral,2024-04-03_12h11.45.632,MoralCondition_v2,2022.2.5,30.004791763308273,
11,0,11,0,6,0,6,0,,,,,,,,,,,,,,,,,,,,,,,,,,,,,,,,,,,,,,,,,,,,,,,,,,,,,633.3808478000574,633.3808478000574,0.007525099907070398,0.09771229978650808,1.0,1.4245686000213027,,,,,,,,,,,,,,674,Moral,2024-04-03_12h11.45.632,MoralCondition_v2,2022.2.5,30.004791763308273,
11,0,11,0,,,,,,,,,,,,,,,,,,,,,,,,,,,,,,,,,,,,,,,,,,,,,,,,,,,,,,,,,,,,,,,634.8476617000997,634.8476617000997,0.0007123998366296291,0.0991138000972569,2.0,3.099742299877107,,,,,,,,674,Moral,2024-04-03_12h11.45.632,MoralCondition_v2,2022.2.5,30.004791763308273,
12,0,12,0,0,0,0,0,,,,,,,,,,,,,,,,,,,,,,637.9810905000195,0.00026609981432557106,0.09803369967266917,643.9974310998805,6.01467699976638,644.1640937998891,644.1640937998891,0.0683832997456193,0.18158739991486073,6.0146208996884525,650.2641520001926,650.2641520001926,650.2641520001926,0.07075939979404211,0.1816136995330453,655.9642691998743,656.1643600999378,6.0150409997440875,6.1147377993911505,662.1642098999582,12.01482589961961,662.2973623001017,662.2973623001017,0.014810599386692047,0.11470179958269,up,1.3175845998339355,663.6807146002539,8.119968697428703e-05,0.09807499963790178,669.6976665002294,669.6976665002294,669.6976665002294,0.009025999810546637,0.11481789965182543,2.0,3.1399838998913765,,,,,,,,650.1642915001139,650.1642915001139,662.2641631001607,662.2641631001607,,,674,Moral,2024-04-03_12h11.45.632,MoralCondition_v2,2022.2.5,30.004791763308273,
12,0,12,0,1,0,1,0,,,,,,,,,,,,,,,,,,,,,,,,,,,,,,,,,,,,,,,,,,,,,,,,,,,,,672.8638773998246,672.8638773998246,0.007548099849373102,0.09820130001753569,4.0,3.3911910001188517,,,,,,,,,,,,,,674,Moral,2024-04-03_12h11.45.632,MoralCondition_v2,2022.2.5,30.004791763308273,
12,0,12,0,2,0,2,0,,,,,,,,,,,,,,,,,,,,,,,,,,,,,,,,,,,,,,,,,,,,,,,,,,,,,676.2972742998973,676.2972742998973,0.00740189990028739,0.0977254998870194,2.0,2.2248666998930275,,,,,,,,,,,,,,674,Moral,2024-04-03_12h11.45.632,MoralCondition_v2,2022.2.5,30.004791763308273,
12,0,12,0,3,0,3,0,,,,,,,,,,,,,,,,,,,,,,,,,,,,,,,,,,,,,,,,,,,,,,,,,,,,,678.5639193002135,678.5639193002135,0.00799610000103712,0.09807899966835976,2.0,2.9580316999927163,,,,,,,,,,,,,,674,Moral,2024-04-03_12h11.45.632,MoralCondition_v2,2022.2.5,30.004791763308273,
12,0,12,0,4,0,4,0,,,,,,,,,,,,,,,,,,,,,,,,,,,,,,,,,,,,,,,,,,,,,,,,,,,,,681.5639713997953,681.5639713997953,0.007092600222676992,0.09816560009494424,6.0,1.7253029998391867,,,,,,,,,,,,,,674,Moral,2024-04-03_12h11.45.632,MoralCondition_v2,2022.2.5,30.004791763308273,
12,0,12,0,5,0,5,0,,,,,,,,,,,,,,,,,,,,,,,,,,,,,,,,,,,,,,,,,,,,,,,,,,,,,683.3305966001935,683.3305966001935,0.007423699833452702,0.09807740012183785,2.0,1.9247993999160826,,,,,,,,,,,,,,674,Moral,2024-04-03_12h11.45.632,MoralCondition_v2,2022.2.5,30.004791763308273,
12,0,12,0,6,0,6,0,,,,,,,,,,,,,,,,,,,,,,,,,,,,,,,,,,,,,,,,,,,,,,,,,,,,,685.2971740998328,685.2971740998328,0.007084699813276529,0.0978787001222372,3.0,2.325496300123632,,,,,,,,,,,,,,674,Moral,2024-04-03_12h11.45.632,MoralCondition_v2,2022.2.5,30.004791763308273,
12,0,12,0,,,,,,,,,,,,,,,,,,,,,,,,,,,,,,,,,,,,,,,,,,,,,,,,,,,,,,,,,,,,,,,687.6640515998006,687.6640515998006,0.0007234001532196999,0.09906850010156631,5.0,2.9663892001844943,,,,,,,,674,Moral,2024-04-03_12h11.45.632,MoralCondition_v2,2022.2.5,30.004791763308273,
13,0,13,0,0,0,0,0,,,,,,,,,,,,,,,,,,,,,,690.6643338999711,0.0001351996324956417,0.09902309998869896,696.6806612000801,6.015864399727434,696.8472279999405,696.8472279999405,0.08057299954816699,0.18250799970701337,6.015623499639332,702.9472945001908,702.9472945001908,702.9472945001908,0.0822061994113028,0.18229599948972464,708.6471743001603,708.8471653000452,6.015614199452102,6.115545399487019,714.8471299000084,12.015583199448884,714.9805677002296,714.9805677002296,0.015689199324697256,0.11554469959810376,up,1.0987729001790285,716.1137699000537,4.539964720606804e-05,0.09771629981696606,722.1304871998727,722.1304871998727,722.1304871998727,0.007868200074881315,0.11448680004104972,5.0,3.1408321000635624,,,,,,,,702.8471536999568,702.8471536999568,714.9470894001424,714.9470894001424,,,674,Moral,2024-04-03_12h11.45.632,MoralCondition_v2,2022.2.5,30.004791763308273,
13,0,13,0,1,0,1,0,,,,,,,,,,,,,,,,,,,,,,,,,,,,,,,,,,,,,,,,,,,,,,,,,,,,,725.2971302000806,725.2971302000806,0.0065524997189641,0.09930319990962744,1.0,2.4271358996629715,,,,,,,,,,,,,,674,Moral,2024-04-03_12h11.45.632,MoralCondition_v2,2022.2.5,30.004791763308273,
13,0,13,0,2,0,2,0,,,,,,,,,,,,,,,,,,,,,,,,,,,,,,,,,,,,,,,,,,,,,,,,,,,,,727.7635546000674,727.7635546000674,0.007301600184291601,0.09778949990868568,5.0,2.391815499868244,,,,,,,,,,,,,,674,Moral,2024-04-03_12h11.45.632,MoralCondition_v2,2022.2.5,30.004791763308273,
13,0,13,0,3,0,3,0,,,,,,,,,,,,,,,,,,,,,,,,,,,,,,,,,,,,,,,,,,,,,,,,,,,,,730.1971931001171,730.1971931001171,0.008729999884963036,0.09748829994350672,1.0,1.9396553002297878,,,,,,,,,,,,,,674,Moral,2024-04-03_12h11.45.632,MoralCondition_v2,2022.2.5,30.004791763308273,
13,0,13,0,4,0,4,0,,,,,,,,,,,,,,,,,,,,,,,,,,,,,,,,,,,,,,,,,,,,,,,,,,,,,732.1804629000835,732.1804629000835,0.007498499937355518,0.09783639991655946,7.0,1.4580149999819696,,,,,,,,,,,,,,674,Moral,2024-04-03_12h11.45.632,MoralCondition_v2,2022.2.5,30.004791763308273,
13,0,13,0,5,0,5,0,,,,,,,,,,,,,,,,,,,,,,,,,,,,,,,,,,,,,,,,,,,,,,,,,,,,,733.680563100148,733.680563100148,0.008352099917829037,0.09755489975214005,4.0,2.9902852000668645,,,,,,,,,,,,,,674,Moral,2024-04-03_12h11.45.632,MoralCondition_v2,2022.2.5,30.004791763308273,
13,0,13,0,6,0,6,0,,,,,,,,,,,,,,,,,,,,,,,,,,,,,,,,,,,,,,,,,,,,,,,,,,,,,736.7306980998255,736.7306980998255,0.009400200098752975,0.11458930000662804,7.0,1.7058599996380508,,,,,,,,,,,,,,674,Moral,2024-04-03_12h11.45.632,MoralCondition_v2,2022.2.5,30.004791763308273,
13,0,13,0,,,,,,,,,,,,,,,,,,,,,,,,,,,,,,,,,,,,,,,,,,,,,,,,,,,,,,,,,,,,,,,738.4639119999483,738.4639119999483,0.000704099889844656,0.09912839997559786,1.0,3.066298400051892,,,,,,,,674,Moral,2024-04-03_12h11.45.632,MoralCondition_v2,2022.2.5,30.004791763308273,
14,0,14,0,0,0,0,0,,,,,,,,,,,,,,,,,,,,,,741.5638673999347,0.00023270025849342346,0.09822530020028353,747.5802913000807,6.014717299956828,747.7471189000644,747.7471189000644,0.06718860007822514,0.18153569987043738,6.014624299947172,753.8470077998936,753.8470077998936,753.8470077998936,0.06753329979255795,0.18153539998456836,759.5470480001532,759.7469902001321,6.014752299990505,6.114828200079501,765.7469009999186,12.0146375996992,765.8634150000289,765.8634150000289,0.01461159996688366,0.09788669971749187,up,0.6959577002562582,766.6138172000647,5.5499840527772903e-05,0.09762539993971586,772.6134890001267,772.6134890001267,772.6134890001267,0.005950999911874533,0.09764959989115596,7.0,1.9261288000270724,,,,,,,,753.7300920998678,753.7300920998678,765.8468637000769,765.8468637000769,,,674,Moral,2024-04-03_12h11.45.632,MoralCondition_v2,2022.2.5,30.004791763308273,
14,0,14,0,1,0,1,0,,,,,,,,,,,,,,,,,,,,,,,,,,,,,,,,,,,,,,,,,,,,,,,,,,,,,774.580196400173,774.580196400173,0.006968399975448847,0.09916969994083047,5.0,2.0597201995551586,,,,,,,,,,,,,,674,Moral,2024-04-03_12h11.45.632,MoralCondition_v2,2022.2.5,30.004791763308273,
14,0,14,0,2,0,2,0,,,,,,,,,,,,,,,,,,,,,,,,,,,,,,,,,,,,,,,,,,,,,,,,,,,,,776.6801033001393,776.6801033001393,0.007411299739032984,0.09810589998960495,1.0,1.8915460999123752,,,,,,,,,,,,,,674,Moral,2024-04-03_12h11.45.632,MoralCondition_v2,2022.2.5,30.004791763308273,
14,0,14,0,3,0,3,0,,,,,,,,,,,,,,,,,,,,,,,,,,,,,,,,,,,,,,,,,,,,,,,,,,,,,778.6133400001563,778.6133400001563,0.008631600067019463,0.09741330007091165,7.0,1.4235360003076494,,,,,,,,,,,,,,674,Moral,2024-04-03_12h11.45.632,MoralCondition_v2,2022.2.5,30.004791763308273,
14,0,14,0,4,0,4,0,,,,,,,,,,,,,,,,,,,,,,,,,,,,,,,,,,,,,,,,,,,,,,,,,,,,,780.0800291001797,780.0800291001797,0.0069944001734256744,0.09890069998800755,4.0,2.693206900265068,,,,,,,,,,,,,,674,Moral,2024-04-03_12h11.45.632,MoralCondition_v2,2022.2.5,30.004791763308273,
14,0,14,0,5,0,5,0,,,,,,,,,,,,,,,,,,,,,,,,,,,,,,,,,,,,,,,,,,,,,,,,,,,,,782.8136514001526,782.8136514001526,0.006646300200372934,0.0986664998345077,6.0,1.726516299881041,,,,,,,,,,,,,,674,Moral,2024-04-03_12h11.45.632,MoralCondition_v2,2022.2.5,30.004791763308273,
14,0,14,0,6,0,6,0,,,,,,,,,,,,,,,,,,,,,,,,,,,,,,,,,,,,,,,,,,,,,,,,,,,,,784.5803189999424,784.5803189999424,0.007960100192576647,0.09932820033282042,2.0,2.0257462998852134,,,,,,,,,,,,,,674,Moral,2024-04-03_12h11.45.632,MoralCondition_v2,2022.2.5,30.004791763308273,
14,0,14,0,,,,,,,,,,,,,,,,,,,,,,,,,,,,,,,,,,,,,,,,,,,,,,,,,,,,,,,,,,,,,,,786.6467164000496,786.6467164000496,0.0007242001593112946,0.09912530006840825,1.0,2.2330612000077963,,,,,,,,674,Moral,2024-04-03_12h11.45.632,MoralCondition_v2,2022.2.5,30.004791763308273,
15,0,15,0,0,0,0,0,,,,,,,,,,,,,,,,,,,,,,788.9138365001418,0.00028060004115104675,0.09796759998425841,794.9301216998138,6.01450080005452,795.1136051998474,795.1136051998474,0.08762829983606935,0.197998299729079,6.0311225997284055,801.2135942000896,801.2135942000896,801.2135942000896,0.0856110998429358,0.19794249953702092,806.9134168000892,807.1134200999513,6.031179599929601,6.131053299643099,813.1133042001165,12.030996199697256,813.2467117002234,813.2467117002234,0.031221899669617414,0.13102219952270389,up,0.7843419001437724,814.0799978999421,4.200031980872154e-05,0.09805440017953515,,820.1133600999601,820.1133600999601,0.02708750031888485,0.13134270021691918,3.0,2.7719580000266433,,,,,,,,801.1132976999506,801.1132976999506,813.2133348998614,813.2133348998614,,,674,Moral,2024-04-03_12h11.45.632,MoralCondition_v2,2022.2.5,30.004791763308273,
15,0,15,0,1,0,1,0,,,,,,,,,,,,,,,,,,,,,,,,,,,,,,,,,,,,,,,,,,,,,,,,,,,,,822.9131249999627,822.9131249999627,0.007866700179874897,0.09745000023394823,6.0,1.824178300332278,,,,,,,,,,,,,,674,Moral,2024-04-03_12h11.45.632,MoralCondition_v2,2022.2.5,30.004791763308273,
15,0,15,0,2,0,2,0,,,,,,,,,,,,,,,,,,,,,,,,,,,,,,,,,,,,,,,,,,,,,,,,,,,,,824.7799871000461,824.7799871000461,0.007407099939882755,0.09962240001186728,5.0,1.9595538000576198,,,,,,,,,,,,,,674,Moral,2024-04-03_12h11.45.632,MoralCondition_v2,2022.2.5,30.004791763308273,
15,0,15,0,3,0,3,0,,,,,,,,,,,,,,,,,,,,,,,,,,,,,,,,,,,,,,,,,,,,,,,,,,,,,826.7800968000665,826.7800968000665,0.007092200219631195,0.09935900010168552,6.0,1.5265537002123892,,,,,,,,,,,,,,674,Moral,2024-04-03_12h11.45.632,MoralCondition_v2,2022.2.5,30.004791763308273,
15,0,15,0,4,0,4,0,,,,,,,,,,,,,,,,,,,,,,,,,,,,,,,,,,,,,,,,,,,,,,,,,,,,,828.3464007000439,828.3464007000439,0.0066049001179635525,0.09872489981353283,1.0,2.0264632999897003,,,,,,,,,,,,,,674,Moral,2024-04-03_12h11.45.632,MoralCondition_v2,2022.2.5,30.004791763308273,
15,0,15,0,5,0,5,0,,,,,,,,,,,,,,,,,,,,,,,,,,,,,,,,,,,,,,,,,,,,,,,,,,,,,830.413345800247,830.413345800247,0.006645600311458111,0.09900220017880201,5.0,3.1269295001402497,,,,,,,,,,,,,,674,Moral,2024-04-03_12h11.45.632,MoralCondition_v2,2022.2.5,30.004791763308273,
15,0,15,0,6,0,6,0,,,,,,,,,,,,,,,,,,,,,,,,,,,,,,,,,,,,,,,,,,,,,,,,,,,,,833.5799290998839,833.5799290998839,0.0068534002639353275,0.09929809998720884,2.0,1.6933776000514627,,,,,,,,,,,,,,674,Moral,2024-04-03_12h11.45.632,MoralCondition_v2,2022.2.5,30.004791763308273,
15,0,15,0,,,,,,,,,,,,,,,,,,,,,,,,,,,,,,,,,,,,,,,,,,,,,,,,,,,,,,,,,,,,,,,835.313465599902,835.313465599902,0.0016608000732958317,0.09799110004678369,2.0,2.263889499939978,,,,,,,,674,Moral,2024-04-03_12h11.45.632,MoralCondition_v2,2022.2.5,30.004791763308273,
16,0,16,0,0,0,0,0,,,,,,,,,,,,,,,,,,,,,,837.6132420999929,0.00034190015867352486,0.09772770013660192,843.613086100202,6.014124699868262,843.7798680998385,843.7798680998385,0.05384430009871721,0.16432159999385476,6.030757099855691,849.9133132998832,849.9133132998832,849.9133132998832,0.08307539997622371,0.19770569959655404,855.6130846999586,855.8132440000772,6.030890099704266,6.130740699823946,861.8132111998275,12.03083929978311,861.9464404000901,861.9464404000901,0.030959199648350477,0.1307280999608338,up,0.716811400372535,862.7130452999845,5.269981920719147e-05,0.0979157998226583,868.7299366998486,868.7299366998486,868.7299366998486,0.008896199986338615,0.11466210009530187,7.0,1.7067859997041523,,,,,,,6.097503699827939,849.7798752002418,849.7798752002418,861.913134700153,861.913134700153,,,674,Moral,2024-04-03_12h11.45.632,MoralCondition_v2,2022.2.5,30.004791763308273,
16,0,16,0,1,0,1,0,,,,,,,,,,,,,,,,,,,,,,,,,,,,,,,,,,,,,,,,,,,,,,,,,,,,,870.4630582998507,870.4630582998507,0.006499399896711111,0.0991567000746727,5.0,2.093580699991435,,,,,,,,,,,,,,674,Moral,2024-04-03_12h11.45.632,MoralCondition_v2,2022.2.5,30.004791763308273,
16,0,16,0,2,0,2,0,,,,,,,,,,,,,,,,,,,,,,,,,,,,,,,,,,,,,,,,,,,,,,,,,,,,,872.5963717000559,872.5963717000559,0.0066351997666060925,0.09948059963062406,5.0,1.6936205001547933,,,,,,,,,,,,,,674,Moral,2024-04-03_12h11.45.632,MoralCondition_v2,2022.2.5,30.004791763308273,
16,0,16,0,3,0,3,0,,,,,,,,,,,,,,,,,,,,,,,,,,,,,,,,,,,,,,,,,,,,,,,,,,,,,874.346625899896,874.346625899896,0.007506000343710184,0.11430010013282299,7.0,0.9744080998934805,,,,,,,,,,,,,,674,Moral,2024-04-03_12h11.45.632,MoralCondition_v2,2022.2.5,30.004791763308273,
16,0,16,0,4,0,4,0,,,,,,,,,,,,,,,,,,,,,,,,,,,,,,,,,,,,,,,,,,,,,,,,,,,,,875.3462923001498,875.3462923001498,0.007374000269919634,0.09779120003804564,1.0,1.458370900247246,,,,,,,,,,,,,,674,Moral,2024-04-03_12h11.45.632,MoralCondition_v2,2022.2.5,30.004791763308273,
16,0,16,0,5,0,5,0,,,,,,,,,,,,,,,,,,,,,,,,,,,,,,,,,,,,,,,,,,,,,,,,,,,,,876.8462898000143,876.8462898000143,0.006285300012677908,0.09901130013167858,6.0,1.9269685000181198,,,,,,,,,,,,,,674,Moral,2024-04-03_12h11.45.632,MoralCondition_v2,2022.2.5,30.004791763308273,
16,0,16,0,6,0,6,0,,,,,,,,,,,,,,,,,,,,,,,,,,,,,,,,,,,,,,,,,,,,,,,,,,,,,878.8301647999324,878.8301647999324,0.007891299668699503,0.1142871999181807,1.0,1.7405759999528527,,,,,,,,,,,,,,674,Moral,2024-04-03_12h11.45.632,MoralCondition_v2,2022.2.5,30.004791763308273,
16,0,16,0,,,,,,,,,,,,,,,,,,,,,,,,,,,,,,,,,,,,,,,,,,,,,,,,,,,,,,,,,,,,,,,880.5962910000235,880.5962910000235,0.0018617003224790096,0.09762539993971586,1.0,3.063887999858707,,,,,,,,674,Moral,2024-04-03_12h11.45.632,MoralCondition_v2,2022.2.5,30.004791763308273,
17,0,17,0,0,0,0,0,,,,,,,,,,,,,,,,,,,,,,883.6963895000517,0.0001981002278625965,0.098643499892205,889.6963726999238,6.0319464998319745,889.8961873999797,889.8961873999797,0.09590409975498915,0.19879279984161258,6.032052199821919,895.9964395002462,895.9964395002462,895.9964395002462,0.09736829996109009,0.19871839974075556,901.69619219983,901.8963020998053,6.031872899737209,6.131935999728739,907.8960489998572,12.03153849998489,908.029590500053,908.029590500053,0.03214549971744418,0.13177419966086745,up,0.7293782997876406,908.79626740003,3.679981455206871e-05,0.09787350008264184,914.8131471001543,914.8131471001543,914.8131471001543,0.009054000023752451,0.11467809975147247,5.0,1.7066628001630306,,,,,,,,895.8962980001234,895.8962980001234,907.9964176001959,907.9964176001959,,,674,Moral,2024-04-03_12h11.45.632,MoralCondition_v2,2022.2.5,30.004791763308273,
17,0,17,0,1,0,1,0,,,,,,,,,,,,,,,,,,,,,,,,,,,,,,,,,,,,,,,,,,,,,,,,,,,,,916.5463258000091,916.5463258000091,0.006659899838268757,0.09899259964004159,2.0,1.8267005002126098,,,,,,,,,,,,,,674,Moral,2024-04-03_12h11.45.632,MoralCondition_v2,2022.2.5,30.004791763308273,
17,0,17,0,2,0,2,0,,,,,,,,,,,,,,,,,,,,,,,,,,,,,,,,,,,,,,,,,,,,,,,,,,,,,918.4129241001792,918.4129241001792,0.006862799637019634,0.09832029975950718,6.0,1.9261968000791967,,,,,,,,,,,,,,674,Moral,2024-04-03_12h11.45.632,MoralCondition_v2,2022.2.5,30.004791763308273,
17,0,17,0,3,0,3,0,,,,,,,,,,,,,,,,,,,,,,,,,,,,,,,,,,,,,,,,,,,,,,,,,,,,,920.3796644001268,920.3796644001268,0.007329700049012899,0.09803309990093112,6.0,1.3916731998324394,,,,,,,,,,,,,,674,Moral,2024-04-03_12h11.45.632,MoralCondition_v2,2022.2.5,30.004791763308273,
17,0,17,0,4,0,4,0,,,,,,,,,,,,,,,,,,,,,,,,,,,,,,,,,,,,,,,,,,,,,,,,,,,,,921.8128066002391,921.8128066002391,0.006707899738103151,0.0992362997494638,3.0,1.9266615002416074,,,,,,,,,,,,,,674,Moral,2024-04-03_12h11.45.632,MoralCondition_v2,2022.2.5,30.004791763308273,
17,0,17,0,5,0,5,0,,,,,,,,,,,,,,,,,,,,,,,,,,,,,,,,,,,,,,,,,,,,,,,,,,,,,923.7964633000083,923.7964633000083,0.007757700048387051,0.11402689991518855,5.0,1.8407335998490453,,,,,,,,,,,,,,674,Moral,2024-04-03_12h11.45.632,MoralCondition_v2,2022.2.5,30.004791763308273,
17,0,17,0,6,0,6,0,,,,,,,,,,,,,,,,,,,,,,,,,,,,,,,,,,,,,,,,,,,,,,,,,,,,,925.662798000034,925.662798000034,0.0068824999034404755,0.09904260002076626,2.0,1.6932059000246227,,,,,,,,,,,,,,674,Moral,2024-04-03_12h11.45.632,MoralCondition_v2,2022.2.5,30.004791763308273,
17,0,17,0,,,,,,,,,,,,,,,,,,,,,,,,,,,,,,,,,,,,,,,,,,,,,,,,,,,,,,,,,,,,,,,927.3965464998037,927.3965464998037,0.0014180000871419907,0.09837230015546083,3.0,2.131750799715519,,,,,,,,674,Moral,2024-04-03_12h11.45.632,MoralCondition_v2,2022.2.5,30.004791763308273,
18,0,18,0,0,0,0,0,,,,,,,,,,,,,,,,,,,,,,929.5629910002463,0.00037949997931718826,0.09698710031807423,935.5460275001824,6.0137626002542675,935.7295269002207,935.7295269002207,0.0526244998909533,0.16415050020441413,6.0304751000367105,941.8461684999056,941.8461684999056,941.8461684999056,0.0667047998867929,0.18085499992594123,947.5465274001472,947.7460119002499,6.0139990001916885,6.1140268999151886,953.7459805998951,12.013774199876934,953.8794141001999,953.8794141001999,0.014156999997794628,0.11399849969893694,up,0.5673633003607392,954.4961402001791,9.139999747276306e-05,0.09817579993978143,960.5126983001828,960.5126983001828,960.5126983001828,0.01040030037984252,0.11463179998099804,5.0,3.0719177997671068,,,,,,,6.097068100236356,941.7293790997937,941.7293790997937,953.8460878999904,953.8460878999904,,,674,Moral,2024-04-03_12h11.45.632,MoralCondition_v2,2022.2.5,30.004791763308273,
18,0,18,0,1,0,1,0,,,,,,,,,,,,,,,,,,,,,,,,,,,,,,,,,,,,,,,,,,,,,,,,,,,,,963.6296430001967,963.6296430001967,0.007866899948567152,0.11430330015718937,5.0,4.240673500113189,,,,,,,,,,,,,,674,Moral,2024-04-03_12h11.45.632,MoralCondition_v2,2022.2.5,30.004791763308273,
18,0,18,0,2,0,2,0,,,,,,,,,,,,,,,,,,,,,,,,,,,,,,,,,,,,,,,,,,,,,,,,,,,,,967.9128825999796,967.9128825999796,0.0077629997394979,0.11435559997335076,3.0,2.8073780997656286,,,,,,,,,,,,,,674,Moral,2024-04-03_12h11.45.632,MoralCondition_v2,2022.2.5,30.004791763308273,
18,0,18,0,3,0,3,0,,,,,,,,,,,,,,,,,,,,,,,,,,,,,,,,,,,,,,,,,,,,,,,,,,,,,970.7628553998657,970.7628553998657,0.008815899956971407,0.11427449993789196,3.0,1.7729245000518858,,,,,,,,,,,,,,674,Moral,2024-04-03_12h11.45.632,MoralCondition_v2,2022.2.5,30.004791763308273,
18,0,18,0,4,0,4,0,,,,,,,,,,,,,,,,,,,,,,,,,,,,,,,,,,,,,,,,,,,,,,,,,,,,,972.5795498001389,972.5795498001389,0.008106700144708157,0.114629200194031,5.0,2.041034399997443,,,,,,,,,,,,,,674,Moral,2024-04-03_12h11.45.632,MoralCondition_v2,2022.2.5,30.004791763308273,
18,0,18,0,5,0,5,0,,,,,,,,,,,,,,,,,,,,,,,,,,,,,,,,,,,,,,,,,,,,,,,,,,,,,974.6461717002094,974.6461717002094,0.007538499776273966,0.09796499973163009,3.0,2.491477500181645,,,,,,,,,,,,,,674,Moral,2024-04-03_12h11.45.632,MoralCondition_v2,2022.2.5,30.004791763308273,
18,0,18,0,6,0,6,0,,,,,,,,,,,,,,,,,,,,,,,,,,,,,,,,,,,,,,,,,,,,,,,,,,,,,977.1794989001937,977.1794989001937,0.007101399824023247,0.09933390002697706,3.0,0.9264173996634781,,,,,,,,,,,,,,674,Moral,2024-04-03_12h11.45.632,MoralCondition_v2,2022.2.5,30.004791763308273,
18,0,18,0,,,,,,,,,,,,,,,,,,,,,,,,,,,,,,,,,,,,,,,,,,,,,,,,,,,,,,,,,,,,,,,978.1460484000854,978.1460484000854,0.000669300090521574,0.09912100015208125,4.0,2.7662023003213108,,,,,,,,674,Moral,2024-04-03_12h11.45.632,MoralCondition_v2,2022.2.5,30.004791763308273,
19,0,19,0,0,0,0,0,,,,,,,,,,,,,,,,,,,,,,980.9463533000089,0.00025479961186647415,0.09818189963698387,986.9625710998662,6.014668899588287,987.1293120002374,987.1293120002374,0.078055199701339,0.18160889949649572,6.014635199680924,993.2293177000247,993.2293177000247,993.2293177000247,0.07217719964683056,0.1815270995721221,998.9291773000732,999.1292032999918,6.014689099509269,6.114628699608147,1005.129137000069,12.014619099441916,1005.2624786002561,1005.2624786002561,0.014749499503523111,0.11468079965561628,up,1.9607214001007378,1007.2791574001312,4.329998046159744e-05,0.0979454000480473,1013.2791118002497,1013.2791118002497,1013.2791118002497,0.004306499846279621,0.09807239985093474,6.0,3.594527999870479,,,,,,,,993.1291844001971,993.1291844001971,1005.2291375999339,1005.2291375999339,,,674,Moral,2024-04-03_12h11.45.632,MoralCondition_v2,2022.2.5,30.004791763308273,
19,0,19,0,1,0,1,0,,,,,,,,,,,,,,,,,,,,,,,,,,,,,,,,,,,,,,,,,,,,,,,,,,,,,1016.9125826000236,1016.9125826000236,0.008276599925011396,0.09805729985237122,4.0,1.857671500183642,,,,,,,,,,,,,,674,Moral,2024-04-03_12h11.45.632,MoralCondition_v2,2022.2.5,30.004791763308273,
19,0,19,0,2,0,2,0,,,,,,,,,,,,,,,,,,,,,,,,,,,,,,,,,,,,,,,,,,,,,,,,,,,,,1018.8123833001591,1018.8123833001591,0.00652880035340786,0.09873450035229325,3.0,1.6598797999322414,,,,,,,,,,,,,,674,Moral,2024-04-03_12h11.45.632,MoralCondition_v2,2022.2.5,30.004791763308273,
19,0,19,0,3,0,3,0,,,,,,,,,,,,,,,,,,,,,,,,,,,,,,,,,,,,,,,,,,,,,,,,,,,,,1020.5125885000452,1020.5125885000452,0.006652900017797947,0.0991750000976026,3.0,1.1270924001000822,,,,,,,,,,,,,,674,Moral,2024-04-03_12h11.45.632,MoralCondition_v2,2022.2.5,30.004791763308273,
19,0,19,0,4,0,4,0,,,,,,,,,,,,,,,,,,,,,,,,,,,,,,,,,,,,,,,,,,,,,,,,,,,,,1021.6790812998079,1021.6790812998079,0.007322399877011776,0.09800270013511181,2.0,2.058319500181824,,,,,,,,,,,,,,674,Moral,2024-04-03_12h11.45.632,MoralCondition_v2,2022.2.5,30.004791763308273,
19,0,19,0,5,0,5,0,,,,,,,,,,,,,,,,,,,,,,,,,,,,,,,,,,,,,,,,,,,,,,,,,,,,,1023.7960112001747,1023.7960112001747,0.007950900122523308,0.11452839989215136,5.0,2.0073836003430188,,,,,,,,,,,,,,674,Moral,2024-04-03_12h11.45.632,MoralCondition_v2,2022.2.5,30.004791763308273,
19,0,19,0,6,0,6,0,,,,,,,,,,,,,,,,,,,,,,,,,,,,,,,,,,,,,,,,,,,,,,,,,,,,,1025.8459251001477,1025.8459251001477,0.009010700043290854,0.11379799991846085,2.0,1.4058690001256764,,,,,,,,,,,,,,674,Moral,2024-04-03_12h11.45.632,MoralCondition_v2,2022.2.5,30.004791763308273,
19,0,19,0,,,,,,,,,,,,,,,,,,,,,,,,,,,,,,,,,,,,,,,,,,,,,,,,,,,,,,,,,,,,,,,1027.279185899999,1027.279185899999,0.0007270998321473598,0.09920749999582767,6.0,2.4996750000864267,,,,,,,,674,Moral,2024-04-03_12h11.45.632,MoralCondition_v2,2022.2.5,30.004791763308273,
