loop.thisRepN,loop.thisTrialN,loop.thisN,loop.thisIndex,evaluate_all_emotions.thisRepN,evaluate_all_emotions.thisTrialN,evaluate_all_emotions.thisN,evaluate_all_emotions.thisIndex,sync_beep_1.started,p_port.started,p_port.stopped,sync_beep_1.stopped,sync_beep_2.started,sync_beep_2.stopped,sync_beep_3.started,sync_beep_3.stopped,sync_beep_4.started,sync_beep_4.stopped,baseline.started,p_port_2.started,p_port_2.stopped,baseline.stopped,p_port_3.started,Game_Start_Text.started,p_port_4.started,p_port_4.stopped,key_resp.started,key_resp.keys,key_resp.rt,fixation_cross.started,p_port_5.started,p_port_5.stopped,fixation_cross.stopped,p_port_6.started,player_image_intro.started,player_name_intro.started,p_port_7.started,p_port_7.stopped,p_port_8.started,p_port_8.stopped,player_image_offer.started,player_name_offer.started,proposed_split.started,p_port_9.started,p_port_9.stopped,proposed_split.stopped,accept_reject.started,p_port_15.started,p_port_15.stopped,accept_reject.stopped,p_port_10.started,p_port_10.stopped,arrow_instructions.started,offer_choice.started,p_port_11.started,p_port_11.stopped,offer_choice.keys,offer_choice.rt,Instructions_Affinity_Score.started,p_port_12.started,p_port_12.stopped,Instructions_Affinity_Score.stopped,Emotion_Image.started,AffinityScore.started,p_port_13.started,p_port_13.stopped,AffinityScore.response,AffinityScore.rt,Instruction.started,Moral_Disgust_Score.started,p_port_14.started,p_port_14.stopped,Moral_Disgust_Score.response,Moral_Disgust_Score.rt,player_image_intro.stopped,player_name_intro.stopped,player_image_offer.stopped,player_name_offer.stopped,p_port_6.stopped,participant,session,date,expName,psychopyVersion,frameRate,
,,,,,,,,13.199482501111925,0.0007760003209114075,0.1035693995654583,13.51157739944756,13.79493629988283,14.11149699985981,14.395171600021422,14.694941299967468,14.995088600181044,15.311645000241697,15.311645000241697,0.02050130069255829,0.12052540015429258,30.328277999535203,15.00376780051738,30.42837420012802,0.00374510046094656,0.10377330053597689,30.894949399866164,space,0.8449277998879552,,,,,,,,,,,,,,,,,,,,,,,,,,,,,,,,,,,,,,,,,,,,,,,,,,,675,Moral,2024-04-15_14h43.56.542,MoralCondition_v2,2022.2.5,30.01500451367607,
0,0,0,0,0,0,0,0,,,,,,,,,,,,,,,,,,,,,,31.778210999444127,0.00044449977576732635,0.09968309942632914,37.79489229992032,6.016452799551189,38.04498180001974,38.04498180001974,0.12314349971711636,0.26615680009126663,5.999394699931145,6.0997155001387,44.11177559942007,44.11177559942007,44.11177559942007,0.093299999833107,0.23296819999814034,49.8115614997223,49.94516349956393,5.999904599972069,6.0997494999319315,55.944763500243425,11.999463500455022,12.099552400410175,56.11154900025576,56.11154900025576,0.03288060054183006,0.13290890026837587,down,1.988760500214994,58.16148959938437,4.0699727833271027e-05,0.09798740036785603,64.17817229963839,64.17817229963839,64.17817229963839,0.009840000420808792,0.11464659962803125,5.0,3.5723199993371964,,,,,,,,,,,,675,Moral,2024-04-15_14h43.56.542,MoralCondition_v2,2022.2.5,30.01500451367607,
0,0,0,0,1,0,1,0,,,,,,,,,,,,,,,,,,,,,,,,,,,,,,,,,,,,,,,,,,,,,,,,,,,,,,,67.79517569951713,67.79517569951713,0.011724299751222134,0.11414599977433681,2.0,1.5705915996804833,,,,,,,,,,,,675,Moral,2024-04-15_14h43.56.542,MoralCondition_v2,2022.2.5,30.01500451367607,
0,0,0,0,2,0,2,0,,,,,,,,,,,,,,,,,,,,,,,,,,,,,,,,,,,,,,,,,,,,,,,,,,,,,,,69.39495310001075,69.39495310001075,0.009713100269436836,0.0980873005464673,4.0,2.556055299937725,,,,,,,,,,,,675,Moral,2024-04-15_14h43.56.542,MoralCondition_v2,2022.2.5,30.01500451367607,
0,0,0,0,3,0,3,0,,,,,,,,,,,,,,,,,,,,,,,,,,,,,,,,,,,,,,,,,,,,,,,,,,,,,,,72.01170269958675,72.01170269958675,0.008659900166094303,0.11475960072129965,5.0,2.673783900216222,,,,,,,,,,,,675,Moral,2024-04-15_14h43.56.542,MoralCondition_v2,2022.2.5,30.01500451367607,
0,0,0,0,4,0,4,0,,,,,,,,,,,,,,,,,,,,,,,,,,,,,,,,,,,,,,,,,,,,,,,,,,,,,,,74.71148389950395,74.71148389950395,0.008332199417054653,0.09925649967044592,5.0,1.8586958004161716,,,,,,,,,,,,675,Moral,2024-04-15_14h43.56.542,MoralCondition_v2,2022.2.5,30.01500451367607,
0,0,0,0,5,0,5,0,,,,,,,,,,,,,,,,,,,,,,,,,,,,,,,,,,,,,,,,,,,,,,,,,,,,,,,76.62838200014085,76.62838200014085,0.008864600211381912,0.1150102000683546,3.0,3.5071240002289414,,,,,,,,,,,,675,Moral,2024-04-15_14h43.56.542,MoralCondition_v2,2022.2.5,30.01500451367607,
0,0,0,0,6,0,6,0,,,,,,,,,,,,,,,,,,,,,,,,,,,,,,,,,,,,,,,,,,,,,,,,,,,,,,,80.16150700021535,80.16150700021535,0.010578099638223648,0.0984527999535203,5.0,5.855432800017297,,,,,,,,,,,,675,Moral,2024-04-15_14h43.56.542,MoralCondition_v2,2022.2.5,30.01500451367607,
0,0,0,0,,,,,,,,,,,,,,,,,,,,,,,,,,,,,,,,,,,,,,,,,,,,,,,,,,,,,,,,,,,,,,,,,86.06137599982321,86.06137599982321,0.0013088993728160858,0.09833049960434437,2.0,7.598189099691808,,,,,,675,Moral,2024-04-15_14h43.56.542,MoralCondition_v2,2022.2.5,30.01500451367607,
1,0,1,0,0,0,0,0,,,,,,,,,,,,,,,,,,,,,,93.69482189975679,0.0004591001197695732,0.09729150030761957,99.69480659998953,6.030676299706101,99.89484529942274,99.89484529942274,0.08851640019565821,0.1975006004795432,6.030568400397897,,105.99474050011486,105.99474050011486,105.99474050011486,0.09781070053577423,0.19745080079883337,111.6947868000716,111.89498039986938,6.030784000642598,6.130573901347816,117.89476829953492,12.030611501075327,,118.02808479964733,118.02808479964733,0.0309223011136055,0.13057330157607794,up,0.5191471995785832,118.59485039953142,4.849955439567566e-05,0.0978522002696991,124.61143319960684,124.61143319960684,124.61143319960684,0.009140599519014359,0.11439769994467497,5.0,2.3730306001380086,,,,,,,105.89476689975709,105.89476689975709,117.99483899958432,117.99483899958432,,675,Moral,2024-04-15_14h43.56.542,MoralCondition_v2,2022.2.5,30.01500451367607,
1,0,1,0,1,0,1,0,,,,,,,,,,,,,,,,,,,,,,,,,,,,,,,,,,,,,,,,,,,,,,,,,,,,,,,127.01153399981558,127.01153399981558,0.007623899728059769,0.09776930045336485,2.0,1.9245892008766532,,,,,,,,,,,,675,Moral,2024-04-15_14h43.56.542,MoralCondition_v2,2022.2.5,30.01500451367607,
1,0,1,0,2,0,2,0,,,,,,,,,,,,,,,,,,,,,,,,,,,,,,,,,,,,,,,,,,,,,,,,,,,,,,,128.97817850019783,128.97817850019783,0.007523899897933006,0.09825379960238934,2.0,1.1915244003757834,,,,,,,,,,,,675,Moral,2024-04-15_14h43.56.542,MoralCondition_v2,2022.2.5,30.01500451367607,
1,0,1,0,3,0,3,0,,,,,,,,,,,,,,,,,,,,,,,,,,,,,,,,,,,,,,,,,,,,,,,,,,,,,,,130.21142920013517,130.21142920013517,0.007004300132393837,0.09925900027155876,2.0,1.0264058001339436,,,,,,,,,,,,675,Moral,2024-04-15_14h43.56.542,MoralCondition_v2,2022.2.5,30.01500451367607,
1,0,1,0,4,0,4,0,,,,,,,,,,,,,,,,,,,,,,,,,,,,,,,,,,,,,,,,,,,,,,,,,,,,,,,131.27797830011696,131.27797830011696,0.006807300262153149,0.099163300357759,2.0,0.8266608994454145,,,,,,,,,,,,675,Moral,2024-04-15_14h43.56.542,MoralCondition_v2,2022.2.5,30.01500451367607,
1,0,1,0,5,0,5,0,,,,,,,,,,,,,,,,,,,,,,,,,,,,,,,,,,,,,,,,,,,,,,,,,,,,,,,132.14485329948366,132.14485329948366,0.006723799742758274,0.09918680042028427,2.0,0.9937273999676108,,,,,,,,,,,,675,Moral,2024-04-15_14h43.56.542,MoralCondition_v2,2022.2.5,30.01500451367607,
1,0,1,0,6,0,6,0,,,,,,,,,,,,,,,,,,,,,,,,,,,,,,,,,,,,,,,,,,,,,,,,,,,,,,,133.17849059961736,133.17849059961736,0.006577899679541588,0.09746569953858852,6.0,1.4251074008643627,,,,,,,,,,,,675,Moral,2024-04-15_14h43.56.542,MoralCondition_v2,2022.2.5,30.01500451367607,
1,0,1,0,,,,,,,,,,,,,,,,,,,,,,,,,,,,,,,,,,,,,,,,,,,,,,,,,,,,,,,,,,,,,,,,,134.64493819978088,134.64493819978088,0.0019026994705200195,0.0974493995308876,7.0,2.363636599853635,,,,,,675,Moral,2024-04-15_14h43.56.542,MoralCondition_v2,2022.2.5,30.01500451367607,
2,0,2,0,0,0,0,0,,,,,,,,,,,,,,,,,,,,,,137.04503829963505,0.0002695005387067795,0.09785130061209202,143.04468739964068,6.031061700545251,143.24464859999716,143.24464859999716,0.09352640062570572,0.19771370105445385,6.031034900806844,,149.34484749939293,149.34484749939293,149.34484749939293,0.09047310147434473,0.19792770128697157,155.04469050001353,155.24465429969132,6.031027801334858,6.131011800840497,161.24468659982085,12.031064800918102,,161.37796789966524,161.37796789966524,0.031200501136481762,0.13095590099692345,up,1.1693484000861645,162.61127979960293,4.66005876660347e-05,0.09765870030969381,168.6117552993819,168.6117552993819,168.6117552993819,0.00876030046492815,0.09750180039554834,4.0,3.3233014000579715,,,,,,,149.24468859937042,149.24468859937042,161.34464820008725,161.34464820008725,,675,Moral,2024-04-15_14h43.56.542,MoralCondition_v2,2022.2.5,30.01500451367607,
2,0,2,0,1,0,1,0,,,,,,,,,,,,,,,,,,,,,,,,,,,,,,,,,,,,,,,,,,,,,,,,,,,,,,,171.9781788000837,171.9781788000837,0.008749200031161308,0.09781459998339415,5.0,2.589929800480604,,,,,,,,,,,,675,Moral,2024-04-15_14h43.56.542,MoralCondition_v2,2022.2.5,30.01500451367607,
2,0,2,0,2,0,2,0,,,,,,,,,,,,,,,,,,,,,,,,,,,,,,,,,,,,,,,,,,,,,,,,,,,,,,,174.61129879951477,174.61129879951477,0.007609500549733639,0.09772770013660192,2.0,2.2580742007121444,,,,,,,,,,,,675,Moral,2024-04-15_14h43.56.542,MoralCondition_v2,2022.2.5,30.01500451367607,
2,0,2,0,3,0,3,0,,,,,,,,,,,,,,,,,,,,,,,,,,,,,,,,,,,,,,,,,,,,,,,,,,,,,,,176.92830630019307,176.92830630019307,0.008984699845314026,0.11549430061131716,2.0,1.7077545998618007,,,,,,,,,,,,675,Moral,2024-04-15_14h43.56.542,MoralCondition_v2,2022.2.5,30.01500451367607,
2,0,2,0,4,0,4,0,,,,,,,,,,,,,,,,,,,,,,,,,,,,,,,,,,,,,,,,,,,,,,,,,,,,,,,178.67820629943162,178.67820629943162,0.007542900741100311,0.11406990047544241,2.0,0.7740885000675917,,,,,,,,,,,,675,Moral,2024-04-15_14h43.56.542,MoralCondition_v2,2022.2.5,30.01500451367607,
2,0,2,0,5,0,5,0,,,,,,,,,,,,,,,,,,,,,,,,,,,,,,,,,,,,,,,,,,,,,,,,,,,,,,,179.47803470026702,179.47803470026702,0.006699099205434322,0.09864520002156496,5.0,3.2928368002176285,,,,,,,,,,,,675,Moral,2024-04-15_14h43.56.542,MoralCondition_v2,2022.2.5,30.01500451367607,
2,0,2,0,6,0,6,0,,,,,,,,,,,,,,,,,,,,,,,,,,,,,,,,,,,,,,,,,,,,,,,,,,,,,,,182.82800669968128,182.82800669968128,0.007637199945747852,0.11408019997179508,2.0,1.3409565994516015,,,,,,,,,,,,675,Moral,2024-04-15_14h43.56.542,MoralCondition_v2,2022.2.5,30.01500451367607,
2,0,2,0,,,,,,,,,,,,,,,,,,,,,,,,,,,,,,,,,,,,,,,,,,,,,,,,,,,,,,,,,,,,,,,,,184.19474219996482,184.19474219996482,0.0014041997492313385,0.09798539988696575,7.0,4.264759699814022,,,,,,675,Moral,2024-04-15_14h43.56.542,MoralCondition_v2,2022.2.5,30.01500451367607,
3,0,3,0,0,0,0,0,,,,,,,,,,,,,,,,,,,,,,188.49485819973052,0.00033219996839761734,0.09756470005959272,194.51129699964076,6.014418399892747,194.72793379984796,194.72793379984796,0.11823059991002083,0.23133250046521425,6.031044299714267,,200.79473499953747,200.79473499953747,200.79473499953747,0.08889540005475283,0.19786860048770905,206.4944038996473,206.69448579940945,6.0311008002609015,6.130980800837278,212.69451150018722,12.0310502005741,,212.82768729981035,212.82768729981035,0.031226000748574734,0.13095250073820353,up,0.9038975993171334,213.7944922996685,4.37004491686821e-05,0.09819009993225336,219.79467689990997,219.79467689990997,219.79467689990997,0.008802300319075584,0.0978947002440691,3.0,2.290279599837959,,,,,,,,,212.7944826995954,212.7944826995954,,675,Moral,2024-04-15_14h43.56.542,MoralCondition_v2,2022.2.5,30.01500451367607,
3,0,3,0,1,0,1,0,,,,,,,,,,,,,,,,,,,,,,,,,,,,,,,,,,,,,,,,,,,,,,,,,,,,,,,222.1279430994764,222.1279430994764,0.008582400158047676,0.0975152999162674,5.0,3.4234130000695586,,,,,,,,,,,,675,Moral,2024-04-15_14h43.56.542,MoralCondition_v2,2022.2.5,30.01500451367607,
3,0,3,0,2,0,2,0,,,,,,,,,,,,,,,,,,,,,,,,,,,,,,,,,,,,,,,,,,,,,,,,,,,,,,,225.59467339981347,225.59467339981347,0.00694619957357645,0.09894630033522844,5.0,0.8930329997092485,,,,,,,,,,,,675,Moral,2024-04-15_14h43.56.542,MoralCondition_v2,2022.2.5,30.01500451367607,
3,0,3,0,3,0,3,0,,,,,,,,,,,,,,,,,,,,,,,,,,,,,,,,,,,,,,,,,,,,,,,,,,,,,,,226.54464180022478,226.54464180022478,0.007889899425208569,0.11439509969204664,5.0,1.0405810996890068,,,,,,,,,,,,675,Moral,2024-04-15_14h43.56.542,MoralCondition_v2,2022.2.5,30.01500451367607,
3,0,3,0,4,0,4,0,,,,,,,,,,,,,,,,,,,,,,,,,,,,,,,,,,,,,,,,,,,,,,,,,,,,,,,227.61107399966568,227.61107399966568,0.007530000060796738,0.09919080045074224,5.0,1.726031499914825,,,,,,,,,,,,675,Moral,2024-04-15_14h43.56.542,MoralCondition_v2,2022.2.5,30.01500451367607,
3,0,3,0,5,0,5,0,,,,,,,,,,,,,,,,,,,,,,,,,,,,,,,,,,,,,,,,,,,,,,,,,,,,,,,229.37775530014187,229.37775530014187,0.006601699627935886,0.09925899934023619,5.0,1.3268013997003436,,,,,,,,,,,,675,Moral,2024-04-15_14h43.56.542,MoralCondition_v2,2022.2.5,30.01500451367607,
3,0,3,0,6,0,6,0,,,,,,,,,,,,,,,,,,,,,,,,,,,,,,,,,,,,,,,,,,,,,,,,,,,,,,,230.74439699947834,230.74439699947834,0.007533400319516659,0.09752700012177229,3.0,3.6244915006682277,,,,,,,,,,,,675,Moral,2024-04-15_14h43.56.542,MoralCondition_v2,2022.2.5,30.01500451367607,
3,0,3,0,,,,,,,,,,,,,,,,,,,,,,,,,,,,,,,,,,,,,,,,,,,,,,,,,,,,,,,,,,,,,,,,,234.4112849002704,234.4112849002704,0.0006988998502492905,0.09906250052154064,3.0,2.699630199931562,,,,,,675,Moral,2024-04-15_14h43.56.542,MoralCondition_v2,2022.2.5,30.01500451367607,
4,0,4,0,0,0,0,0,,,,,,,,,,,,,,,,,,,,,,237.14480279944837,0.00013260077685117722,0.09925680048763752,243.1610714001581,6.015854400582612,243.32758949976414,243.32758949976414,0.07925780117511749,0.1826708009466529,6.015895800665021,,249.42757929954678,249.42757929954678,249.42757929954678,0.07891170121729374,0.1824992010369897,255.12770939990878,255.3278813995421,6.015937001444399,6.115651301108301,261.32765170000494,12.015717301517725,,261.46098740026355,261.46098740026355,0.01587510108947754,0.11571260169148445,up,0.3343086000531912,261.8610058994964,5.450006574392319e-05,0.09803760051727295,,267.8943978995085,267.8943978995085,0.025870599783957005,0.13151639979332685,2.0,2.506493699736893,,,,,,,249.32772239949554,249.32772239949554,261.4277331000194,261.4277331000194,,675,Moral,2024-04-15_14h43.56.542,MoralCondition_v2,2022.2.5,30.01500451367607,
4,0,4,0,1,0,1,0,,,,,,,,,,,,,,,,,,,,,,,,,,,,,,,,,,,,,,,,,,,,,,,,,,,,,,,270.42764940019697,270.42764940019697,0.007354200817644596,0.09793440066277981,2.0,0.7921076994389296,,,,,,,,,,,,675,Moral,2024-04-15_14h43.56.542,MoralCondition_v2,2022.2.5,30.01500451367607,
4,0,4,0,2,0,2,0,,,,,,,,,,,,,,,,,,,,,,,,,,,,,,,,,,,,,,,,,,,,,,,,,,,,,,,271.2776875998825,271.2776875998825,0.00865860003978014,0.1142485998570919,2.0,0.6065660007297993,,,,,,,,,,,,675,Moral,2024-04-15_14h43.56.542,MoralCondition_v2,2022.2.5,30.01500451367607,
4,0,4,0,3,0,3,0,,,,,,,,,,,,,,,,,,,,,,,,,,,,,,,,,,,,,,,,,,,,,,,,,,,,,,,271.9278170997277,271.9278170997277,0.007532600313425064,0.1142408000305295,2.0,0.7409410998225212,,,,,,,,,,,,675,Moral,2024-04-15_14h43.56.542,MoralCondition_v2,2022.2.5,30.01500451367607,
4,0,4,0,4,0,4,0,,,,,,,,,,,,,,,,,,,,,,,,,,,,,,,,,,,,,,,,,,,,,,,,,,,,,,,272.7109479997307,272.7109479997307,0.00814130064100027,0.11424480006098747,3.0,3.106901000253856,,,,,,,,,,,,675,Moral,2024-04-15_14h43.56.542,MoralCondition_v2,2022.2.5,30.01500451367607,
4,0,4,0,5,0,5,0,,,,,,,,,,,,,,,,,,,,,,,,,,,,,,,,,,,,,,,,,,,,,,,,,,,,,,,275.84437240008265,275.84437240008265,0.006962799467146397,0.0982258003205061,2.0,1.5595082994550467,,,,,,,,,,,,675,Moral,2024-04-15_14h43.56.542,MoralCondition_v2,2022.2.5,30.01500451367607,
4,0,4,0,6,0,6,0,,,,,,,,,,,,,,,,,,,,,,,,,,,,,,,,,,,,,,,,,,,,,,,,,,,,,,,277.44439209997654,277.44439209997654,0.007347400300204754,0.09816360007971525,5.0,1.4252017000690103,,,,,,,,,,,,675,Moral,2024-04-15_14h43.56.542,MoralCondition_v2,2022.2.5,30.01500451367607,
4,0,4,0,,,,,,,,,,,,,,,,,,,,,,,,,,,,,,,,,,,,,,,,,,,,,,,,,,,,,,,,,,,,,,,,,278.9108656998724,278.9108656998724,0.002213899977505207,0.09802010003477335,7.0,2.397277900017798,,,,,,675,Moral,2024-04-15_14h43.56.542,MoralCondition_v2,2022.2.5,30.01500451367607,
5,0,5,0,0,0,0,0,,,,,,,,,,,,,,,,,,,,,,281.34432750009,0.00041980016976594925,0.0979976998642087,287.360938699916,6.015424500219524,287.5278455996886,287.5278455996886,0.06767730042338371,0.18157410062849522,6.014462199993432,,293.62753379996866,293.62753379996866,293.62753379996866,0.06865300051867962,0.18155250046402216,299.3274301998317,299.52756329998374,6.014684400521219,6.114623201079667,305.52769530005753,12.014812300913036,,305.6608913997188,305.6608913997188,0.01484760083258152,0.11463520117104053,up,0.24676889926195145,305.9608803996816,7.880013436079025e-05,0.09776060003787279,,311.97730659972876,311.97730659972876,0.024940299801528454,0.11439609993249178,5.0,2.224094799719751,,,,,,,293.5275563998148,293.5275563998148,305.6275599002838,305.6275599002838,,675,Moral,2024-04-15_14h43.56.542,MoralCondition_v2,2022.2.5,30.01500451367607,
5,0,5,0,1,0,1,0,,,,,,,,,,,,,,,,,,,,,,,,,,,,,,,,,,,,,,,,,,,,,,,,,,,,,,,314.2441552001983,314.2441552001983,0.007544000633060932,0.0980015005916357,2.0,1.32464690040797,,,,,,,,,,,,675,Moral,2024-04-15_14h43.56.542,MoralCondition_v2,2022.2.5,30.01500451367607,
5,0,5,0,2,0,2,0,,,,,,,,,,,,,,,,,,,,,,,,,,,,,,,,,,,,,,,,,,,,,,,,,,,,,,,315.6107281995937,315.6107281995937,0.007653399370610714,0.09836179949343204,2.0,0.5250826003029943,,,,,,,,,,,,675,Moral,2024-04-15_14h43.56.542,MoralCondition_v2,2022.2.5,30.01500451367607,
5,0,5,0,3,0,3,0,,,,,,,,,,,,,,,,,,,,,,,,,,,,,,,,,,,,,,,,,,,,,,,,,,,,,,,316.1775334998965,316.1775334998965,0.0074616000056266785,0.09806669969111681,2.0,0.5917469002306461,,,,,,,,,,,,675,Moral,2024-04-15_14h43.56.542,MoralCondition_v2,2022.2.5,30.01500451367607,
5,0,5,0,4,0,4,0,,,,,,,,,,,,,,,,,,,,,,,,,,,,,,,,,,,,,,,,,,,,,,,,,,,,,,,316.8107508998364,316.8107508998364,0.007295399904251099,0.09795499965548515,2.0,0.558385000564158,,,,,,,,,,,,675,Moral,2024-04-15_14h43.56.542,MoralCondition_v2,2022.2.5,30.01500451367607,
5,0,5,0,5,0,5,0,,,,,,,,,,,,,,,,,,,,,,,,,,,,,,,,,,,,,,,,,,,,,,,,,,,,,,,317.41071730013937,317.41071730013937,0.0068741003051400185,0.09801029972732067,2.0,0.5920962998643517,,,,,,,,,,,,675,Moral,2024-04-15_14h43.56.542,MoralCondition_v2,2022.2.5,30.01500451367607,
5,0,5,0,6,0,6,0,,,,,,,,,,,,,,,,,,,,,,,,,,,,,,,,,,,,,,,,,,,,,,,,,,,,,,,318.0441212998703,318.0441212998703,0.007377599366009235,0.0974337998777628,2.0,0.6580635998398066,,,,,,,,,,,,675,Moral,2024-04-15_14h43.56.542,MoralCondition_v2,2022.2.5,30.01500451367607,
5,0,5,0,,,,,,,,,,,,,,,,,,,,,,,,,,,,,,,,,,,,,,,,,,,,,,,,,,,,,,,,,,,,,,,,,318.74427509959787,318.74427509959787,0.0006895000115036964,0.09891510009765625,7.0,2.066182400099933,,,,,,675,Moral,2024-04-15_14h43.56.542,MoralCondition_v2,2022.2.5,30.01500451367607,
6,0,6,0,0,0,0,0,,,,,,,,,,,,,,,,,,,,,,320.8444419996813,0.0003675995394587517,0.09791630040854216,326.84408750012517,6.03117570001632,327.0441771997139,327.0441771997139,0.09298700001090765,0.19802580028772354,6.031140100210905,,333.14425020013005,333.14425020013005,333.14425020013005,0.09300990030169487,0.1980751007795334,338.8440634002909,339.0442253993824,6.031302601099014,6.1311472011730075,345.04400479979813,12.031170800328255,,345.17742490023375,345.17742490023375,0.03129970096051693,0.1310899006202817,up,0.2419507997110486,345.47768019977957,5.0700269639492035e-05,0.09761450067162514,,351.49415299948305,351.49415299948305,0.023862100206315517,0.11386410053819418,5.0,1.4243831997737288,,,,,,,333.0441186996177,333.0441186996177,345.1440573995933,345.1440573995933,,675,Moral,2024-04-15_14h43.56.542,MoralCondition_v2,2022.2.5,30.01500451367607,
6,0,6,0,1,0,1,0,,,,,,,,,,,,,,,,,,,,,,,,,,,,,,,,,,,,,,,,,,,,,,,,,,,,,,,352.96072710026056,352.96072710026056,0.007732700556516647,0.09735739976167679,3.0,1.8573193000629544,,,,,,,,,,,,675,Moral,2024-04-15_14h43.56.542,MoralCondition_v2,2022.2.5,30.01500451367607,
6,0,6,0,2,0,2,0,,,,,,,,,,,,,,,,,,,,,,,,,,,,,,,,,,,,,,,,,,,,,,,,,,,,,,,354.8606707993895,354.8606707993895,0.006278699263930321,0.09916269965469837,5.0,1.3606642000377178,,,,,,,,,,,,675,Moral,2024-04-15_14h43.56.542,MoralCondition_v2,2022.2.5,30.01500451367607,
6,0,6,0,3,0,3,0,,,,,,,,,,,,,,,,,,,,,,,,,,,,,,,,,,,,,,,,,,,,,,,,,,,,,,,356.2608361998573,356.2608361998573,0.0070454999804496765,0.09769370034337044,5.0,1.2583116004243493,,,,,,,,,,,,675,Moral,2024-04-15_14h43.56.542,MoralCondition_v2,2022.2.5,30.01500451367607,
6,0,6,0,4,0,4,0,,,,,,,,,,,,,,,,,,,,,,,,,,,,,,,,,,,,,,,,,,,,,,,,,,,,,,,357.57741149980575,357.57741149980575,0.008546699769794941,0.11467960011214018,5.0,1.1069782003760338,,,,,,,,,,,,675,Moral,2024-04-15_14h43.56.542,MoralCondition_v2,2022.2.5,30.01500451367607,
6,0,6,0,5,0,5,0,,,,,,,,,,,,,,,,,,,,,,,,,,,,,,,,,,,,,,,,,,,,,,,,,,,,,,,358.71075890026987,358.71075890026987,0.0070941997691988945,0.09837970044463873,5.0,1.1589445993304253,,,,,,,,,,,,675,Moral,2024-04-15_14h43.56.542,MoralCondition_v2,2022.2.5,30.01500451367607,
6,0,6,0,6,0,6,0,,,,,,,,,,,,,,,,,,,,,,,,,,,,,,,,,,,,,,,,,,,,,,,,,,,,,,,359.9105209996924,359.9105209996924,0.007701000198721886,0.09763200022280216,5.0,1.9575339006260037,,,,,,,,,,,,675,Moral,2024-04-15_14h43.56.542,MoralCondition_v2,2022.2.5,30.01500451367607,
6,0,6,0,,,,,,,,,,,,,,,,,,,,,,,,,,,,,,,,,,,,,,,,,,,,,,,,,,,,,,,,,,,,,,,,,361.9109042994678,361.9109042994678,0.0015786997973918915,0.09727009944617748,3.0,2.363624299876392,,,,,,675,Moral,2024-04-15_14h43.56.542,MoralCondition_v2,2022.2.5,30.01500451367607,
7,0,7,0,0,0,0,0,,,,,,,,,,,,,,,,,,,,,,364.31088729947805,0.00033670011907815933,0.09764919988811016,370.2938011996448,6.014179199934006,370.49404769949615,370.49404769949615,0.06535959988832474,0.1807736000046134,6.014392600394785,,376.5941615998745,376.5941615998745,376.5941615998745,0.06647380068898201,0.18137590028345585,382.29386239964515,382.4939262000844,6.0143215004354715,6.114268500357866,388.4939254997298,12.014338300563395,,388.62721529975533,388.62721529975533,0.014542700722813606,0.11422490142285824,down,0.3444940000772476,389.0272095995024,3.709923475980759e-05,0.09798219986259937,395.04379300028086,395.04379300028086,395.04379300028086,0.007349099963903427,0.11475259996950626,6.0,6.508231700398028,,,,,,,376.49430039990693,376.49430039990693,388.59387429989874,388.59387429989874,6.097674599848688,675,Moral,2024-04-15_14h43.56.542,MoralCondition_v2,2022.2.5,30.01500451367607,
7,0,7,0,1,0,1,0,,,,,,,,,,,,,,,,,,,,,,,,,,,,,,,,,,,,,,,,,,,,,,,,,,,,,,,401.57728829979897,401.57728829979897,0.007526400499045849,0.0976061001420021,6.0,1.7244544001296163,,,,,,,,,,,,675,Moral,2024-04-15_14h43.56.542,MoralCondition_v2,2022.2.5,30.01500451367607,
7,0,7,0,2,0,2,0,,,,,,,,,,,,,,,,,,,,,,,,,,,,,,,,,,,,,,,,,,,,,,,,,,,,,,,403.3439774001017,403.3439774001017,0.006526699289679527,0.09931810013949871,5.0,1.8938630996271968,,,,,,,,,,,,675,Moral,2024-04-15_14h43.56.542,MoralCondition_v2,2022.2.5,30.01500451367607,
7,0,7,0,3,0,3,0,,,,,,,,,,,,,,,,,,,,,,,,,,,,,,,,,,,,,,,,,,,,,,,,,,,,,,,405.2770734000951,405.2770734000951,0.006733499467372894,0.09845659974962473,2.0,2.092855400405824,,,,,,,,,,,,675,Moral,2024-04-15_14h43.56.542,MoralCondition_v2,2022.2.5,30.01500451367607,
7,0,7,0,4,0,4,0,,,,,,,,,,,,,,,,,,,,,,,,,,,,,,,,,,,,,,,,,,,,,,,,,,,,,,,407.41040049958974,407.41040049958974,0.0063113002106547356,0.09922510012984276,5.0,2.1271591996774077,,,,,,,,,,,,675,Moral,2024-04-15_14h43.56.542,MoralCondition_v2,2022.2.5,30.01500451367607,
7,0,7,0,5,0,5,0,,,,,,,,,,,,,,,,,,,,,,,,,,,,,,,,,,,,,,,,,,,,,,,,,,,,,,,409.5772845996544,409.5772845996544,0.00753020029515028,0.09849440027028322,5.0,0.6251373002305627,,,,,,,,,,,,675,Moral,2024-04-15_14h43.56.542,MoralCondition_v2,2022.2.5,30.01500451367607,
7,0,7,0,6,0,6,0,,,,,,,,,,,,,,,,,,,,,,,,,,,,,,,,,,,,,,,,,,,,,,,,,,,,,,,410.2437888998538,410.2437888998538,0.00747309997677803,0.09758029971271753,5.0,0.8244507005438209,,,,,,,,,,,,675,Moral,2024-04-15_14h43.56.542,MoralCondition_v2,2022.2.5,30.01500451367607,
7,0,7,0,,,,,,,,,,,,,,,,,,,,,,,,,,,,,,,,,,,,,,,,,,,,,,,,,,,,,,,,,,,,,,,,,411.1106078000739,411.1106078000739,0.0012574996799230576,0.0979469995945692,2.0,2.364478100091219,,,,,,675,Moral,2024-04-15_14h43.56.542,MoralCondition_v2,2022.2.5,30.01500451367607,
8,0,8,0,0,0,0,0,,,,,,,,,,,,,,,,,,,,,,413.5107840001583,0.00034429971128702164,0.09775410033762455,419.51025559939444,6.014487800188363,419.69369099941105,419.69369099941105,0.07147080078721046,0.18120610062032938,6.014523000456393,,425.776934299618,425.776934299618,425.776934299618,0.06395520083606243,0.16441700048744678,431.4770778995007,431.7104030996561,6.0310941003263,6.131284601055086,437.7104802997783,12.031165000982583,,437.8438264001161,437.8438264001161,0.03116840124130249,0.13100340124219656,down,1.2481263000518084,439.127011699602,4.260055720806122e-05,0.09787300042808056,445.1273894002661,445.1273894002661,445.1273894002661,0.008676700294017792,0.0975339999422431,5.0,2.6566933998838067,,,,,,,425.69375079963356,425.69375079963356,437.77702589984983,437.77702589984983,6.097587700001895,675,Moral,2024-04-15_14h43.56.542,MoralCondition_v2,2022.2.5,30.01500451367607,
8,0,8,0,1,0,1,0,,,,,,,,,,,,,,,,,,,,,,,,,,,,,,,,,,,,,,,,,,,,,,,,,,,,,,,447.8274751994759,447.8274751994759,0.008017400279641151,0.09709279984235764,2.0,1.2567261001095176,,,,,,,,,,,,675,Moral,2024-04-15_14h43.56.542,MoralCondition_v2,2022.2.5,30.01500451367607,
8,0,8,0,2,0,2,0,,,,,,,,,,,,,,,,,,,,,,,,,,,,,,,,,,,,,,,,,,,,,,,,,,,,,,,449.1268266001716,449.1268266001716,0.007448699325323105,0.09758969955146313,5.0,6.624459099955857,,,,,,,,,,,,675,Moral,2024-04-15_14h43.56.542,MoralCondition_v2,2022.2.5,30.01500451367607,
8,0,8,0,3,0,3,0,,,,,,,,,,,,,,,,,,,,,,,,,,,,,,,,,,,,,,,,,,,,,,,,,,,,,,,455.7937401002273,455.7937401002273,0.007367799989879131,0.09755290020257235,5.0,0.7244996000081301,,,,,,,,,,,,675,Moral,2024-04-15_14h43.56.542,MoralCondition_v2,2022.2.5,30.01500451367607,
8,0,8,0,4,0,4,0,,,,,,,,,,,,,,,,,,,,,,,,,,,,,,,,,,,,,,,,,,,,,,,,,,,,,,,456.5601140996441,456.5601140996441,0.007005400024354458,0.0984169002622366,5.0,0.6587907997891307,,,,,,,,,,,,675,Moral,2024-04-15_14h43.56.542,MoralCondition_v2,2022.2.5,30.01500451367607,
8,0,8,0,5,0,5,0,,,,,,,,,,,,,,,,,,,,,,,,,,,,,,,,,,,,,,,,,,,,,,,,,,,,,,,457.2603313997388,457.2603313997388,0.007388600148260593,0.09792890027165413,5.0,0.7581930002197623,,,,,,,,,,,,675,Moral,2024-04-15_14h43.56.542,MoralCondition_v2,2022.2.5,30.01500451367607,
8,0,8,0,6,0,6,0,,,,,,,,,,,,,,,,,,,,,,,,,,,,,,,,,,,,,,,,,,,,,,,,,,,,,,,458.0769274001941,458.0769274001941,0.008548700250685215,0.11393079999834299,5.0,0.6400924008339643,,,,,,,,,,,,675,Moral,2024-04-15_14h43.56.542,MoralCondition_v2,2022.2.5,30.01500451367607,
8,0,8,0,,,,,,,,,,,,,,,,,,,,,,,,,,,,,,,,,,,,,,,,,,,,,,,,,,,,,,,,,,,,,,,,,458.74370499979705,458.74370499979705,0.0017590997740626335,0.09819039981812239,2.0,2.0970336999744177,,,,,,675,Moral,2024-04-15_14h43.56.542,MoralCondition_v2,2022.2.5,30.01500451367607,
9,0,9,0,0,0,0,0,,,,,,,,,,,,,,,,,,,,,,460.87714179977775,0.0003266995772719383,0.09783319942653179,466.87666870001704,6.014073699712753,467.0433890996501,467.0433890996501,0.054798499681055546,0.1640777001157403,6.030923300422728,,473.1436721999198,473.1436721999198,473.1436721999198,0.06499440036714077,0.16453890036791563,478.8435484999791,479.0768269998953,6.0309102004393935,6.13107500039041,485.076869700104,12.030928200110793,,485.19348500017077,485.19348500017077,0.014164701104164124,0.11429820116609335,up,0.32982899993658066,485.5768045000732,2.4699606001377106e-05,0.09875509981065989,,491.59330980014056,491.59330980014056,0.023943699896335602,0.11546919960528612,5.0,1.9259560005739331,,,,,,,473.0434556994587,473.0434556994587,485.14355830010027,485.14355830010027,6.097339299507439,675,Moral,2024-04-15_14h43.56.542,MoralCondition_v2,2022.2.5,30.01500451367607,
9,0,9,0,1,0,1,0,,,,,,,,,,,,,,,,,,,,,,,,,,,,,,,,,,,,,,,,,,,,,,,,,,,,,,,493.5768742002547,493.5768742002547,0.01006960030645132,0.11578890029340982,6.0,1.6732997000217438,,,,,,,,,,,,675,Moral,2024-04-15_14h43.56.542,MoralCondition_v2,2022.2.5,30.01500451367607,
9,0,9,0,2,0,2,0,,,,,,,,,,,,,,,,,,,,,,,,,,,,,,,,,,,,,,,,,,,,,,,,,,,,,,,495.2768377000466,495.2768377000466,0.007331300526857376,0.09824009984731674,6.0,1.5923854000866413,,,,,,,,,,,,675,Moral,2024-04-15_14h43.56.542,MoralCondition_v2,2022.2.5,30.01500451367607,
9,0,9,0,3,0,3,0,,,,,,,,,,,,,,,,,,,,,,,,,,,,,,,,,,,,,,,,,,,,,,,,,,,,,,,496.91030029952526,496.91030029952526,0.0062293000519275665,0.09915809985250235,6.0,0.7271714992821217,,,,,,,,,,,,675,Moral,2024-04-15_14h43.56.542,MoralCondition_v2,2022.2.5,30.01500451367607,
9,0,9,0,4,0,4,0,,,,,,,,,,,,,,,,,,,,,,,,,,,,,,,,,,,,,,,,,,,,,,,,,,,,,,,497.6935951001942,497.6935951001942,0.008990500122308731,0.11417439952492714,6.0,0.7393566993996501,,,,,,,,,,,,675,Moral,2024-04-15_14h43.56.542,MoralCondition_v2,2022.2.5,30.01500451367607,
9,0,9,0,5,0,5,0,,,,,,,,,,,,,,,,,,,,,,,,,,,,,,,,,,,,,,,,,,,,,,,,,,,,,,,498.4601146997884,498.4601146997884,0.007519499398767948,0.09787589963525534,6.0,0.5246512992307544,,,,,,,,,,,,675,Moral,2024-04-15_14h43.56.542,MoralCondition_v2,2022.2.5,30.01500451367607,
9,0,9,0,6,0,6,0,,,,,,,,,,,,,,,,,,,,,,,,,,,,,,,,,,,,,,,,,,,,,,,,,,,,,,,499.02692899946123,499.02692899946123,0.00756980013102293,0.0975152999162674,2.0,1.0910578994080424,,,,,,,,,,,,675,Moral,2024-04-15_14h43.56.542,MoralCondition_v2,2022.2.5,30.01500451367607,
9,0,9,0,,,,,,,,,,,,,,,,,,,,,,,,,,,,,,,,,,,,,,,,,,,,,,,,,,,,,,,,,,,,,,,,,500.1602285001427,500.1602285001427,0.0013381000608205795,0.09739310014992952,2.0,2.8638428999111056,,,,,,675,Moral,2024-04-15_14h43.56.542,MoralCondition_v2,2022.2.5,30.01500451367607,
10,0,10,0,0,0,0,0,,,,,,,,,,,,,,,,,,,,,,503.06043929979205,0.000278400257229805,0.09775399975478649,509.0601126998663,6.031189199537039,509.2433274993673,509.2433274993673,0.0691885007545352,0.1810988001525402,6.014702199958265,,515.3434913996607,515.3434913996607,515.3434913996607,0.07107220031321049,0.18136340100318193,521.04328610003,521.24334549997,6.014419700950384,6.114500600844622,527.2433479996398,12.014422500506043,,527.376900699921,527.376900699921,0.014407001435756683,0.11447200085967779,up,0.49132470041513443,527.9102735994384,5.13000413775444e-05,0.09751759935170412,,533.9264663998038,533.9264663998038,0.019991199485957623,0.11426940001547337,4.0,2.928558800369501,,,,,,,515.2433639997616,515.2433639997616,527.3264453997836,527.3264453997836,,675,Moral,2024-04-15_14h43.56.542,MoralCondition_v2,2022.2.5,30.01500451367607,
10,0,10,0,1,0,1,0,,,,,,,,,,,,,,,,,,,,,,,,,,,,,,,,,,,,,,,,,,,,,,,,,,,,,,,536.8932547001168,536.8932547001168,0.0070131998509168625,0.09927219990640879,4.0,1.3263436993584037,,,,,,,,,,,,675,Moral,2024-04-15_14h43.56.542,MoralCondition_v2,2022.2.5,30.01500451367607,
10,0,10,0,2,0,2,0,,,,,,,,,,,,,,,,,,,,,,,,,,,,,,,,,,,,,,,,,,,,,,,,,,,,,,,538.2598743997514,538.2598743997514,0.007455199956893921,0.09941039979457855,4.0,0.6931844996288419,,,,,,,,,,,,675,Moral,2024-04-15_14h43.56.542,MoralCondition_v2,2022.2.5,30.01500451367607,
10,0,10,0,3,0,3,0,,,,,,,,,,,,,,,,,,,,,,,,,,,,,,,,,,,,,,,,,,,,,,,,,,,,,,,538.9933345997706,538.9933345997706,0.007575199939310551,0.09759190026670694,4.0,0.4910923996940255,,,,,,,,,,,,675,Moral,2024-04-15_14h43.56.542,MoralCondition_v2,2022.2.5,30.01500451367607,
10,0,10,0,4,0,4,0,,,,,,,,,,,,,,,,,,,,,,,,,,,,,,,,,,,,,,,,,,,,,,,,,,,,,,,539.5266706002876,539.5266706002876,0.007524499669671059,0.09782029967755079,4.0,0.6581383002921939,,,,,,,,,,,,675,Moral,2024-04-15_14h43.56.542,MoralCondition_v2,2022.2.5,30.01500451367607,
10,0,10,0,5,0,5,0,,,,,,,,,,,,,,,,,,,,,,,,,,,,,,,,,,,,,,,,,,,,,,,,,,,,,,,540.2265941994265,540.2265941994265,0.0064350999891757965,0.09930859971791506,4.0,0.5937259998172522,,,,,,,,,,,,675,Moral,2024-04-15_14h43.56.542,MoralCondition_v2,2022.2.5,30.01500451367607,
10,0,10,0,6,0,6,0,,,,,,,,,,,,,,,,,,,,,,,,,,,,,,,,,,,,,,,,,,,,,,,,,,,,,,,540.8602980002761,540.8602980002761,0.007191100157797337,0.09845730010420084,4.0,0.692259999923408,,,,,,,,,,,,675,Moral,2024-04-15_14h43.56.542,MoralCondition_v2,2022.2.5,30.01500451367607,
10,0,10,0,,,,,,,,,,,,,,,,,,,,,,,,,,,,,,,,,,,,,,,,,,,,,,,,,,,,,,,,,,,,,,,,,541.5935295000672,541.5935295000672,0.0010941997170448303,0.09863850008696318,3.0,2.598427100107074,,,,,,675,Moral,2024-04-15_14h43.56.542,MoralCondition_v2,2022.2.5,30.01500451367607,
11,0,11,0,0,0,0,0,,,,,,,,,,,,,,,,,,,,,,544.2265731999651,0.0003247000277042389,0.09669709950685501,550.2432257998735,6.013215799815953,550.4100788999349,550.4100788999349,0.06871070060878992,0.18024959973990917,6.013195199891925,,556.5101466998458,556.5101466998458,556.5101466998458,0.06859540101140738,0.18009600043296814,562.2100481996313,562.4099528994411,6.013354700990021,6.113163900561631,568.4097940996289,12.01319340057671,,568.5431345999241,568.5431345999241,0.013308901339769363,0.11313580069690943,up,0.3885530000552535,568.9764622999355,4.350021481513977e-05,0.09789490047842264,,575.0097666997463,575.0097666997463,0.027020100504159927,0.13126630056649446,2.0,2.0386648001149297,,,,,,,556.4098396999761,556.4098396999761,568.5097728995606,568.5097728995606,,675,Moral,2024-04-15_14h43.56.542,MoralCondition_v2,2022.2.5,30.01500451367607,
11,0,11,0,1,0,1,0,,,,,,,,,,,,,,,,,,,,,,,,,,,,,,,,,,,,,,,,,,,,,,,,,,,,,,,577.0930375996977,577.0930375996977,0.01109859999269247,0.11461410019546747,2.0,0.6044103996828198,,,,,,,,,,,,675,Moral,2024-04-15_14h43.56.542,MoralCondition_v2,2022.2.5,30.01500451367607,
11,0,11,0,2,0,2,0,,,,,,,,,,,,,,,,,,,,,,,,,,,,,,,,,,,,,,,,,,,,,,,,,,,,,,,577.7265820996836,577.7265820996836,0.00666350033134222,0.09929130040109158,2.0,0.5933817997574806,,,,,,,,,,,,675,Moral,2024-04-15_14h43.56.542,MoralCondition_v2,2022.2.5,30.01500451367607,
11,0,11,0,3,0,3,0,,,,,,,,,,,,,,,,,,,,,,,,,,,,,,,,,,,,,,,,,,,,,,,,,,,,,,,578.3766419002786,578.3766419002786,0.008303700014948845,0.11410750076174736,2.0,0.5402704002335668,,,,,,,,,,,,675,Moral,2024-04-15_14h43.56.542,MoralCondition_v2,2022.2.5,30.01500451367607,
11,0,11,0,4,0,4,0,,,,,,,,,,,,,,,,,,,,,,,,,,,,,,,,,,,,,,,,,,,,,,,,,,,,,,,578.9431026997045,578.9431026997045,0.007324699312448502,0.09809920005500317,2.0,0.5915513997897506,,,,,,,,,,,,675,Moral,2024-04-15_14h43.56.542,MoralCondition_v2,2022.2.5,30.01500451367607,
11,0,11,0,5,0,5,0,,,,,,,,,,,,,,,,,,,,,,,,,,,,,,,,,,,,,,,,,,,,,,,,,,,,,,,579.5761982994154,579.5761982994154,0.007973700761795044,0.09778750035911798,2.0,0.5907671004533768,,,,,,,,,,,,675,Moral,2024-04-15_14h43.56.542,MoralCondition_v2,2022.2.5,30.01500451367607,
11,0,11,0,6,0,6,0,,,,,,,,,,,,,,,,,,,,,,,,,,,,,,,,,,,,,,,,,,,,,,,,,,,,,,,580.2097969995812,580.2097969995812,0.0074723996222019196,0.09765559993684292,5.0,1.7247486002743244,,,,,,,,,,,,675,Moral,2024-04-15_14h43.56.542,MoralCondition_v2,2022.2.5,30.01500451367607,
11,0,11,0,,,,,,,,,,,,,,,,,,,,,,,,,,,,,,,,,,,,,,,,,,,,,,,,,,,,,,,,,,,,,,,,,581.9765275996178,581.9765275996178,0.0012472998350858688,0.0980920996516943,7.0,2.3313003992661834,,,,,,675,Moral,2024-04-15_14h43.56.542,MoralCondition_v2,2022.2.5,30.01500451367607,
12,0,12,0,0,0,0,0,,,,,,,,,,,,,,,,,,,,,,584.3432751996443,0.0003108000382781029,0.09770660009235144,590.359799399972,6.01438770070672,590.5263944994658,590.5263944994658,0.07024750113487244,0.1810696003958583,6.014348100870848,,596.6098464997485,596.6098464997485,596.6098464997485,0.06223210133612156,0.1645319014787674,602.3096604999155,602.5429654000327,6.031005101278424,6.131004401482642,608.5429336996749,12.030974801629782,,608.676366600208,608.676366600208,0.03111410140991211,0.13107010163366795,up,1.015106400474906,609.7430181000382,4.659965634346008e-05,0.09804559964686632,615.7430739998817,615.7430739998817,615.7430739998817,0.010060999542474747,0.09791290014982224,5.0,2.022474500350654,,,,,,,596.5263253999874,596.5263253999874,608.609743299894,608.609743299894,,675,Moral,2024-04-15_14h43.56.542,MoralCondition_v2,2022.2.5,30.01500451367607,
12,0,12,0,1,0,1,0,,,,,,,,,,,,,,,,,,,,,,,,,,,,,,,,,,,,,,,,,,,,,,,,,,,,,,,617.8095661997795,617.8095661997795,0.006214199587702751,0.09900140017271042,2.0,1.8271885998547077,,,,,,,,,,,,675,Moral,2024-04-15_14h43.56.542,MoralCondition_v2,2022.2.5,30.01500451367607,
12,0,12,0,2,0,2,0,,,,,,,,,,,,,,,,,,,,,,,,,,,,,,,,,,,,,,,,,,,,,,,,,,,,,,,619.676326399669,619.676326399669,0.006411599926650524,0.09917580056935549,2.0,0.5271501000970602,,,,,,,,,,,,675,Moral,2024-04-15_14h43.56.542,MoralCondition_v2,2022.2.5,30.01500451367607,
12,0,12,0,3,0,3,0,,,,,,,,,,,,,,,,,,,,,,,,,,,,,,,,,,,,,,,,,,,,,,,,,,,,,,,620.2428810996935,620.2428810996935,0.0064232004806399345,0.09899280034005642,2.0,0.4940269999206066,,,,,,,,,,,,675,Moral,2024-04-15_14h43.56.542,MoralCondition_v2,2022.2.5,30.01500451367607,
12,0,12,0,4,0,4,0,,,,,,,,,,,,,,,,,,,,,,,,,,,,,,,,,,,,,,,,,,,,,,,,,,,,,,,620.7763762995601,620.7763762995601,0.007520000450313091,0.09762530028820038,2.0,0.558076299726963,,,,,,,,,,,,675,Moral,2024-04-15_14h43.56.542,MoralCondition_v2,2022.2.5,30.01500451367607,
12,0,12,0,5,0,5,0,,,,,,,,,,,,,,,,,,,,,,,,,,,,,,,,,,,,,,,,,,,,,,,,,,,,,,,621.3930898001418,621.3930898001418,0.010712699964642525,0.1146534001454711,2.0,0.9051874000579119,,,,,,,,,,,,675,Moral,2024-04-15_14h43.56.542,MoralCondition_v2,2022.2.5,30.01500451367607,
12,0,12,0,6,0,6,0,,,,,,,,,,,,,,,,,,,,,,,,,,,,,,,,,,,,,,,,,,,,,,,,,,,,,,,622.3263614997268,622.3263614997268,0.007332100532948971,0.09829390048980713,2.0,0.9586602002382278,,,,,,,,,,,,675,Moral,2024-04-15_14h43.56.542,MoralCondition_v2,2022.2.5,30.01500451367607,
12,0,12,0,,,,,,,,,,,,,,,,,,,,,,,,,,,,,,,,,,,,,,,,,,,,,,,,,,,,,,,,,,,,,,,,,623.3264298001304,623.3264298001304,0.0014182999730110168,0.09754969924688339,7.0,2.330764999613166,,,,,,675,Moral,2024-04-15_14h43.56.542,MoralCondition_v2,2022.2.5,30.01500451367607,
13,0,13,0,0,0,0,0,,,,,,,,,,,,,,,,,,,,,,625.693089899607,0.0003334004431962967,0.09733389969915152,631.7096659997478,6.013993600383401,631.876125799492,631.876125799492,0.06833280064165592,0.18071480095386505,6.01404230017215,,637.9594470001757,637.9594470001757,637.9594470001757,0.06482430081814528,0.1641096007078886,643.6594560993835,643.8927699001506,6.030572600662708,6.130755701102316,649.8926735995337,12.030468900687993,,650.0261111995205,650.0261111995205,0.030652201734483242,0.13056040089577436,up,1.0813204003497958,651.1425498994067,1.2200325727462769e-05,0.09975630044937134,657.1428592996672,657.1428592996672,657.1428592996672,0.01637780014425516,0.11610710062086582,2.0,3.290401400066912,,,,,,,637.876141499728,637.876141499728,649.9594048997387,649.9594048997387,,675,Moral,2024-04-15_14h43.56.542,MoralCondition_v2,2022.2.5,30.01500451367607,
13,0,13,0,1,0,1,0,,,,,,,,,,,,,,,,,,,,,,,,,,,,,,,,,,,,,,,,,,,,,,,,,,,,,,,660.4762910995632,660.4762910995632,0.007525799795985222,0.0974891996011138,2.0,0.5577143998816609,,,,,,,,,,,,675,Moral,2024-04-15_14h43.56.542,MoralCondition_v2,2022.2.5,30.01500451367607,
13,0,13,0,2,0,2,0,,,,,,,,,,,,,,,,,,,,,,,,,,,,,,,,,,,,,,,,,,,,,,,,,,,,,,,661.0927101001143,661.0927101001143,0.007443500682711601,0.11406789999455214,2.0,0.5409134002402425,,,,,,,,,,,,675,Moral,2024-04-15_14h43.56.542,MoralCondition_v2,2022.2.5,30.01500451367607,
13,0,13,0,3,0,3,0,,,,,,,,,,,,,,,,,,,,,,,,,,,,,,,,,,,,,,,,,,,,,,,,,,,,,,,661.6594126001,661.6594126001,0.007316499948501587,0.09770200029015541,2.0,0.6911236997693777,,,,,,,,,,,,675,Moral,2024-04-15_14h43.56.542,MoralCondition_v2,2022.2.5,30.01500451367607,
13,0,13,0,4,0,4,0,,,,,,,,,,,,,,,,,,,,,,,,,,,,,,,,,,,,,,,,,,,,,,,,,,,,,,,662.3926365999505,662.3926365999505,0.0064756004139781,0.09906760044395924,2.0,0.6601948002353311,,,,,,,,,,,,675,Moral,2024-04-15_14h43.56.542,MoralCondition_v2,2022.2.5,30.01500451367607,
13,0,13,0,5,0,5,0,,,,,,,,,,,,,,,,,,,,,,,,,,,,,,,,,,,,,,,,,,,,,,,,,,,,,,,663.1096358997747,663.1096358997747,0.007095900364220142,0.11396680027246475,5.0,1.641201900318265,,,,,,,,,,,,675,Moral,2024-04-15_14h43.56.542,MoralCondition_v2,2022.2.5,30.01500451367607,
13,0,13,0,6,0,6,0,,,,,,,,,,,,,,,,,,,,,,,,,,,,,,,,,,,,,,,,,,,,,,,,,,,,,,,664.7758607994765,664.7758607994765,0.006785900332033634,0.09801500011235476,2.0,1.1257041990756989,,,,,,,,,,,,675,Moral,2024-04-15_14h43.56.542,MoralCondition_v2,2022.2.5,30.01500451367607,
13,0,13,0,,,,,,,,,,,,,,,,,,,,,,,,,,,,,,,,,,,,,,,,,,,,,,,,,,,,,,,,,,,,,,,,,665.9426961997524,665.9426961997524,0.0014100000262260437,0.09798390045762062,7.0,1.531114200130105,,,,,,675,Moral,2024-04-15_14h43.56.542,MoralCondition_v2,2022.2.5,30.01500451367607,
14,0,14,0,0,0,0,0,,,,,,,,,,,,,,,,,,,,,,667.5096260001883,0.0003434000536799431,0.09751079976558685,673.5260274996981,6.013943400233984,673.6925337994471,673.6925337994471,0.07017000019550323,0.18059740029275417,6.0139268999919295,,679.7926161000505,679.7926161000505,679.7926161000505,0.06828170083463192,0.18072970025241375,685.4926642002538,685.6926163993776,6.0139519004151225,6.113853200338781,691.6925860997289,12.013899700716138,,691.8260297002271,691.8260297002271,0.014020301401615143,0.11381810065358877,down,0.8892293004319072,692.7592460000888,4.1999854147434235e-05,0.09772450011223555,698.7760359002277,698.7760359002277,698.7760359002277,0.00842989981174469,0.11448029987514019,5.0,3.1076047997921705,,,,,,,679.6927113998681,679.6927113998681,691.7925565997139,691.7925565997139,,675,Moral,2024-04-15_14h43.56.542,MoralCondition_v2,2022.2.5,30.01500451367607,
14,0,14,0,1,0,1,0,,,,,,,,,,,,,,,,,,,,,,,,,,,,,,,,,,,,,,,,,,,,,,,,,,,,,,,701.9089589994401,701.9089589994401,0.010354300029575825,0.09919500071555376,5.0,0.5899419002234936,,,,,,,,,,,,675,Moral,2024-04-15_14h43.56.542,MoralCondition_v2,2022.2.5,30.01500451367607,
14,0,14,0,2,0,2,0,,,,,,,,,,,,,,,,,,,,,,,,,,,,,,,,,,,,,,,,,,,,,,,,,,,,,,,702.5426222002134,702.5426222002134,0.009080699644982815,0.09796409960836172,5.0,0.5566145004704595,,,,,,,,,,,,675,Moral,2024-04-15_14h43.56.542,MoralCondition_v2,2022.2.5,30.01500451367607,
14,0,14,0,3,0,3,0,,,,,,,,,,,,,,,,,,,,,,,,,,,,,,,,,,,,,,,,,,,,,,,,,,,,,,,703.1425633998588,703.1425633998588,0.008363300003111362,0.09753560088574886,2.0,1.2568409005180001,,,,,,,,,,,,675,Moral,2024-04-15_14h43.56.542,MoralCondition_v2,2022.2.5,30.01500451367607,
14,0,14,0,4,0,4,0,,,,,,,,,,,,,,,,,,,,,,,,,,,,,,,,,,,,,,,,,,,,,,,,,,,,,,,704.4426616001874,704.4426616001874,0.007492600008845329,0.09785149991512299,5.0,1.1247261995449662,,,,,,,,,,,,675,Moral,2024-04-15_14h43.56.542,MoralCondition_v2,2022.2.5,30.01500451367607,
14,0,14,0,5,0,5,0,,,,,,,,,,,,,,,,,,,,,,,,,,,,,,,,,,,,,,,,,,,,,,,,,,,,,,,705.6089963996783,705.6089963996783,0.006520699709653854,0.09925550036132336,5.0,0.7936346996575594,,,,,,,,,,,,675,Moral,2024-04-15_14h43.56.542,MoralCondition_v2,2022.2.5,30.01500451367607,
14,0,14,0,6,0,6,0,,,,,,,,,,,,,,,,,,,,,,,,,,,,,,,,,,,,,,,,,,,,,,,,,,,,,,,706.4595157997683,706.4595157997683,0.00797369983047247,0.11472429987043142,5.0,0.6743435999378562,,,,,,,,,,,,675,Moral,2024-04-15_14h43.56.542,MoralCondition_v2,2022.2.5,30.01500451367607,
14,0,14,0,,,,,,,,,,,,,,,,,,,,,,,,,,,,,,,,,,,,,,,,,,,,,,,,,,,,,,,,,,,,,,,,,707.1592026995495,707.1592026995495,0.001931699924170971,0.09776579961180687,1.0,3.063408300280571,,,,,,675,Moral,2024-04-15_14h43.56.542,MoralCondition_v2,2022.2.5,30.01500451367607,
15,0,15,0,0,0,0,0,,,,,,,,,,,,,,,,,,,,,,710.2594405002892,0.0002194000408053398,0.0980476001277566,716.2757649002597,6.01464750058949,716.4427001001313,716.4427001001313,0.06831180024892092,0.18194330018013716,6.0146356001496315,,722.5423818994313,722.5423818994313,722.5423818994313,0.07107160054147243,0.1813479010015726,728.242390899919,728.4424133999273,6.0147075010463595,6.114628600887954,734.4425980001688,12.014850300736725,,734.5756960995495,734.5756960995495,0.014765501022338867,0.11462880112230778,up,0.40351410023868084,735.0423758998513,3.8499943912029266e-05,0.09799979999661446,,741.0757241994143,741.0757241994143,0.02516769990324974,0.13143419940024614,5.0,1.640625599771738,,,,,,,722.4424018999562,722.4424018999562,734.5423515997827,734.5423515997827,,675,Moral,2024-04-15_14h43.56.542,MoralCondition_v2,2022.2.5,30.01500451367607,
15,0,15,0,1,0,1,0,,,,,,,,,,,,,,,,,,,,,,,,,,,,,,,,,,,,,,,,,,,,,,,,,,,,,,,742.7422767998651,742.7422767998651,0.007342400029301643,0.09737339988350868,2.0,1.257798700593412,,,,,,,,,,,,675,Moral,2024-04-15_14h43.56.542,MoralCondition_v2,2022.2.5,30.01500451367607,
15,0,15,0,2,0,2,0,,,,,,,,,,,,,,,,,,,,,,,,,,,,,,,,,,,,,,,,,,,,,,,,,,,,,,,744.0423595998436,744.0423595998436,0.0066509004682302475,0.09808280039578676,2.0,0.4258909998461604,,,,,,,,,,,,675,Moral,2024-04-15_14h43.56.542,MoralCondition_v2,2022.2.5,30.01500451367607,
15,0,15,0,3,0,3,0,,,,,,,,,,,,,,,,,,,,,,,,,,,,,,,,,,,,,,,,,,,,,,,,,,,,,,,744.5089732995257,744.5089732995257,0.006794599816203117,0.09934519976377487,2.0,0.5600750995799899,,,,,,,,,,,,675,Moral,2024-04-15_14h43.56.542,MoralCondition_v2,2022.2.5,30.01500451367607,
15,0,15,0,4,0,4,0,,,,,,,,,,,,,,,,,,,,,,,,,,,,,,,,,,,,,,,,,,,,,,,,,,,,,,,745.109229600057,745.109229600057,0.007026500068604946,0.09743850026279688,2.0,0.5580233000218868,,,,,,,,,,,,675,Moral,2024-04-15_14h43.56.542,MoralCondition_v2,2022.2.5,30.01500451367607,
15,0,15,0,5,0,5,0,,,,,,,,,,,,,,,,,,,,,,,,,,,,,,,,,,,,,,,,,,,,,,,,,,,,,,,745.7091784998775,745.7091784998775,0.006716500036418438,0.09903830010443926,2.0,0.5601289998739958,,,,,,,,,,,,675,Moral,2024-04-15_14h43.56.542,MoralCondition_v2,2022.2.5,30.01500451367607,
15,0,15,0,6,0,6,0,,,,,,,,,,,,,,,,,,,,,,,,,,,,,,,,,,,,,,,,,,,,,,,,,,,,,,,746.3092398000881,746.3092398000881,0.008394199423491955,0.09927849937230349,2.0,0.5255668004974723,,,,,,,,,,,,675,Moral,2024-04-15_14h43.56.542,MoralCondition_v2,2022.2.5,30.01500451367607,
15,0,15,0,,,,,,,,,,,,,,,,,,,,,,,,,,,,,,,,,,,,,,,,,,,,,,,,,,,,,,,,,,,,,,,,,746.8756034001708,746.8756034001708,0.0014484003186225891,0.09759620018303394,7.0,3.297472500242293,,,,,,675,Moral,2024-04-15_14h43.56.542,MoralCondition_v2,2022.2.5,30.01500451367607,
16,0,16,0,0,0,0,0,,,,,,,,,,,,,,,,,,,,,,750.2090833000839,0.0001125996932387352,0.09926589950919151,756.2256840001792,6.015789999626577,756.3923090994358,756.3923090994358,0.06998809985816479,0.18276750016957521,6.015833900310099,,762.4921912001446,762.4921912001446,762.4921912001446,0.068987300619483,0.1825132006779313,768.1922506997362,768.3923554997891,6.01590400096029,6.11594430077821,774.3922001002356,12.015761000104249,,774.5255629001185,774.5255629001185,0.016117000952363014,0.11567420046776533,up,0.46168419998139143,775.0255106994882,4.009995609521866e-05,0.09779140073806047,,781.0420988993719,781.0420988993719,0.022640900686383247,0.11462430004030466,2.0,2.326019300147891,,,,,,,762.3924046996981,762.3924046996981,774.4924261998385,774.4924261998385,,675,Moral,2024-04-15_14h43.56.542,MoralCondition_v2,2022.2.5,30.01500451367607,
16,0,16,0,1,0,1,0,,,,,,,,,,,,,,,,,,,,,,,,,,,,,,,,,,,,,,,,,,,,,,,,,,,,,,,783.425802799873,783.425802799873,0.007933800108730793,0.11416399944573641,2.0,0.5073340004310012,,,,,,,,,,,,675,Moral,2024-04-15_14h43.56.542,MoralCondition_v2,2022.2.5,30.01500451367607,
16,0,16,0,2,0,2,0,,,,,,,,,,,,,,,,,,,,,,,,,,,,,,,,,,,,,,,,,,,,,,,,,,,,,,,783.975687299855,783.975687299855,0.007839099504053593,0.11416189931333065,2.0,0.4406398003920913,,,,,,,,,,,,675,Moral,2024-04-15_14h43.56.542,MoralCondition_v2,2022.2.5,30.01500451367607,
16,0,16,0,3,0,3,0,,,,,,,,,,,,,,,,,,,,,,,,,,,,,,,,,,,,,,,,,,,,,,,,,,,,,,,784.4422889994457,784.4422889994457,0.00916100014001131,0.09724980033934116,2.0,1.7890723999589682,,,,,,,,,,,,675,Moral,2024-04-15_14h43.56.542,MoralCondition_v2,2022.2.5,30.01500451367607,
16,0,16,0,4,0,4,0,,,,,,,,,,,,,,,,,,,,,,,,,,,,,,,,,,,,,,,,,,,,,,,,,,,,,,,786.2755899000913,786.2755899000913,0.008419300429522991,0.0980542004108429,2.0,0.5241516996175051,,,,,,,,,,,,675,Moral,2024-04-15_14h43.56.542,MoralCondition_v2,2022.2.5,30.01500451367607,
16,0,16,0,5,0,5,0,,,,,,,,,,,,,,,,,,,,,,,,,,,,,,,,,,,,,,,,,,,,,,,,,,,,,,,786.841969399713,786.841969399713,0.006993499584496021,0.09889299981296062,2.0,0.4929094994440675,,,,,,,,,,,,675,Moral,2024-04-15_14h43.56.542,MoralCondition_v2,2022.2.5,30.01500451367607,
16,0,16,0,6,0,6,0,,,,,,,,,,,,,,,,,,,,,,,,,,,,,,,,,,,,,,,,,,,,,,,,,,,,,,,787.3924147998914,787.3924147998914,0.0077507998794317245,0.11457440070807934,2.0,0.5744705991819501,,,,,,,,,,,,675,Moral,2024-04-15_14h43.56.542,MoralCondition_v2,2022.2.5,30.01500451367607,
16,0,16,0,,,,,,,,,,,,,,,,,,,,,,,,,,,,,,,,,,,,,,,,,,,,,,,,,,,,,,,,,,,,,,,,,787.9922097995877,787.9922097995877,0.0006759995594620705,0.09916189964860678,7.0,1.7331221997737885,,,,,,675,Moral,2024-04-15_14h43.56.542,MoralCondition_v2,2022.2.5,30.01500451367607,
17,0,17,0,0,0,0,0,,,,,,,,,,,,,,,,,,,,,,789.7589948996902,0.0001283995807170868,0.09979699924588203,795.741835099645,6.015538899227977,795.9253634996712,795.9253634996712,0.062066700309515,0.16555290017277002,5.9992442997172475,6.099242700263858,802.0251874001697,802.0251874001697,802.0251874001697,0.06179579999297857,0.1658294005319476,807.7253593001515,807.9255131995305,5.999309699982405,6.099103600718081,813.9253682997078,11.999165600165725,12.099117999896407,814.05879619997,814.05879619997,-3.849901258945465e-05,0.09907220024615526,up,0.4251178000122309,814.5253227995709,2.969987690448761e-05,0.09809490013867617,,820.5586010999978,820.5586010999978,0.025553399696946144,0.13151029963046312,4.0,1.373628300614655,,,,,,,801.9254171000794,801.9254171000794,814.025317300111,814.025317300111,6.099022799171507,675,Moral,2024-04-15_14h43.56.542,MoralCondition_v2,2022.2.5,30.01500451367607,
17,0,17,0,1,0,1,0,,,,,,,,,,,,,,,,,,,,,,,,,,,,,,,,,,,,,,,,,,,,,,,,,,,,,,,821.9587252996862,821.9587252996862,0.00677499920129776,0.09887429978698492,4.0,0.4933066004887223,,,,,,,,,,,,675,Moral,2024-04-15_14h43.56.542,MoralCondition_v2,2022.2.5,30.01500451367607,
17,0,17,0,2,0,2,0,,,,,,,,,,,,,,,,,,,,,,,,,,,,,,,,,,,,,,,,,,,,,,,,,,,,,,,822.4919994994998,822.4919994994998,0.007684799842536449,0.09727440029382706,4.0,0.424188400618732,,,,,,,,,,,,675,Moral,2024-04-15_14h43.56.542,MoralCondition_v2,2022.2.5,30.01500451367607,
17,0,17,0,3,0,3,0,,,,,,,,,,,,,,,,,,,,,,,,,,,,,,,,,,,,,,,,,,,,,,,,,,,,,,,822.9585111998022,822.9585111998022,0.006145999766886234,0.09914019983261824,4.0,0.49393089953809977,,,,,,,,,,,,675,Moral,2024-04-15_14h43.56.542,MoralCondition_v2,2022.2.5,30.01500451367607,
17,0,17,0,4,0,4,0,,,,,,,,,,,,,,,,,,,,,,,,,,,,,,,,,,,,,,,,,,,,,,,,,,,,,,,823.491760299541,823.491760299541,0.006558500230312347,0.09942670073360205,4.0,0.46047599986195564,,,,,,,,,,,,675,Moral,2024-04-15_14h43.56.542,MoralCondition_v2,2022.2.5,30.01500451367607,
17,0,17,0,5,0,5,0,,,,,,,,,,,,,,,,,,,,,,,,,,,,,,,,,,,,,,,,,,,,,,,,,,,,,,,823.991906600073,823.991906600073,0.0066315000876784325,0.09898570086807013,4.0,0.8934992998838425,,,,,,,,,,,,675,Moral,2024-04-15_14h43.56.542,MoralCondition_v2,2022.2.5,30.01500451367607,
17,0,17,0,6,0,6,0,,,,,,,,,,,,,,,,,,,,,,,,,,,,,,,,,,,,,,,,,,,,,,,,,,,,,,,824.9420290002599,824.9420290002599,0.008287600241601467,0.1144669996574521,4.0,0.6072798995301127,,,,,,,,,,,,675,Moral,2024-04-15_14h43.56.542,MoralCondition_v2,2022.2.5,30.01500451367607,
17,0,17,0,,,,,,,,,,,,,,,,,,,,,,,,,,,,,,,,,,,,,,,,,,,,,,,,,,,,,,,,,,,,,,,,,825.5755345998332,825.5755345998332,0.0016367007046937943,0.09741090051829815,3.0,1.7968759005889297,,,,,,675,Moral,2024-04-15_14h43.56.542,MoralCondition_v2,2022.2.5,30.01500451367607,
18,0,18,0,0,0,0,0,,,,,,,,,,,,,,,,,,,,,,827.4088341994211,0.0003166003152728081,0.09779989998787642,833.4085901994258,6.030932200141251,833.608527299948,833.608527299948,0.09297980088740587,0.19789050053805113,6.030831100419164,,839.7086517000571,839.7086517000571,839.7086517000571,0.09363340120762587,0.1977209011092782,845.4084703000262,845.6085358001292,6.030937701463699,6.13082230091095,851.6084572998807,12.030737801454961,,851.7251856997609,851.7251856997609,0.03080030158162117,0.114316301420331,up,0.5185981998220086,852.2920426996425,3.820005804300308e-05,0.09805499948561192,858.3084862995893,858.3084862995893,858.3084862995893,0.009376099333167076,0.11452540010213852,3.0,2.2061024997383356,,,,,,,839.6085190000013,839.6085190000013,851.7084627002478,851.7084627002478,,675,Moral,2024-04-15_14h43.56.542,MoralCondition_v2,2022.2.5,30.01500451367607,
18,0,18,0,1,0,1,0,,,,,,,,,,,,,,,,,,,,,,,,,,,,,,,,,,,,,,,,,,,,,,,,,,,,,,,860.5418419996276,860.5418419996276,0.006589800119400024,0.09927309956401587,2.0,0.9937423998489976,,,,,,,,,,,,675,Moral,2024-04-15_14h43.56.542,MoralCondition_v2,2022.2.5,30.01500451367607,
18,0,18,0,2,0,2,0,,,,,,,,,,,,,,,,,,,,,,,,,,,,,,,,,,,,,,,,,,,,,,,,,,,,,,,861.5752376997843,861.5752376997843,0.0076614003628492355,0.0983728002756834,2.0,0.7582045998424292,,,,,,,,,,,,675,Moral,2024-04-15_14h43.56.542,MoralCondition_v2,2022.2.5,30.01500451367607,
18,0,18,0,3,0,3,0,,,,,,,,,,,,,,,,,,,,,,,,,,,,,,,,,,,,,,,,,,,,,,,,,,,,,,,862.3752237996086,862.3752237996086,0.0073343003168702126,0.09796749986708164,5.0,1.1916141994297504,,,,,,,,,,,,675,Moral,2024-04-15_14h43.56.542,MoralCondition_v2,2022.2.5,30.01500451367607,
18,0,18,0,4,0,4,0,,,,,,,,,,,,,,,,,,,,,,,,,,,,,,,,,,,,,,,,,,,,,,,,,,,,,,,863.608340700157,863.608340700157,0.006479799747467041,0.09927930030971766,2.0,0.9269904997199774,,,,,,,,,,,,675,Moral,2024-04-15_14h43.56.542,MoralCondition_v2,2022.2.5,30.01500451367607,
18,0,18,0,5,0,5,0,,,,,,,,,,,,,,,,,,,,,,,,,,,,,,,,,,,,,,,,,,,,,,,,,,,,,,,864.5920973997563,864.5920973997563,0.008851100690662861,0.11380230076611042,2.0,0.572974500246346,,,,,,,,,,,,675,Moral,2024-04-15_14h43.56.542,MoralCondition_v2,2022.2.5,30.01500451367607,
18,0,18,0,6,0,6,0,,,,,,,,,,,,,,,,,,,,,,,,,,,,,,,,,,,,,,,,,,,,,,,,,,,,,,,865.2084572995082,865.2084572995082,0.0071915993466973305,0.11402399931102991,2.0,0.6079815002158284,,,,,,,,,,,,675,Moral,2024-04-15_14h43.56.542,MoralCondition_v2,2022.2.5,30.01500451367607,
18,0,18,0,,,,,,,,,,,,,,,,,,,,,,,,,,,,,,,,,,,,,,,,,,,,,,,,,,,,,,,,,,,,,,,,,865.8419188996777,865.8419188996777,0.0015751998871564865,0.09800190012902021,7.0,1.46407219953835,,,,,,675,Moral,2024-04-15_14h43.56.542,MoralCondition_v2,2022.2.5,30.01500451367607,
19,0,19,0,0,0,0,0,,,,,,,,,,,,,,,,,,,,,,867.3420152999461,0.00023279991000890732,0.09837020002305508,873.358520699665,6.014653800055385,873.5082660000771,873.5082660000771,0.06379960011690855,0.16464619990438223,6.0313392002135515,,879.6081729000434,879.6081729000434,879.6081729000434,0.06275510042905807,0.16459860000759363,885.3083375999704,885.5418258998543,6.0314233005046844,6.131233100779355,891.5416366001591,12.031260300427675,,891.6581101994962,891.6581101994962,0.031011500395834446,0.13122600130736828,up,0.3615074995905161,892.0749500999227,9.729992598295212e-05,0.09778929967433214,,898.1085284994915,898.1085284994915,0.0258390000090003,0.13146619964390993,2.0,1.173127199523151,,,,,,,879.5083510996774,879.5083510996774,891.6084193997085,891.6084193997085,,675,Moral,2024-04-15_14h43.56.542,MoralCondition_v2,2022.2.5,30.01500451367607,
19,0,19,0,1,0,1,0,,,,,,,,,,,,,,,,,,,,,,,,,,,,,,,,,,,,,,,,,,,,,,,,,,,,,,,899.3248653002083,899.3248653002083,0.011621499434113503,0.1139592994004488,2.0,0.670010500587523,,,,,,,,,,,,675,Moral,2024-04-15_14h43.56.542,MoralCondition_v2,2022.2.5,30.01500451367607,
19,0,19,0,2,0,2,0,,,,,,,,,,,,,,,,,,,,,,,,,,,,,,,,,,,,,,,,,,,,,,,,,,,,,,,900.0248390994966,900.0248390994966,0.006953299976885319,0.09910929948091507,2.0,0.3597454996779561,,,,,,,,,,,,675,Moral,2024-04-15_14h43.56.542,MoralCondition_v2,2022.2.5,30.01500451367607,
19,0,19,0,3,0,3,0,,,,,,,,,,,,,,,,,,,,,,,,,,,,,,,,,,,,,,,,,,,,,,,,,,,,,,,900.424848199822,900.424848199822,0.007376300171017647,0.09782510064542294,2.0,0.4913899004459381,,,,,,,,,,,,675,Moral,2024-04-15_14h43.56.542,MoralCondition_v2,2022.2.5,30.01500451367607,
19,0,19,0,4,0,4,0,,,,,,,,,,,,,,,,,,,,,,,,,,,,,,,,,,,,,,,,,,,,,,,,,,,,,,,900.9584037000313,900.9584037000313,0.0075975991785526276,0.0975488992407918,2.0,0.557582899928093,,,,,,,,,,,,675,Moral,2024-04-15_14h43.56.542,MoralCondition_v2,2022.2.5,30.01500451367607,
19,0,19,0,5,0,5,0,,,,,,,,,,,,,,,,,,,,,,,,,,,,,,,,,,,,,,,,,,,,,,,,,,,,,,,901.5583446994424,901.5583446994424,0.008185799233615398,0.09768089931458235,2.0,0.5239022998139262,,,,,,,,,,,,675,Moral,2024-04-15_14h43.56.542,MoralCondition_v2,2022.2.5,30.01500451367607,
19,0,19,0,6,0,6,0,,,,,,,,,,,,,,,,,,,,,,,,,,,,,,,,,,,,,,,,,,,,,,,,,,,,,,,902.1415620995685,902.1415620995685,0.0076389005407691,0.11442100070416927,2.0,0.9741348996758461,,,,,,,,,,,,675,Moral,2024-04-15_14h43.56.542,MoralCondition_v2,2022.2.5,30.01500451367607,
19,0,19,0,,,,,,,,,,,,,,,,,,,,,,,,,,,,,,,,,,,,,,,,,,,,,,,,,,,,,,,,,,,,,,,,,903.1415675999597,903.1415675999597,0.0018559005111455917,0.09706030040979385,7.0,3.096616600640118,,,,,,675,Moral,2024-04-15_14h43.56.542,MoralCondition_v2,2022.2.5,30.01500451367607,
