loop.thisRepN,loop.thisTrialN,loop.thisN,loop.thisIndex,evaluate_all_emotions.thisRepN,evaluate_all_emotions.thisTrialN,evaluate_all_emotions.thisN,evaluate_all_emotions.thisIndex,sync_beep_1.started,p_port.started,p_port.stopped,sync_beep_2.started,sync_beep_2.stopped,sync_beep_3.started,sync_beep_3.stopped,sync_beep_4.started,sync_beep_4.stopped,baseline.started,p_port_2.started,p_port_2.stopped,baseline.stopped,p_port_3.started,Game_Start_Text.started,p_port_4.started,p_port_4.stopped,key_resp.started,key_resp.keys,key_resp.rt,fixation_cross.started,p_port_5.started,p_port_5.stopped,fixation_cross.stopped,p_port_6.started,player_image_intro.started,player_name_intro.started,p_port_7.started,p_port_7.stopped,p_port_8.started,player_image_offer.started,player_name_offer.started,proposed_split.started,p_port_9.started,p_port_9.stopped,proposed_split.stopped,accept_reject.started,p_port_15.started,p_port_15.stopped,accept_reject.stopped,p_port_10.started,arrow_instructions.started,offer_choice.started,p_port_11.started,p_port_11.stopped,offer_choice.keys,offer_choice.rt,Instructions_Affinity_Score.started,p_port_12.started,p_port_12.stopped,Instructions_Affinity_Score.stopped,Emotion_Image.started,AffinityScore.started,p_port_13.started,p_port_13.stopped,AffinityScore.response,AffinityScore.rt,Instruction.started,Moral_Disgust_Score.started,p_port_14.started,p_port_14.stopped,Moral_Disgust_Score.response,Moral_Disgust_Score.rt,player_image_offer.stopped,player_name_offer.stopped,player_image_intro.stopped,player_name_intro.stopped,p_port_10.stopped,p_port_6.stopped,p_port_8.stopped,participant,session,date,expName,psychopyVersion,frameRate,
,,,,,,,,18.757782570458946,0.0008553992956876755,0.10643869824707508,19.372198131494223,19.68885900080204,19.95551702994853,20.272255901247263,20.55542403142899,20.87219240143895,20.87219240143895,0.02275499887764454,0.12291269935667515,35.87223150022328,15.022817399352789,36.0056031011045,0.02288210019469261,0.12275500036776066,36.47215390019119,space,1.4146805983036757,,,,,,,,,,,,,,,,,,,,,,,,,,,,,,,,,,,,,,,,,,,,,,,,,,,676,Moral,2024-06-05_15h19.06.052,MoralCondition_v2,2022.2.5,29.998248061035376,
0,0,0,0,0,0,0,0,,,,,,,,,,,,,,,,,,,,,37.938886700198054,0.0015730001032352448,0.09836160019040108,43.955556001514196,6.0151027999818325,44.25591690093279,44.25591690093279,0.16836549900472164,0.31503850035369396,6.0150006003677845,50.25551160052419,50.25551160052419,50.25551160052419,0.08119639940559864,0.21493490040302277,55.95550340041518,56.122215300798416,6.015038700774312,6.114818099886179,62.12221250124276,12.015033099800348,62.25557520054281,62.25557520054281,0.015231801196932793,0.11498869955539703,down,3.1905603986233473,65.48888390138745,4.580058157444e-05,0.09780729934573174,71.5055095013231,71.5055095013231,71.5055095013231,0.011121900752186775,0.11449830047786236,5.0,7.754290798678994,,,,,,,,,,,,,,676,Moral,2024-06-05_15h19.06.052,MoralCondition_v2,2022.2.5,29.998248061035376,
0,0,0,0,1,0,1,0,,,,,,,,,,,,,,,,,,,,,,,,,,,,,,,,,,,,,,,,,,,,,,,,,,,,79.30579579994082,79.30579579994082,0.011233998462557793,0.11394149996340275,2.0,4.971038099378347,,,,,,,,,,,,,,676,Moral,2024-06-05_15h19.06.052,MoralCondition_v2,2022.2.5,29.998248061035376,
0,0,0,0,2,0,2,0,,,,,,,,,,,,,,,,,,,,,,,,,,,,,,,,,,,,,,,,,,,,,,,,,,,,84.3221276011318,84.3221276011318,0.011216800659894943,0.11412189900875092,3.0,15.070667499676347,,,,,,,,,,,,,,676,Moral,2024-06-05_15h19.06.052,MoralCondition_v2,2022.2.5,29.998248061035376,
0,0,0,0,3,0,3,0,,,,,,,,,,,,,,,,,,,,,,,,,,,,,,,,,,,,,,,,,,,,,,,,,,,,99.43889600038528,99.43889600038528,0.009951800107955933,0.11451550014317036,6.0,8.905653400346637,,,,,,,,,,,,,,676,Moral,2024-06-05_15h19.06.052,MoralCondition_v2,2022.2.5,29.998248061035376,
0,0,0,0,4,0,4,0,,,,,,,,,,,,,,,,,,,,,,,,,,,,,,,,,,,,,,,,,,,,,,,,,,,,108.37201810069382,108.37201810069382,0.010795298963785172,0.09784699976444244,5.0,3.7880785018205643,,,,,,,,,,,,,,676,Moral,2024-06-05_15h19.06.052,MoralCondition_v2,2022.2.5,29.998248061035376,
0,0,0,0,5,0,5,0,,,,,,,,,,,,,,,,,,,,,,,,,,,,,,,,,,,,,,,,,,,,,,,,,,,,112.22233350016177,112.22233350016177,0.00940220057964325,0.114419499412179,3.0,6.073646301403642,,,,,,,,,,,,,,676,Moral,2024-06-05_15h19.06.052,MoralCondition_v2,2022.2.5,29.998248061035376,
0,0,0,0,6,0,6,0,,,,,,,,,,,,,,,,,,,,,,,,,,,,,,,,,,,,,,,,,,,,,,,,,,,,118.33908590115607,118.33908590115607,0.012051200494170189,0.11353169940412045,2.0,7.202636901289225,,,,,,,,,,,,,,676,Moral,2024-06-05_15h19.06.052,MoralCondition_v2,2022.2.5,29.998248061035376,
0,0,0,0,,,,,,,,,,,,,,,,,,,,,,,,,,,,,,,,,,,,,,,,,,,,,,,,,,,,,,,,,,,,,,125.57209990173578,125.57209990173578,0.002201000228524208,0.09720250032842159,3.0,4.029732501134276,,,,,,,,676,Moral,2024-06-05_15h19.06.052,MoralCondition_v2,2022.2.5,29.998248061035376,
1,0,1,0,0,0,0,0,,,,,,,,,,,,,,,,,,,,,129.6390530001372,0.0002619009464979172,0.09792290069162846,135.63878430053592,6.031236499547958,135.8719386011362,135.8719386011362,0.12865840084850788,0.23121079988777637,6.031420400366187,141.9389730002731,141.9389730002731,141.9389730002731,0.09451210126280785,0.19811470061540604,147.63885540142655,147.8388036005199,6.03127970173955,6.131223501637578,153.83889340050519,12.031378200277686,153.97209980152547,153.97209980152547,0.03143790178000927,0.1312309019267559,down,3.2579615991562605,157.28881960175931,5.050003528594971e-05,0.09795450046658516,163.30568000115454,163.30568000115454,163.30568000115454,0.009364001452922821,0.11446690000593662,5.0,5.372992100194097,,,,,,,153.938796101138,153.938796101138,,,,,,676,Moral,2024-06-05_15h19.06.052,MoralCondition_v2,2022.2.5,29.998248061035376,
1,0,1,0,1,0,1,0,,,,,,,,,,,,,,,,,,,,,,,,,,,,,,,,,,,,,,,,,,,,,,,,,,,,168.7054202016443,168.7054202016443,0.00884380005300045,0.09730839915573597,6.0,2.5892862007021904,,,,,,,,,,,,,,676,Moral,2024-06-05_15h19.06.052,MoralCondition_v2,2022.2.5,29.998248061035376,
1,0,1,0,2,0,2,0,,,,,,,,,,,,,,,,,,,,,,,,,,,,,,,,,,,,,,,,,,,,,,,,,,,,171.33891610056162,171.33891610056162,0.006669200956821442,0.09916320070624352,6.0,4.293609200045466,,,,,,,,,,,,,,676,Moral,2024-06-05_15h19.06.052,MoralCondition_v2,2022.2.5,29.998248061035376,
1,0,1,0,3,0,3,0,,,,,,,,,,,,,,,,,,,,,,,,,,,,,,,,,,,,,,,,,,,,,,,,,,,,175.67199330031872,175.67199330031872,0.007546098902821541,0.09762169979512691,6.0,2.4578424990177155,,,,,,,,,,,,,,676,Moral,2024-06-05_15h19.06.052,MoralCondition_v2,2022.2.5,29.998248061035376,
1,0,1,0,4,0,4,0,,,,,,,,,,,,,,,,,,,,,,,,,,,,,,,,,,,,,,,,,,,,,,,,,,,,178.1721181999892,178.1721181999892,0.006537400186061859,0.09944609925150871,6.0,3.9939564000815153,,,,,,,,,,,,,,676,Moral,2024-06-05_15h19.06.052,MoralCondition_v2,2022.2.5,29.998248061035376,
1,0,1,0,5,0,5,0,,,,,,,,,,,,,,,,,,,,,,,,,,,,,,,,,,,,,,,,,,,,,,,,,,,,182.20547570101917,182.20547570101917,0.0069994013756513596,0.09925810061395168,1.0,4.259801698848605,,,,,,,,,,,,,,676,Moral,2024-06-05_15h19.06.052,MoralCondition_v2,2022.2.5,29.998248061035376,
1,0,1,0,6,0,6,0,,,,,,,,,,,,,,,,,,,,,,,,,,,,,,,,,,,,,,,,,,,,,,,,,,,,186.50534130074084,186.50534130074084,0.007284300401806831,0.0979051012545824,2.0,6.558474399149418,,,,,,,,,,,,,,676,Moral,2024-06-05_15h19.06.052,MoralCondition_v2,2022.2.5,29.998248061035376,
1,0,1,0,,,,,,,,,,,,,,,,,,,,,,,,,,,,,,,,,,,,,,,,,,,,,,,,,,,,,,,,,,,,,,193.10551950149238,193.10551950149238,0.0019995998591184616,0.09702759981155396,1.0,9.162846898660064,,,,,,,,676,Moral,2024-06-05_15h19.06.052,MoralCondition_v2,2022.2.5,29.998248061035376,
2,0,2,0,0,0,0,0,,,,,,,,,,,,,,,,,,,,,202.30564410053194,0.00027109868824481964,0.09755340032279491,208.32205220125616,6.0142103005200624,208.4887204002589,208.4887204002589,0.0756681002676487,0.18094589933753014,6.014246299862862,214.57197380065918,214.57197380065918,214.57197380065918,0.06852460093796253,0.1642781998962164,220.2720321007073,220.50533900037408,6.030896199867129,6.130883300676942,226.5053925011307,12.030970200896263,226.62205250002444,226.62205250002444,0.014166900888085365,0.11414650082588196,up,1.312085099518299,227.98865990154445,4.91999089717865e-05,0.09768120013177395,,234.02205160073936,234.02205160073936,0.026366299018263817,0.13109489902853966,1.0,2.3057601004838943,,,,,,,226.5719530005008,226.5719530005008,214.4887002017349,214.4887002017349,,,,676,Moral,2024-06-05_15h19.06.052,MoralCondition_v2,2022.2.5,29.998248061035376,
2,0,2,0,1,0,1,0,,,,,,,,,,,,,,,,,,,,,,,,,,,,,,,,,,,,,,,,,,,,,,,,,,,,236.3554393015802,236.3554393015802,0.006918700411915779,0.09906559996306896,1.0,2.5265638008713722,,,,,,,,,,,,,,676,Moral,2024-06-05_15h19.06.052,MoralCondition_v2,2022.2.5,29.998248061035376,
2,0,2,0,2,0,2,0,,,,,,,,,,,,,,,,,,,,,,,,,,,,,,,,,,,,,,,,,,,,,,,,,,,,238.92214480042458,238.92214480042458,0.006618000566959381,0.09932379983365536,1.0,2.1269483994692564,,,,,,,,,,,,,,676,Moral,2024-06-05_15h19.06.052,MoralCondition_v2,2022.2.5,29.998248061035376,
2,0,2,0,3,0,3,0,,,,,,,,,,,,,,,,,,,,,,,,,,,,,,,,,,,,,,,,,,,,,,,,,,,,241.08864980004728,241.08864980004728,0.006864899769425392,0.0990303996950388,1.0,2.859988998621702,,,,,,,,,,,,,,676,Moral,2024-06-05_15h19.06.052,MoralCondition_v2,2022.2.5,29.998248061035376,
2,0,2,0,4,0,4,0,,,,,,,,,,,,,,,,,,,,,,,,,,,,,,,,,,,,,,,,,,,,,,,,,,,,244.0054899007082,244.0054899007082,0.007923100143671036,0.11406340077519417,4.0,10.073680199682713,,,,,,,,,,,,,,676,Moral,2024-06-05_15h19.06.052,MoralCondition_v2,2022.2.5,29.998248061035376,
2,0,2,0,5,0,5,0,,,,,,,,,,,,,,,,,,,,,,,,,,,,,,,,,,,,,,,,,,,,,,,,,,,,254.10516340099275,254.10516340099275,0.007323898375034332,0.09759959951043129,7.0,3.2581652998924255,,,,,,,,,,,,,,676,Moral,2024-06-05_15h19.06.052,MoralCondition_v2,2022.2.5,29.998248061035376,
2,0,2,0,6,0,6,0,,,,,,,,,,,,,,,,,,,,,,,,,,,,,,,,,,,,,,,,,,,,,,,,,,,,257.4222273007035,257.4222273007035,0.00793900154531002,0.11442260071635246,1.0,3.1742802001535892,,,,,,,,,,,,,,676,Moral,2024-06-05_15h19.06.052,MoralCondition_v2,2022.2.5,29.998248061035376,
2,0,2,0,,,,,,,,,,,,,,,,,,,,,,,,,,,,,,,,,,,,,,,,,,,,,,,,,,,,,,,,,,,,,,260.62211340107024,260.62211340107024,0.000725800171494484,0.09895969927310944,7.0,6.299752900376916,,,,,,,,676,Moral,2024-06-05_15h19.06.052,MoralCondition_v2,2022.2.5,29.998248061035376,
3,0,3,0,0,0,0,0,,,,,,,,,,,,,,,,,,,,,266.9553773012012,0.0002918001264333725,0.09749529883265495,272.95527300052345,6.030877599492669,273.1718991007656,273.1718991007656,0.1036824993789196,0.21434959955513477,6.0141687002032995,279.2219424005598,279.2219424005598,279.2219424005598,0.065123800188303,0.16418210044503212,284.92195860110223,285.15527230128646,6.030862100422382,6.130917299538851,291.15522790141404,12.030813500285149,291.2886095009744,291.2886095009744,0.03096580132842064,0.1308149006217718,up,2.5417852979153395,293.88855370134115,9.940005838871002e-05,0.09796890057623386,,299.92197090014815,299.92197090014815,0.02510629966855049,0.1313664000481367,7.0,2.973837500438094,,,,,,,291.2220034003258,291.2220034003258,,,,,,676,Moral,2024-06-05_15h19.06.052,MoralCondition_v2,2022.2.5,29.998248061035376,
3,0,3,0,1,0,1,0,,,,,,,,,,,,,,,,,,,,,,,,,,,,,,,,,,,,,,,,,,,,,,,,,,,,302.921959400177,302.921959400177,0.007538801059126854,0.0975464005023241,1.0,3.457804199308157,,,,,,,,,,,,,,676,Moral,2024-06-05_15h19.06.052,MoralCondition_v2,2022.2.5,29.998248061035376,
3,0,3,0,2,0,2,0,,,,,,,,,,,,,,,,,,,,,,,,,,,,,,,,,,,,,,,,,,,,,,,,,,,,306.4217003006488,306.4217003006488,0.006990298628807068,0.09908209927380085,1.0,1.359646799042821,,,,,,,,,,,,,,676,Moral,2024-06-05_15h19.06.052,MoralCondition_v2,2022.2.5,29.998248061035376,
3,0,3,0,3,0,3,0,,,,,,,,,,,,,,,,,,,,,,,,,,,,,,,,,,,,,,,,,,,,,,,,,,,,307.8217323999852,307.8217323999852,0.007712800055742264,0.09774630144238472,4.0,6.324142200872302,,,,,,,,,,,,,,676,Moral,2024-06-05_15h19.06.052,MoralCondition_v2,2022.2.5,29.998248061035376,
3,0,3,0,4,0,4,0,,,,,,,,,,,,,,,,,,,,,,,,,,,,,,,,,,,,,,,,,,,,,,,,,,,,314.20553790032864,314.20553790032864,0.008185900747776031,0.11374320089817047,1.0,2.7064394000917673,,,,,,,,,,,,,,676,Moral,2024-06-05_15h19.06.052,MoralCondition_v2,2022.2.5,29.998248061035376,
3,0,3,0,5,0,5,0,,,,,,,,,,,,,,,,,,,,,,,,,,,,,,,,,,,,,,,,,,,,,,,,,,,,316.95533649995923,316.95533649995923,0.008061900734901428,0.11380399949848652,1.0,2.9735691007226706,,,,,,,,,,,,,,676,Moral,2024-06-05_15h19.06.052,MoralCondition_v2,2022.2.5,29.998248061035376,
3,0,3,0,6,0,6,0,,,,,,,,,,,,,,,,,,,,,,,,,,,,,,,,,,,,,,,,,,,,,,,,,,,,319.9551728013903,319.9551728013903,0.007335498929023743,0.09797249920666218,1.0,2.4915114995092154,,,,,,,,,,,,,,676,Moral,2024-06-05_15h19.06.052,MoralCondition_v2,2022.2.5,29.998248061035376,
3,0,3,0,,,,,,,,,,,,,,,,,,,,,,,,,,,,,,,,,,,,,,,,,,,,,,,,,,,,,,,,,,,,,,322.4885473009199,322.4885473009199,0.0015531983226537704,0.09756899997591972,7.0,3.73045969940722,,,,,,,,676,Moral,2024-06-05_15h19.06.052,MoralCondition_v2,2022.2.5,29.998248061035376,
4,0,4,0,0,0,0,0,,,,,,,,,,,,,,,,,,,,,326.25519380159676,0.0005786009132862091,0.09740130044519901,332.25515830144286,6.030763501301408,332.521920600906,332.521920600906,0.1539240013808012,0.26416550017893314,6.03069270029664,338.5552461016923,338.5552461016923,338.5552461016923,0.09155120141804218,0.19738140143454075,344.2551569007337,344.45513550005853,6.030741302296519,6.130758201703429,350.4551007002592,12.03076790086925,350.58841760084033,350.58841760084033,0.030952101573348045,0.1304628010839224,down,3.6821903996169567,354.30523040145636,3.8098543882369995e-05,0.09798539988696575,,360.32166150026023,360.32166150026023,0.023161299526691437,0.11483129858970642,6.0,3.159178299829364,,,,,,,350.5550964009017,350.5550964009017,,,,,,676,Moral,2024-06-05_15h19.06.052,MoralCondition_v2,2022.2.5,29.998248061035376,
4,0,4,0,1,0,1,0,,,,,,,,,,,,,,,,,,,,,,,,,,,,,,,,,,,,,,,,,,,,,,,,,,,,363.5219110008329,363.5219110008329,0.007164400070905685,0.09773040004074574,5.0,4.5581119004637,,,,,,,,,,,,,,676,Moral,2024-06-05_15h19.06.052,MoralCondition_v2,2022.2.5,29.998248061035376,
4,0,4,0,2,0,2,0,,,,,,,,,,,,,,,,,,,,,,,,,,,,,,,,,,,,,,,,,,,,,,,,,,,,368.121610801667,368.121610801667,0.008008599281311035,0.09786370024085045,1.0,4.390762800350785,,,,,,,,,,,,,,676,Moral,2024-06-05_15h19.06.052,MoralCondition_v2,2022.2.5,29.998248061035376,
4,0,4,0,3,0,3,0,,,,,,,,,,,,,,,,,,,,,,,,,,,,,,,,,,,,,,,,,,,,,,,,,,,,372.55511810071766,372.55511810071766,0.0064688995480537415,0.09923410043120384,5.0,4.493813801556826,,,,,,,,,,,,,,676,Moral,2024-06-05_15h19.06.052,MoralCondition_v2,2022.2.5,29.998248061035376,
4,0,4,0,4,0,4,0,,,,,,,,,,,,,,,,,,,,,,,,,,,,,,,,,,,,,,,,,,,,,,,,,,,,377.08823590166867,377.08823590166867,0.008173299953341484,0.09740019962191582,5.0,3.123659899458289,,,,,,,,,,,,,,676,Moral,2024-06-05_15h19.06.052,MoralCondition_v2,2022.2.5,29.998248061035376,
4,0,4,0,5,0,5,0,,,,,,,,,,,,,,,,,,,,,,,,,,,,,,,,,,,,,,,,,,,,,,,,,,,,380.25497120060027,380.25497120060027,0.006481500342488289,0.099107401445508,5.0,7.360366798937321,,,,,,,,,,,,,,676,Moral,2024-06-05_15h19.06.052,MoralCondition_v2,2022.2.5,29.998248061035376,
4,0,4,0,6,0,6,0,,,,,,,,,,,,,,,,,,,,,,,,,,,,,,,,,,,,,,,,,,,,,,,,,,,,387.6549647003412,387.6549647003412,0.007376300171017647,0.09866989962756634,2.0,4.758337700739503,,,,,,,,,,,,,,676,Moral,2024-06-05_15h19.06.052,MoralCondition_v2,2022.2.5,29.998248061035376,
4,0,4,0,,,,,,,,,,,,,,,,,,,,,,,,,,,,,,,,,,,,,,,,,,,,,,,,,,,,,,,,,,,,,,392.45513760112226,392.45513760112226,0.001342298462986946,0.09800620004534721,2.0,3.8976592998951674,,,,,,,,676,Moral,2024-06-05_15h19.06.052,MoralCondition_v2,2022.2.5,29.998248061035376,
5,0,5,0,0,0,0,0,,,,,,,,,,,,,,,,,,,,,396.38870589993894,0.00035609863698482513,0.09769469872117043,402.4051513001323,6.014301098883152,402.5717302002013,402.5717302002013,0.0723641999065876,0.18112660013139248,6.014275200664997,408.67157630063593,408.67157630063593,408.67157630063593,0.07286070100963116,0.18125860020518303,414.37164550088346,414.57165230065584,6.01432660035789,6.114218400791287,420.57180520147085,12.01447020098567,420.70491450093687,420.70491450093687,0.01467980071902275,0.11420820094645023,up,1.0221656989306211,421.7883981000632,4.5200809836387634e-05,0.09792570024728775,,427.80506880022585,427.80506880022585,0.024880800396203995,0.11445450037717819,5.0,7.658509301021695,,,,,,,420.67162180133164,420.67162180133164,408.5716408006847,408.5716408006847,,,,676,Moral,2024-06-05_15h19.06.052,MoralCondition_v2,2022.2.5,29.998248061035376,
5,0,5,0,1,0,1,0,,,,,,,,,,,,,,,,,,,,,,,,,,,,,,,,,,,,,,,,,,,,,,,,,,,,435.5050001014024,435.5050001014024,0.006604699417948723,0.09806660003960133,1.0,2.6590845994651318,,,,,,,,,,,,,,676,Moral,2024-06-05_15h19.06.052,MoralCondition_v2,2022.2.5,29.998248061035376,
5,0,5,0,2,0,2,0,,,,,,,,,,,,,,,,,,,,,,,,,,,,,,,,,,,,,,,,,,,,,,,,,,,,438.20487560145557,438.20487560145557,0.007283998653292656,0.09751039929687977,1.0,1.4579323008656502,,,,,,,,,,,,,,676,Moral,2024-06-05_15h19.06.052,MoralCondition_v2,2022.2.5,29.998248061035376,
5,0,5,0,3,0,3,0,,,,,,,,,,,,,,,,,,,,,,,,,,,,,,,,,,,,,,,,,,,,,,,,,,,,439.704949401319,439.704949401319,0.00566679984331131,0.09940190054476261,1.0,1.6608902998268604,,,,,,,,,,,,,,676,Moral,2024-06-05_15h19.06.052,MoralCondition_v2,2022.2.5,29.998248061035376,
5,0,5,0,4,0,4,0,,,,,,,,,,,,,,,,,,,,,,,,,,,,,,,,,,,,,,,,,,,,,,,,,,,,441.40505460090935,441.40505460090935,0.006554599851369858,0.09913310036063194,1.0,2.426671700552106,,,,,,,,,,,,,,676,Moral,2024-06-05_15h19.06.052,MoralCondition_v2,2022.2.5,29.998248061035376,
5,0,5,0,5,0,5,0,,,,,,,,,,,,,,,,,,,,,,,,,,,,,,,,,,,,,,,,,,,,,,,,,,,,443.8716545011848,443.8716545011848,0.005828600376844406,0.09878270141780376,1.0,1.8605186995118856,,,,,,,,,,,,,,676,Moral,2024-06-05_15h19.06.052,MoralCondition_v2,2022.2.5,29.998248061035376,
5,0,5,0,6,0,6,0,,,,,,,,,,,,,,,,,,,,,,,,,,,,,,,,,,,,,,,,,,,,,,,,,,,,445.7715640012175,445.7715640012175,0.007315898314118385,0.09730959869921207,7.0,2.624466698616743,,,,,,,,,,,,,,676,Moral,2024-06-05_15h19.06.052,MoralCondition_v2,2022.2.5,29.998248061035376,
5,0,5,0,,,,,,,,,,,,,,,,,,,,,,,,,,,,,,,,,,,,,,,,,,,,,,,,,,,,,,,,,,,,,,448.4383023008704,448.4383023008704,0.0015757996588945389,0.09755939990282059,7.0,2.8973130006343126,,,,,,,,676,Moral,2024-06-05_15h19.06.052,MoralCondition_v2,2022.2.5,29.998248061035376,
6,0,6,0,0,0,0,0,,,,,,,,,,,,,,,,,,,,,451.37178960070014,0.00025369971990585327,0.09814140014350414,457.37172370031476,6.031671300530434,457.55485820025206,457.55485820025206,0.07564220018684864,0.18148620054125786,6.014714600518346,463.65476140007377,463.65476140007377,463.65476140007377,0.07423430122435093,0.18160130083560944,469.3548013009131,469.55503390170634,6.015054600313306,6.114731300622225,475.55500780045986,12.014984400942922,475.6880908999592,475.6880908999592,0.014922300353646278,0.11470810137689114,up,0.9020258989185095,476.6380996014923,5.410052835941315e-05,0.09781379997730255,,482.65464260056615,482.65464260056615,0.023294100537896156,0.11462489888072014,5.0,8.12544459849596,,,,,,,475.65477700158954,475.65477700158954,463.55481970123947,463.55481970123947,,,,676,Moral,2024-06-05_15h19.06.052,MoralCondition_v2,2022.2.5,29.998248061035376,
6,0,6,0,1,0,1,0,,,,,,,,,,,,,,,,,,,,,,,,,,,,,,,,,,,,,,,,,,,,,,,,,,,,490.8212865013629,490.8212865013629,0.006831100210547447,0.09801659919321537,1.0,3.1590999998152256,,,,,,,,,,,,,,676,Moral,2024-06-05_15h19.06.052,MoralCondition_v2,2022.2.5,29.998248061035376,
6,0,6,0,2,0,2,0,,,,,,,,,,,,,,,,,,,,,,,,,,,,,,,,,,,,,,,,,,,,,,,,,,,,494.021398101002,494.021398101002,0.0063857994973659515,0.09915870055556297,1.0,1.1272873990237713,,,,,,,,,,,,,,676,Moral,2024-06-05_15h19.06.052,MoralCondition_v2,2022.2.5,29.998248061035376,
6,0,6,0,3,0,3,0,,,,,,,,,,,,,,,,,,,,,,,,,,,,,,,,,,,,,,,,,,,,,,,,,,,,495.1880931016058,495.1880931016058,0.00663050077855587,0.09933529980480671,7.0,2.6935277990996838,,,,,,,,,,,,,,676,Moral,2024-06-05_15h19.06.052,MoralCondition_v2,2022.2.5,29.998248061035376,
6,0,6,0,4,0,4,0,,,,,,,,,,,,,,,,,,,,,,,,,,,,,,,,,,,,,,,,,,,,,,,,,,,,497.9212285000831,497.9212285000831,0.007743099704384804,0.09917289949953556,1.0,2.1259553004056215,,,,,,,,,,,,,,676,Moral,2024-06-05_15h19.06.052,MoralCondition_v2,2022.2.5,29.998248061035376,
6,0,6,0,5,0,5,0,,,,,,,,,,,,,,,,,,,,,,,,,,,,,,,,,,,,,,,,,,,,,,,,,,,,500.088164601475,500.088164601475,0.007132800295948982,0.0995384007692337,1.0,1.19285879842937,,,,,,,,,,,,,,676,Moral,2024-06-05_15h19.06.052,MoralCondition_v2,2022.2.5,29.998248061035376,
6,0,6,0,6,0,6,0,,,,,,,,,,,,,,,,,,,,,,,,,,,,,,,,,,,,,,,,,,,,,,,,,,,,501.321506600827,501.321506600827,0.007269499823451042,0.09794070012867451,1.0,2.125118300318718,,,,,,,,,,,,,,676,Moral,2024-06-05_15h19.06.052,MoralCondition_v2,2022.2.5,29.998248061035376,
6,0,6,0,,,,,,,,,,,,,,,,,,,,,,,,,,,,,,,,,,,,,,,,,,,,,,,,,,,,,,,,,,,,,,503.48791540041566,503.48791540041566,0.0021059010177850723,0.09713870100677013,7.0,3.163068398833275,,,,,,,,676,Moral,2024-06-05_15h19.06.052,MoralCondition_v2,2022.2.5,29.998248061035376,
7,0,7,0,0,0,0,0,,,,,,,,,,,,,,,,,,,,,506.6879817005247,0.000409100204706192,0.09718050062656403,512.68795360066,6.03049630112946,512.8714324999601,512.8714324999601,0.06810480169951916,0.1806833017617464,6.013558700680733,518.9711016006768,518.9711016006768,518.9711016006768,0.07662990130484104,0.18029980175197124,524.6712645012885,524.8715127017349,6.014012401923537,6.113715002313256,530.8712029010057,12.013718301430345,531.0046252999455,531.0046252999455,0.014079401269555092,0.11382920108735561,down,1.602361399680376,532.654723700136,4.7400593757629395e-05,0.09774580039083958,538.6712982002646,538.6712982002646,538.6712982002646,0.008165901526808739,0.11445660144090652,3.0,6.007271299138665,,,,,,,530.9713361002505,530.9713361002505,518.8546041008085,518.8546041008085,,,,676,Moral,2024-06-05_15h19.06.052,MoralCondition_v2,2022.2.5,29.998248061035376,
7,0,7,0,1,0,1,0,,,,,,,,,,,,,,,,,,,,,,,,,,,,,,,,,,,,,,,,,,,,,,,,,,,,544.7216788008809,544.7216788008809,0.007883500307798386,0.11454780027270317,4.0,8.507441200315952,,,,,,,,,,,,,,676,Moral,2024-06-05_15h19.06.052,MoralCondition_v2,2022.2.5,29.998248061035376,
7,0,7,0,2,0,2,0,,,,,,,,,,,,,,,,,,,,,,,,,,,,,,,,,,,,,,,,,,,,,,,,,,,,553.2546153012663,553.2546153012663,0.007975399494171143,0.09733640030026436,5.0,3.35666779987514,,,,,,,,,,,,,,676,Moral,2024-06-05_15h19.06.052,MoralCondition_v2,2022.2.5,29.998248061035376,
7,0,7,0,3,0,3,0,,,,,,,,,,,,,,,,,,,,,,,,,,,,,,,,,,,,,,,,,,,,,,,,,,,,556.6713490001857,556.6713490001857,0.008353199809789658,0.11394909955561161,4.0,10.140100799500942,,,,,,,,,,,,,,676,Moral,2024-06-05_15h19.06.052,MoralCondition_v2,2022.2.5,29.998248061035376,
7,0,7,0,4,0,4,0,,,,,,,,,,,,,,,,,,,,,,,,,,,,,,,,,,,,,,,,,,,,,,,,,,,,566.8377137016505,566.8377137016505,0.005560798570513725,0.09936459921300411,4.0,4.028091300278902,,,,,,,,,,,,,,676,Moral,2024-06-05_15h19.06.052,MoralCondition_v2,2022.2.5,29.998248061035376,
7,0,7,0,5,0,5,0,,,,,,,,,,,,,,,,,,,,,,,,,,,,,,,,,,,,,,,,,,,,,,,,,,,,570.9045085012913,570.9045085012913,0.0070107001811265945,0.0979508999735117,2.0,3.4255906995385885,,,,,,,,,,,,,,676,Moral,2024-06-05_15h19.06.052,MoralCondition_v2,2022.2.5,29.998248061035376,
7,0,7,0,6,0,6,0,,,,,,,,,,,,,,,,,,,,,,,,,,,,,,,,,,,,,,,,,,,,,,,,,,,,574.3713497016579,574.3713497016579,0.007055599242448807,0.09769400022923946,4.0,3.15826359950006,,,,,,,,,,,,,,676,Moral,2024-06-05_15h19.06.052,MoralCondition_v2,2022.2.5,29.998248061035376,
7,0,7,0,,,,,,,,,,,,,,,,,,,,,,,,,,,,,,,,,,,,,,,,,,,,,,,,,,,,,,,,,,,,,,577.5713075008243,577.5713075008243,0.0007082000374794006,0.09918130002915859,3.0,4.766327399760485,,,,,,,,676,Moral,2024-06-05_15h19.06.052,MoralCondition_v2,2022.2.5,29.998248061035376,
8,0,8,0,0,0,0,0,,,,,,,,,,,,,,,,,,,,,582.3712909016758,0.0001400001347064972,0.09944340027868748,588.3877586014569,6.0159782990813255,588.5544153004885,588.5544153004885,0.07106770016252995,0.18291190080344677,6.015945700928569,594.6542901005596,594.6542901005596,594.6542901005596,0.07186450064182281,0.1827149000018835,600.3543135002255,600.5544893015176,6.016111901029944,6.11610360071063,606.5543211009353,12.015937799587846,606.6876603011042,606.6876603011042,0.01615840010344982,0.11601180024445057,up,1.503005599603057,608.2543431017548,5.380064249038696e-05,0.09793389961123466,,614.2708262000233,614.2708262000233,0.0245255995541811,0.11454149894416332,1.0,2.6244847010821104,,,,,,,606.6543610002846,606.6543610002846,594.5544505007565,594.5544505007565,,,,676,Moral,2024-06-05_15h19.06.052,MoralCondition_v2,2022.2.5,29.998248061035376,
8,0,8,0,1,0,1,0,,,,,,,,,,,,,,,,,,,,,,,,,,,,,,,,,,,,,,,,,,,,,,,,,,,,616.9377250000834,616.9377250000834,0.0072245001792907715,0.09775150008499622,1.0,1.4914854001253843,,,,,,,,,,,,,,676,Moral,2024-06-05_15h19.06.052,MoralCondition_v2,2022.2.5,29.998248061035376,
8,0,8,0,2,0,2,0,,,,,,,,,,,,,,,,,,,,,,,,,,,,,,,,,,,,,,,,,,,,,,,,,,,,618.4711731001735,618.4711731001735,0.007372599095106125,0.09911299869418144,7.0,1.9929888993501663,,,,,,,,,,,,,,676,Moral,2024-06-05_15h19.06.052,MoralCondition_v2,2022.2.5,29.998248061035376,
8,0,8,0,3,0,3,0,,,,,,,,,,,,,,,,,,,,,,,,,,,,,,,,,,,,,,,,,,,,,,,,,,,,620.5042715016752,620.5042715016752,0.007561100646853447,0.09802190028131008,5.0,2.4581291992217302,,,,,,,,,,,,,,676,Moral,2024-06-05_15h19.06.052,MoralCondition_v2,2022.2.5,29.998248061035376,
8,0,8,0,4,0,4,0,,,,,,,,,,,,,,,,,,,,,,,,,,,,,,,,,,,,,,,,,,,,,,,,,,,,623.0212055016309,623.0212055016309,0.007958799600601196,0.11453890055418015,1.0,2.47438919916749,,,,,,,,,,,,,,676,Moral,2024-06-05_15h19.06.052,MoralCondition_v2,2022.2.5,29.998248061035376,
8,0,8,0,5,0,5,0,,,,,,,,,,,,,,,,,,,,,,,,,,,,,,,,,,,,,,,,,,,,,,,,,,,,625.5207924004644,625.5207924004644,0.007171399891376495,0.0981092993170023,1.0,3.4253966007381678,,,,,,,,,,,,,,676,Moral,2024-06-05_15h19.06.052,MoralCondition_v2,2022.2.5,29.998248061035376,
8,0,8,0,6,0,6,0,,,,,,,,,,,,,,,,,,,,,,,,,,,,,,,,,,,,,,,,,,,,,,,,,,,,628.9874749016017,628.9874749016017,0.009446699172258377,0.09749609977006912,1.0,1.0224545001983643,,,,,,,,,,,,,,676,Moral,2024-06-05_15h19.06.052,MoralCondition_v2,2022.2.5,29.998248061035376,
8,0,8,0,,,,,,,,,,,,,,,,,,,,,,,,,,,,,,,,,,,,,,,,,,,,,,,,,,,,,,,,,,,,,,630.0543435011059,630.0543435011059,0.0012161992490291595,0.09800239838659763,7.0,6.4311876986175776,,,,,,,,676,Moral,2024-06-05_15h19.06.052,MoralCondition_v2,2022.2.5,29.998248061035376,
9,0,9,0,0,0,0,0,,,,,,,,,,,,,,,,,,,,,636.5210970006883,0.00015730038285255432,0.09919910132884979,642.5208848007023,5.999109400436282,642.7042409013957,642.7042409013957,0.06891550123691559,0.18252980150282383,6.0157725010067225,648.7874225005507,648.7874225005507,648.7874225005507,0.06711750105023384,0.16571780107915401,654.4875592011958,654.6874933000654,5.999112401157618,6.0990858022123575,660.6874649003148,11.999088700860739,660.8208241015673,660.8208241015673,-0.00045049749314785004,0.099022401496768,up,1.8813482988625765,662.7541470006108,5.199946463108063e-05,0.09788270108401775,,668.7706022001803,668.7706022001803,0.024526899680495262,0.11442440003156662,7.0,2.6577751990407705,,,,,,,660.7706286013126,660.7706286013126,648.704159701243,648.704159701243,12.09887540154159,,,676,Moral,2024-06-05_15h19.06.052,MoralCondition_v2,2022.2.5,29.998248061035376,
9,0,9,0,1,0,1,0,,,,,,,,,,,,,,,,,,,,,,,,,,,,,,,,,,,,,,,,,,,,,,,,,,,,671.4706206005067,671.4706206005067,0.006466500461101532,0.09908209927380085,1.0,3.1605408005416393,,,,,,,,,,,,,,676,Moral,2024-06-05_15h19.06.052,MoralCondition_v2,2022.2.5,29.998248061035376,
9,0,9,0,2,0,2,0,,,,,,,,,,,,,,,,,,,,,,,,,,,,,,,,,,,,,,,,,,,,,,,,,,,,674.670625500381,674.670625500381,0.007718101143836975,0.097638800740242,1.0,3.25779540091753,,,,,,,,,,,,,,676,Moral,2024-06-05_15h19.06.052,MoralCondition_v2,2022.2.5,29.998248061035376,
9,0,9,0,3,0,3,0,,,,,,,,,,,,,,,,,,,,,,,,,,,,,,,,,,,,,,,,,,,,,,,,,,,,677.9709443002939,677.9709443002939,0.006355300545692444,0.09852669946849346,1.0,0.8273100014775991,,,,,,,,,,,,,,676,Moral,2024-06-05_15h19.06.052,MoralCondition_v2,2022.2.5,29.998248061035376,
9,0,9,0,4,0,4,0,,,,,,,,,,,,,,,,,,,,,,,,,,,,,,,,,,,,,,,,,,,,,,,,,,,,678.8374596014619,678.8374596014619,0.007150501012802124,0.09820640087127686,5.0,1.9253521002829075,,,,,,,,,,,,,,676,Moral,2024-06-05_15h19.06.052,MoralCondition_v2,2022.2.5,29.998248061035376,
9,0,9,0,5,0,5,0,,,,,,,,,,,,,,,,,,,,,,,,,,,,,,,,,,,,,,,,,,,,,,,,,,,,680.8207549005747,680.8207549005747,0.008242299780249596,0.11457289941608906,1.0,2.907330399379134,,,,,,,,,,,,,,676,Moral,2024-06-05_15h19.06.052,MoralCondition_v2,2022.2.5,29.998248061035376,
9,0,9,0,6,0,6,0,,,,,,,,,,,,,,,,,,,,,,,,,,,,,,,,,,,,,,,,,,,,,,,,,,,,683.7543025016785,683.7543025016785,0.007446400821208954,0.09806540049612522,1.0,0.9580646995455027,,,,,,,,,,,,,,676,Moral,2024-06-05_15h19.06.052,MoralCondition_v2,2022.2.5,29.998248061035376,
9,0,9,0,,,,,,,,,,,,,,,,,,,,,,,,,,,,,,,,,,,,,,,,,,,,,,,,,,,,,,,,,,,,,,684.7539067007601,684.7539067007601,0.00196169875562191,0.09729169867932796,7.0,3.296788899227977,,,,,,,,676,Moral,2024-06-05_15h19.06.052,MoralCondition_v2,2022.2.5,29.998248061035376,
10,0,10,0,0,0,0,0,,,,,,,,,,,,,,,,,,,,,688.0875221006572,0.0002631004899740219,0.09800000116229057,694.104068800807,6.014693900942802,694.2705446016043,694.2705446016043,0.07086070068180561,0.181521100923419,6.014558300375938,700.3708351999521,700.3708351999521,700.3708351999521,0.07244060188531876,0.18129590153694153,706.0706052016467,706.2706286013126,6.014646101742983,6.114613302052021,712.2705186009407,12.014467300847173,712.4039279017597,712.4039279017597,0.014752302318811417,0.11484020203351974,down,2.9550485983490944,715.4038673005998,3.889948129653931e-05,0.09744000062346458,,721.4372664000839,721.4372664000839,0.027318399399518967,0.1309804990887642,6.0,5.27115230076015,,,,,,,712.3539452012628,712.3539452012628,700.2706785015762,700.2706785015762,,,,676,Moral,2024-06-05_15h19.06.052,MoralCondition_v2,2022.2.5,29.998248061035376,
10,0,10,0,1,0,1,0,,,,,,,,,,,,,,,,,,,,,,,,,,,,,,,,,,,,,,,,,,,,,,,,,,,,726.7374141011387,726.7374141011387,0.008403100073337555,0.09753329865634441,5.0,3.32386969961226,,,,,,,,,,,,,,676,Moral,2024-06-05_15h19.06.052,MoralCondition_v2,2022.2.5,29.998248061035376,
10,0,10,0,2,0,2,0,,,,,,,,,,,,,,,,,,,,,,,,,,,,,,,,,,,,,,,,,,,,,,,,,,,,730.1207674015313,730.1207674015313,0.007891200482845306,0.11461330018937588,6.0,2.1074017994105816,,,,,,,,,,,,,,676,Moral,2024-06-05_15h19.06.052,MoralCondition_v2,2022.2.5,29.998248061035376,
10,0,10,0,3,0,3,0,,,,,,,,,,,,,,,,,,,,,,,,,,,,,,,,,,,,,,,,,,,,,,,,,,,,732.2539451010525,732.2539451010525,0.006683100014925003,0.09925580024719238,2.0,3.660130700096488,,,,,,,,,,,,,,676,Moral,2024-06-05_15h19.06.052,MoralCondition_v2,2022.2.5,29.998248061035376,
10,0,10,0,4,0,4,0,,,,,,,,,,,,,,,,,,,,,,,,,,,,,,,,,,,,,,,,,,,,,,,,,,,,735.9708567000926,735.9708567000926,0.008323399350047112,0.114427600055933,6.0,4.606923598796129,,,,,,,,,,,,,,676,Moral,2024-06-05_15h19.06.052,MoralCondition_v2,2022.2.5,29.998248061035376,
10,0,10,0,5,0,5,0,,,,,,,,,,,,,,,,,,,,,,,,,,,,,,,,,,,,,,,,,,,,,,,,,,,,740.6040004007518,740.6040004007518,0.007885199040174484,0.0976209994405508,4.0,6.690886501222849,,,,,,,,,,,,,,676,Moral,2024-06-05_15h19.06.052,MoralCondition_v2,2022.2.5,29.998248061035376,
10,0,10,0,6,0,6,0,,,,,,,,,,,,,,,,,,,,,,,,,,,,,,,,,,,,,,,,,,,,,,,,,,,,747.3371921014041,747.3371921014041,0.007897399365901947,0.09759409911930561,1.0,2.690776601433754,,,,,,,,,,,,,,676,Moral,2024-06-05_15h19.06.052,MoralCondition_v2,2022.2.5,29.998248061035376,
10,0,10,0,,,,,,,,,,,,,,,,,,,,,,,,,,,,,,,,,,,,,,,,,,,,,,,,,,,,,,,,,,,,,,750.0704612005502,750.0704612005502,0.0013110991567373276,0.0976876001805067,2.0,3.2312471009790897,,,,,,,,676,Moral,2024-06-05_15h19.06.052,MoralCondition_v2,2022.2.5,29.998248061035376,
11,0,11,0,0,0,0,0,,,,,,,,,,,,,,,,,,,,,753.3372989017516,0.00013959966599941254,0.0989776998758316,759.353866301477,6.015834599733353,759.5202975999564,759.5202975999564,0.07489750161767006,0.1825783010572195,6.015838000923395,765.6203829012811,765.6203829012811,765.6203829012811,0.07569480128586292,0.18238380178809166,771.3204067014158,771.5204074010253,6.015707600861788,6.115713901817799,777.5203516017646,12.015634201467037,777.6537210009992,777.6537210009992,0.015901202335953712,0.11561550199985504,up,1.6092172972857952,779.3204144015908,5.1800161600112915e-05,0.09778659977018833,,785.3368853013963,785.3368853013963,0.024147899821400642,0.11441590078175068,1.0,2.958950400352478,,,,,,,777.6204614005983,777.6204614005983,765.5204187016934,765.5204187016934,,,,676,Moral,2024-06-05_15h19.06.052,MoralCondition_v2,2022.2.5,29.998248061035376,
11,0,11,0,1,0,1,0,,,,,,,,,,,,,,,,,,,,,,,,,,,,,,,,,,,,,,,,,,,,,,,,,,,,788.3369731009007,788.3369731009007,0.007399201393127441,0.09775000065565109,1.0,1.0249643009155989,,,,,,,,,,,,,,676,Moral,2024-06-05_15h19.06.052,MoralCondition_v2,2022.2.5,29.998248061035376,
11,0,11,0,2,0,2,0,,,,,,,,,,,,,,,,,,,,,,,,,,,,,,,,,,,,,,,,,,,,,,,,,,,,789.4036527015269,789.4036527015269,0.006337199360132217,0.09907259978353977,1.0,0.9940240010619164,,,,,,,,,,,,,,676,Moral,2024-06-05_15h19.06.052,MoralCondition_v2,2022.2.5,29.998248061035376,
11,0,11,0,3,0,3,0,,,,,,,,,,,,,,,,,,,,,,,,,,,,,,,,,,,,,,,,,,,,,,,,,,,,790.4370090011507,790.4370090011507,0.007390599697828293,0.09785250015556812,5.0,2.89158240146935,,,,,,,,,,,,,,676,Moral,2024-06-05_15h19.06.052,MoralCondition_v2,2022.2.5,29.998248061035376,
11,0,11,0,4,0,4,0,,,,,,,,,,,,,,,,,,,,,,,,,,,,,,,,,,,,,,,,,,,,,,,,,,,,793.3702954016626,793.3702954016626,0.007137298583984375,0.09899020008742809,7.0,2.326281299814582,,,,,,,,,,,,,,676,Moral,2024-06-05_15h19.06.052,MoralCondition_v2,2022.2.5,29.998248061035376,
11,0,11,0,5,0,5,0,,,,,,,,,,,,,,,,,,,,,,,,,,,,,,,,,,,,,,,,,,,,,,,,,,,,795.7370136007667,795.7370136007667,0.0072320010513067245,0.09780880063772202,1.0,1.8248606007546186,,,,,,,,,,,,,,676,Moral,2024-06-05_15h19.06.052,MoralCondition_v2,2022.2.5,29.998248061035376,
11,0,11,0,6,0,6,0,,,,,,,,,,,,,,,,,,,,,,,,,,,,,,,,,,,,,,,,,,,,,,,,,,,,797.6036115009338,797.6036115009338,0.007521599531173706,0.09812960028648376,1.0,1.6252225004136562,,,,,,,,,,,,,,676,Moral,2024-06-05_15h19.06.052,MoralCondition_v2,2022.2.5,29.998248061035376,
11,0,11,0,,,,,,,,,,,,,,,,,,,,,,,,,,,,,,,,,,,,,,,,,,,,,,,,,,,,,,,,,,,,,,799.2704029008746,799.2704029008746,0.0006780996918678284,0.09929619915783405,7.0,2.999905301257968,,,,,,,,676,Moral,2024-06-05_15h19.06.052,MoralCondition_v2,2022.2.5,29.998248061035376,
12,0,12,0,0,0,0,0,,,,,,,,,,,,,,,,,,,,,802.3036402016878,0.00039239972829818726,0.09732919931411743,808.3202388007194,6.013993499800563,808.4704953003675,808.4704953003675,0.06520359963178635,0.16418099962174892,6.030552899464965,814.6035777013749,814.6035777013749,814.6035777013749,0.08558070100843906,0.19753850065171719,820.303544100374,820.5037619005889,6.030868999660015,6.130621399730444,826.5035399012268,12.030634600669146,826.6201721001416,826.6201721001416,0.013897500932216644,0.11390840075910091,up,1.770041298121214,828.4368899017572,4.0201470255851746e-05,0.09784690104424953,834.4366681016982,834.4366681016982,834.4366681016982,0.007944101467728615,0.0978942010551691,7.0,1.557735899463296,,,,,,,826.5866969004273,826.5866969004273,814.4702222011983,814.4702222011983,,,,676,Moral,2024-06-05_15h19.06.052,MoralCondition_v2,2022.2.5,29.998248061035376,
12,0,12,0,1,0,1,0,,,,,,,,,,,,,,,,,,,,,,,,,,,,,,,,,,,,,,,,,,,,,,,,,,,,836.0368364006281,836.0368364006281,0.008167000487446785,0.09715129993855953,1.0,3.2566007990390062,,,,,,,,,,,,,,676,Moral,2024-06-05_15h19.06.052,MoralCondition_v2,2022.2.5,29.998248061035376,
12,0,12,0,2,0,2,0,,,,,,,,,,,,,,,,,,,,,,,,,,,,,,,,,,,,,,,,,,,,,,,,,,,,839.3366699013859,839.3366699013859,0.007909700274467468,0.09774749912321568,1.0,1.4577548000961542,,,,,,,,,,,,,,676,Moral,2024-06-05_15h19.06.052,MoralCondition_v2,2022.2.5,29.998248061035376,
12,0,12,0,3,0,3,0,,,,,,,,,,,,,,,,,,,,,,,,,,,,,,,,,,,,,,,,,,,,,,,,,,,,840.8536742012948,840.8536742012948,0.007907100021839142,0.11464180052280426,1.0,0.8409027010202408,,,,,,,,,,,,,,676,Moral,2024-06-05_15h19.06.052,MoralCondition_v2,2022.2.5,29.998248061035376,
12,0,12,0,4,0,4,0,,,,,,,,,,,,,,,,,,,,,,,,,,,,,,,,,,,,,,,,,,,,,,,,,,,,841.720234900713,841.720234900713,0.007116498425602913,0.09869389981031418,1.0,0.8260268997400999,,,,,,,,,,,,,,676,Moral,2024-06-05_15h19.06.052,MoralCondition_v2,2022.2.5,29.998248061035376,
12,0,12,0,5,0,5,0,,,,,,,,,,,,,,,,,,,,,,,,,,,,,,,,,,,,,,,,,,,,,,,,,,,,842.5867993999273,842.5867993999273,0.006481800228357315,0.09901640005409718,5.0,1.4268734995275736,,,,,,,,,,,,,,676,Moral,2024-06-05_15h19.06.052,MoralCondition_v2,2022.2.5,29.998248061035376,
12,0,12,0,6,0,6,0,,,,,,,,,,,,,,,,,,,,,,,,,,,,,,,,,,,,,,,,,,,,,,,,,,,,844.0535056013614,844.0535056013614,0.007449999451637268,0.09789730049669743,1.0,2.957966599613428,,,,,,,,,,,,,,676,Moral,2024-06-05_15h19.06.052,MoralCondition_v2,2022.2.5,29.998248061035376,
12,0,12,0,,,,,,,,,,,,,,,,,,,,,,,,,,,,,,,,,,,,,,,,,,,,,,,,,,,,,,,,,,,,,,847.0536368004978,847.0536368004978,0.0014762990176677704,0.09770309925079346,7.0,2.2311681006103754,,,,,,,,676,Moral,2024-06-05_15h19.06.052,MoralCondition_v2,2022.2.5,29.998248061035376,
13,0,13,0,0,0,0,0,,,,,,,,,,,,,,,,,,,,,849.3200802002102,0.00016460008919239044,0.09867919981479645,855.3200796004385,6.032045099884272,855.5199714004993,855.5199714004993,0.09310860000550747,0.1988363992422819,6.0320865996181965,861.6204406004399,861.6204406004399,861.6204406004399,0.09081990085542202,0.1986967995762825,867.3200504016131,867.52002120018,6.031991800293326,6.1319766994565725,873.5200568009168,12.03203340061009,873.6533401012421,873.6533401012421,0.0321866013109684,0.1319338008761406,up,1.4493526984006166,875.1367715001106,5.2599236369132996e-05,0.09738690033555031,881.1368243005127,881.1368243005127,881.1368243005127,0.007485600188374519,0.09721279889345169,1.0,3.224304899573326,,,,,,,873.6201204005629,873.6201204005629,861.5200287010521,861.5200287010521,,,,676,Moral,2024-06-05_15h19.06.052,MoralCondition_v2,2022.2.5,29.998248061035376,
13,0,13,0,1,0,1,0,,,,,,,,,,,,,,,,,,,,,,,,,,,,,,,,,,,,,,,,,,,,,,,,,,,,884.4033848010004,884.4033848010004,0.007213300094008446,0.09820440039038658,1.0,0.891907399520278,,,,,,,,,,,,,,676,Moral,2024-06-05_15h19.06.052,MoralCondition_v2,2022.2.5,29.998248061035376,
13,0,13,0,2,0,2,0,,,,,,,,,,,,,,,,,,,,,,,,,,,,,,,,,,,,,,,,,,,,,,,,,,,,885.3366439007223,885.3366439007223,0.00656840018928051,0.0991114005446434,7.0,3.026623699814081,,,,,,,,,,,,,,676,Moral,2024-06-05_15h19.06.052,MoralCondition_v2,2022.2.5,29.998248061035376,
13,0,13,0,3,0,3,0,,,,,,,,,,,,,,,,,,,,,,,,,,,,,,,,,,,,,,,,,,,,,,,,,,,,888.4201065003872,888.4201065003872,0.007630998268723488,0.11418409831821918,1.0,1.8739915993064642,,,,,,,,,,,,,,676,Moral,2024-06-05_15h19.06.052,MoralCondition_v2,2022.2.5,29.998248061035376,
13,0,13,0,4,0,4,0,,,,,,,,,,,,,,,,,,,,,,,,,,,,,,,,,,,,,,,,,,,,,,,,,,,,890.3198756016791,890.3198756016791,0.006392600014805794,0.09939750097692013,1.0,0.7939734999090433,,,,,,,,,,,,,,676,Moral,2024-06-05_15h19.06.052,MoralCondition_v2,2022.2.5,29.998248061035376,
13,0,13,0,5,0,5,0,,,,,,,,,,,,,,,,,,,,,,,,,,,,,,,,,,,,,,,,,,,,,,,,,,,,891.1702828016132,891.1702828016132,0.008264601230621338,0.11441820114850998,5.0,1.6403323002159595,,,,,,,,,,,,,,676,Moral,2024-06-05_15h19.06.052,MoralCondition_v2,2022.2.5,29.998248061035376,
13,0,13,0,6,0,6,0,,,,,,,,,,,,,,,,,,,,,,,,,,,,,,,,,,,,,,,,,,,,,,,,,,,,892.8364372011274,892.8364372011274,0.006061600521206856,0.09891249984502792,1.0,1.727139800786972,,,,,,,,,,,,,,676,Moral,2024-06-05_15h19.06.052,MoralCondition_v2,2022.2.5,29.998248061035376,
13,0,13,0,,,,,,,,,,,,,,,,,,,,,,,,,,,,,,,,,,,,,,,,,,,,,,,,,,,,,,,,,,,,,,894.6034919004887,894.6034919004887,0.0010708998888731003,0.09806190058588982,7.0,2.3315102010965347,,,,,,,,676,Moral,2024-06-05_15h19.06.052,MoralCondition_v2,2022.2.5,29.998248061035376,
14,0,14,0,0,0,0,0,,,,,,,,,,,,,,,,,,,,,896.9701779000461,0.00027880072593688965,0.09782820008695126,902.9699440002441,6.031181899830699,903.1698688007891,903.1698688007891,0.09023880027234554,0.19816720113158226,6.03105160035193,909.2699080016464,909.2699080016464,909.2699080016464,0.09144790098071098,0.19780870154500008,914.9698530007154,915.1698486004025,6.031074300408363,6.131030600517988,921.1701836008579,12.031405301764607,921.3029786013067,921.3029786013067,0.03127500228583813,0.14767050184309483,up,0.9832771979272366,922.3198784012347,4.480034112930298e-05,0.09730740077793598,928.319566000253,928.319566000253,928.319566000253,0.003453800454735756,0.09735850058495998,7.0,3.261473599821329,,,,,,,921.2698581013829,921.2698581013829,909.1700456999242,909.1700456999242,,,,676,Moral,2024-06-05_15h19.06.052,MoralCondition_v2,2022.2.5,29.998248061035376,
14,0,14,0,1,0,1,0,,,,,,,,,,,,,,,,,,,,,,,,,,,,,,,,,,,,,,,,,,,,,,,,,,,,931.6195451002568,931.6195451002568,0.008920999243855476,0.098819799721241,1.0,1.8911906015127897,,,,,,,,,,,,,,676,Moral,2024-06-05_15h19.06.052,MoralCondition_v2,2022.2.5,29.998248061035376,
14,0,14,0,2,0,2,0,,,,,,,,,,,,,,,,,,,,,,,,,,,,,,,,,,,,,,,,,,,,,,,,,,,,933.5528631005436,933.5528631005436,0.005973100662231445,0.09923790022730827,1.0,1.99445560015738,,,,,,,,,,,,,,676,Moral,2024-06-05_15h19.06.052,MoralCondition_v2,2022.2.5,29.998248061035376,
14,0,14,0,3,0,3,0,,,,,,,,,,,,,,,,,,,,,,,,,,,,,,,,,,,,,,,,,,,,,,,,,,,,935.5863075014204,935.5863075014204,0.006860099732875824,0.09890319965779781,5.0,1.7264747992157936,,,,,,,,,,,,,,676,Moral,2024-06-05_15h19.06.052,MoralCondition_v2,2022.2.5,29.998248061035376,
14,0,14,0,4,0,4,0,,,,,,,,,,,,,,,,,,,,,,,,,,,,,,,,,,,,,,,,,,,,,,,,,,,,937.3528433013707,937.3528433013707,0.006992699578404427,0.09909879975020885,1.0,1.3598206993192434,,,,,,,,,,,,,,676,Moral,2024-06-05_15h19.06.052,MoralCondition_v2,2022.2.5,29.998248061035376,
14,0,14,0,5,0,5,0,,,,,,,,,,,,,,,,,,,,,,,,,,,,,,,,,,,,,,,,,,,,,,,,,,,,938.7528800014406,938.7528800014406,0.007090499624609947,0.097961300984025,1.0,0.7917925994843245,,,,,,,,,,,,,,676,Moral,2024-06-05_15h19.06.052,MoralCondition_v2,2022.2.5,29.998248061035376,
14,0,14,0,6,0,6,0,,,,,,,,,,,,,,,,,,,,,,,,,,,,,,,,,,,,,,,,,,,,,,,,,,,,939.5862713009119,939.5862713009119,0.00772089883685112,0.09819689951837063,1.0,1.1581712011247873,,,,,,,,,,,,,,676,Moral,2024-06-05_15h19.06.052,MoralCondition_v2,2022.2.5,29.998248061035376,
14,0,14,0,,,,,,,,,,,,,,,,,,,,,,,,,,,,,,,,,,,,,,,,,,,,,,,,,,,,,,,,,,,,,,940.7862513009459,940.7862513009459,0.0008984003216028214,0.09847600013017654,7.0,1.7321883998811245,,,,,,,,676,Moral,2024-06-05_15h19.06.052,MoralCondition_v2,2022.2.5,29.998248061035376,
15,0,15,0,0,0,0,0,,,,,,,,,,,,,,,,,,,,,942.553025400266,0.00019120052456855774,0.09872560016810894,948.5362582001835,6.015534199774265,948.7194402012974,948.7194402012974,0.06277580000460148,0.1654403004795313,5.99938110075891,954.8027890007943,954.8027890007943,954.8027890007943,0.0480951014906168,0.1490412000566721,960.5030126012862,960.7363592013717,6.015729799866676,6.1156710013747215,966.7362106014043,12.015493601560593,966.8862738013268,966.8862738013268,0.032454200088977814,0.1324026007205248,up,1.5363938994705677,968.4863381013274,5.349889397621155e-05,0.09804059937596321,974.5031738001853,974.5031738001853,974.5031738001853,0.00883059948682785,0.11476199887692928,1.0,4.206553200259805,,,,,,,966.7861539013684,966.7861539013684,954.7197557017207,954.7197557017207,,6.098742200061679,6.099258299916983,676,Moral,2024-06-05_15h19.06.052,MoralCondition_v2,2022.2.5,29.998248061035376,
15,0,15,0,1,0,1,0,,,,,,,,,,,,,,,,,,,,,,,,,,,,,,,,,,,,,,,,,,,,,,,,,,,,978.7362728007138,978.7362728007138,0.007340399548411369,0.09755939990282059,1.0,0.8245233986526728,,,,,,,,,,,,,,676,Moral,2024-06-05_15h19.06.052,MoralCondition_v2,2022.2.5,29.998248061035376,
15,0,15,0,2,0,2,0,,,,,,,,,,,,,,,,,,,,,,,,,,,,,,,,,,,,,,,,,,,,,,,,,,,,979.6197121012956,979.6197121012956,0.007825400680303574,0.1142727006226778,7.0,1.4741631001234055,,,,,,,,,,,,,,676,Moral,2024-06-05_15h19.06.052,MoralCondition_v2,2022.2.5,29.998248061035376,
15,0,15,0,3,0,3,0,,,,,,,,,,,,,,,,,,,,,,,,,,,,,,,,,,,,,,,,,,,,,,,,,,,,981.1195165012032,981.1195165012032,0.007230799645185471,0.09789809957146645,1.0,1.2583673987537622,,,,,,,,,,,,,,676,Moral,2024-06-05_15h19.06.052,MoralCondition_v2,2022.2.5,29.998248061035376,
15,0,15,0,4,0,4,0,,,,,,,,,,,,,,,,,,,,,,,,,,,,,,,,,,,,,,,,,,,,,,,,,,,,982.4197010006756,982.4197010006756,0.006611401215195656,0.09871040098369122,5.0,1.5931164994835854,,,,,,,,,,,,,,676,Moral,2024-06-05_15h19.06.052,MoralCondition_v2,2022.2.5,29.998248061035376,
15,0,15,0,5,0,5,0,,,,,,,,,,,,,,,,,,,,,,,,,,,,,,,,,,,,,,,,,,,,,,,,,,,,984.0528986006975,984.0528986006975,0.007542099803686142,0.09796869941055775,1.0,1.3911035992205143,,,,,,,,,,,,,,676,Moral,2024-06-05_15h19.06.052,MoralCondition_v2,2022.2.5,29.998248061035376,
15,0,15,0,6,0,6,0,,,,,,,,,,,,,,,,,,,,,,,,,,,,,,,,,,,,,,,,,,,,,,,,,,,,985.4860576000065,985.4860576000065,0.006993001326918602,0.09904720075428486,1.0,0.8932289015501738,,,,,,,,,,,,,,676,Moral,2024-06-05_15h19.06.052,MoralCondition_v2,2022.2.5,29.998248061035376,
15,0,15,0,,,,,,,,,,,,,,,,,,,,,,,,,,,,,,,,,,,,,,,,,,,,,,,,,,,,,,,,,,,,,,986.4197123013437,986.4197123013437,0.0007167998701334,0.09894360043108463,7.0,1.966041600331664,,,,,,,,676,Moral,2024-06-05_15h19.06.052,MoralCondition_v2,2022.2.5,29.998248061035376,
16,0,16,0,0,0,0,0,,,,,,,,,,,,,,,,,,,,,988.4198143016547,0.00013699941337108612,0.09929139912128448,994.4362085014582,6.0158501993864775,994.602880101651,994.602880101651,0.07289359904825687,0.18256579898297787,6.015812300145626,1000.702677000314,1000.702677000314,1000.702677000314,0.07404899969696999,0.18246879987418652,1006.4028125014156,1006.6030285004526,6.016021400690079,6.115757599473,1012.6027807015926,12.015775799751282,1012.7361129000783,1012.7361129000783,0.015932399779558182,0.11587120033800602,down,0.6142905987799168,1013.4027644004673,4.849955439567566e-05,0.09794970043003559,,1019.4193417001516,1019.4193417001516,0.025965699926018715,0.11458740010857582,1.0,1.7229006998240948,,,,,,,1012.7027649004012,1012.7027649004012,1000.6028099004179,1000.6028099004179,,,,676,Moral,2024-06-05_15h19.06.052,MoralCondition_v2,2022.2.5,29.998248061035376,
16,0,16,0,1,0,1,0,,,,,,,,,,,,,,,,,,,,,,,,,,,,,,,,,,,,,,,,,,,,,,,,,,,,1021.1862115003169,1021.1862115003169,0.006596999242901802,0.09913809970021248,6.0,2.693637501448393,,,,,,,,,,,,,,676,Moral,2024-06-05_15h19.06.052,MoralCondition_v2,2022.2.5,29.998248061035376,
16,0,16,0,2,0,2,0,,,,,,,,,,,,,,,,,,,,,,,,,,,,,,,,,,,,,,,,,,,,,,,,,,,,1023.919415101409,1023.919415101409,0.0068096015602350235,0.09882800094783306,5.0,3.393036400899291,,,,,,,,,,,,,,676,Moral,2024-06-05_15h19.06.052,MoralCondition_v2,2022.2.5,29.998248061035376,
16,0,16,0,3,0,3,0,,,,,,,,,,,,,,,,,,,,,,,,,,,,,,,,,,,,,,,,,,,,,,,,,,,,1027.3527041003108,1027.3527041003108,0.007107701152563095,0.09798270091414452,6.0,1.7920754998922348,,,,,,,,,,,,,,676,Moral,2024-06-05_15h19.06.052,MoralCondition_v2,2022.2.5,29.998248061035376,
16,0,16,0,4,0,4,0,,,,,,,,,,,,,,,,,,,,,,,,,,,,,,,,,,,,,,,,,,,,,,,,,,,,1029.1860570013523,1029.1860570013523,0.0066529009491205215,0.09937459975481033,2.0,2.160121100023389,,,,,,,,,,,,,,676,Moral,2024-06-05_15h19.06.052,MoralCondition_v2,2022.2.5,29.998248061035376,
16,0,16,0,5,0,5,0,,,,,,,,,,,,,,,,,,,,,,,,,,,,,,,,,,,,,,,,,,,,,,,,,,,,1031.3861370999366,1031.3861370999366,0.005799999460577965,0.09912409819662571,6.0,2.394292900338769,,,,,,,,,,,,,,676,Moral,2024-06-05_15h19.06.052,MoralCondition_v2,2022.2.5,29.998248061035376,
16,0,16,0,6,0,6,0,,,,,,,,,,,,,,,,,,,,,,,,,,,,,,,,,,,,,,,,,,,,,,,,,,,,1033.8194189015776,1033.8194189015776,0.0073854997754096985,0.09910929948091507,6.0,1.8928151987493038,,,,,,,,,,,,,,676,Moral,2024-06-05_15h19.06.052,MoralCondition_v2,2022.2.5,29.998248061035376,
16,0,16,0,,,,,,,,,,,,,,,,,,,,,,,,,,,,,,,,,,,,,,,,,,,,,,,,,,,,,,,,,,,,,,1035.7528239004314,1035.7528239004314,0.0013894010335206985,0.0972715001553297,1.0,3.264079799875617,,,,,,,,676,Moral,2024-06-05_15h19.06.052,MoralCondition_v2,2022.2.5,29.998248061035376,
17,0,17,0,0,0,0,0,,,,,,,,,,,,,,,,,,,,,1039.0528596006334,0.0003951992839574814,0.09782589972019196,1045.0526803005487,6.030935600399971,1045.269623901695,1045.269623901695,0.10359049960970879,0.21419689990580082,6.014127099886537,1051.3359851017594,1051.3359851017594,1051.3359851017594,0.07582180015742779,0.18090780079364777,1057.035958500579,1057.235879600048,6.014054700732231,6.114097900688648,1063.2359313014895,12.014172401279211,1063.3692585006356,1063.3692585006356,0.014255201444029808,0.11411490105092525,up,1.5893312990665436,1065.0025578010827,5.0401315093040466e-05,0.09760850109159946,1071.0024916008115,1071.0024916008115,1071.0024916008115,0.0071907006204128265,0.09748869948089123,7.0,1.9915104005485773,,,,,,,1063.3359087016433,1063.3359087016433,,,,,,676,Moral,2024-06-05_15h19.06.052,MoralCondition_v2,2022.2.5,29.998248061035376,
17,0,17,0,1,0,1,0,,,,,,,,,,,,,,,,,,,,,,,,,,,,,,,,,,,,,,,,,,,,,,,,,,,,1073.0359157007188,1073.0359157007188,0.007315699011087418,0.09756599925458431,1.0,1.4580907989293337,,,,,,,,,,,,,,676,Moral,2024-06-05_15h19.06.052,MoralCondition_v2,2022.2.5,29.998248061035376,
17,0,17,0,2,0,2,0,,,,,,,,,,,,,,,,,,,,,,,,,,,,,,,,,,,,,,,,,,,,,,,,,,,,1074.5357773005962,1074.5357773005962,0.007733698934316635,0.09778539836406708,1.0,0.6245265007019043,,,,,,,,,,,,,,676,Moral,2024-06-05_15h19.06.052,MoralCondition_v2,2022.2.5,29.998248061035376,
17,0,17,0,3,0,3,0,,,,,,,,,,,,,,,,,,,,,,,,,,,,,,,,,,,,,,,,,,,,,,,,,,,,1075.2025184016675,1075.2025184016675,0.006217200309038162,0.09824570082128048,1.0,0.759892700240016,,,,,,,,,,,,,,676,Moral,2024-06-05_15h19.06.052,MoralCondition_v2,2022.2.5,29.998248061035376,
17,0,17,0,4,0,4,0,,,,,,,,,,,,,,,,,,,,,,,,,,,,,,,,,,,,,,,,,,,,,,,,,,,,1076.01926510036,1076.01926510036,0.007769400253891945,0.11412259936332703,1.0,0.8074450008571148,,,,,,,,,,,,,,676,Moral,2024-06-05_15h19.06.052,MoralCondition_v2,2022.2.5,29.998248061035376,
17,0,17,0,5,0,5,0,,,,,,,,,,,,,,,,,,,,,,,,,,,,,,,,,,,,,,,,,,,,,,,,,,,,1076.8524777013808,1076.8524777013808,0.00734030082821846,0.09772870130836964,1.0,0.6579787991940975,,,,,,,,,,,,,,676,Moral,2024-06-05_15h19.06.052,MoralCondition_v2,2022.2.5,29.998248061035376,
17,0,17,0,6,0,6,0,,,,,,,,,,,,,,,,,,,,,,,,,,,,,,,,,,,,,,,,,,,,,,,,,,,,1077.5525531005114,1077.5525531005114,0.007134599611163139,0.09767409972846508,5.0,1.391355900093913,,,,,,,,,,,,,,676,Moral,2024-06-05_15h19.06.052,MoralCondition_v2,2022.2.5,29.998248061035376,
17,0,17,0,,,,,,,,,,,,,,,,,,,,,,,,,,,,,,,,,,,,,,,,,,,,,,,,,,,,,,,,,,,,,,1078.9861023016274,1078.9861023016274,0.0015301015228033066,0.09773419983685017,7.0,4.097431099042296,,,,,,,,676,Moral,2024-06-05_15h19.06.052,MoralCondition_v2,2022.2.5,29.998248061035376,
18,0,18,0,0,0,0,0,,,,,,,,,,,,,,,,,,,,,1083.1194650009274,0.00028979964554309845,0.09784449823200703,1089.135849300772,6.014146998524666,1089.3027528002858,1089.3027528002858,0.07010160014033318,0.1811106987297535,6.01413649879396,1095.3857561014593,1095.3857561014593,1095.3857561014593,0.0650590006262064,0.16408579982817173,1101.0857823006809,1101.3191864006221,6.030993599444628,6.1309990007430315,1107.3190636001527,12.030736500397325,1107.4524036999792,1107.4524036999792,0.030936799943447113,0.130706999450922,down,1.4346396997570992,1108.9523987006396,5.020014941692352e-05,0.09756119921803474,1114.9691478013992,1114.9691478013992,1114.9691478013992,0.0088857002556324,0.11428239941596985,2.0,3.1730605997145176,,,,,,,1107.3857204001397,1107.3857204001397,1095.3024572003633,1095.3024572003633,,,,676,Moral,2024-06-05_15h19.06.052,MoralCondition_v2,2022.2.5,29.998248061035376,
18,0,18,0,1,0,1,0,,,,,,,,,,,,,,,,,,,,,,,,,,,,,,,,,,,,,,,,,,,,,,,,,,,,1118.1690708007663,1118.1690708007663,0.006478399038314819,0.0990217998623848,5.0,4.52719740010798,,,,,,,,,,,,,,676,Moral,2024-06-05_15h19.06.052,MoralCondition_v2,2022.2.5,29.998248061035376,
18,0,18,0,2,0,2,0,,,,,,,,,,,,,,,,,,,,,,,,,,,,,,,,,,,,,,,,,,,,,,,,,,,,1122.7359463013709,1122.7359463013709,0.006488000974059105,0.09952040016651154,5.0,1.6605261005461216,,,,,,,,,,,,,,676,Moral,2024-06-05_15h19.06.052,MoralCondition_v2,2022.2.5,29.998248061035376,
18,0,18,0,3,0,3,0,,,,,,,,,,,,,,,,,,,,,,,,,,,,,,,,,,,,,,,,,,,,,,,,,,,,1124.4357326012105,1124.4357326012105,0.006479701027274132,0.09929239936172962,3.0,1.9273710008710623,,,,,,,,,,,,,,676,Moral,2024-06-05_15h19.06.052,MoralCondition_v2,2022.2.5,29.998248061035376,
18,0,18,0,4,0,4,0,,,,,,,,,,,,,,,,,,,,,,,,,,,,,,,,,,,,,,,,,,,,,,,,,,,,1126.4023057017475,1126.4023057017475,0.007928898558020592,0.09816979989409447,4.0,2.291143998503685,,,,,,,,,,,,,,676,Moral,2024-06-05_15h19.06.052,MoralCondition_v2,2022.2.5,29.998248061035376,
18,0,18,0,5,0,5,0,,,,,,,,,,,,,,,,,,,,,,,,,,,,,,,,,,,,,,,,,,,,,,,,,,,,1128.7359444014728,1128.7359444014728,0.006531599909067154,0.09911129996180534,5.0,1.8934733998030424,,,,,,,,,,,,,,676,Moral,2024-06-05_15h19.06.052,MoralCondition_v2,2022.2.5,29.998248061035376,
18,0,18,0,6,0,6,0,,,,,,,,,,,,,,,,,,,,,,,,,,,,,,,,,,,,,,,,,,,,,,,,,,,,1130.668853700161,1130.668853700161,0.007367100566625595,0.097809799015522,5.0,3.5913911014795303,,,,,,,,,,,,,,676,Moral,2024-06-05_15h19.06.052,MoralCondition_v2,2022.2.5,29.998248061035376,
18,0,18,0,,,,,,,,,,,,,,,,,,,,,,,,,,,,,,,,,,,,,,,,,,,,,,,,,,,,,,,,,,,,,,1134.302284700796,1134.302284700796,0.001354999840259552,0.09793730080127716,3.0,5.63103250041604,,,,,,,,676,Moral,2024-06-05_15h19.06.052,MoralCondition_v2,2022.2.5,29.998248061035376,
19,0,19,0,0,0,0,0,,,,,,,,,,,,,,,,,,,,,1139.969319300726,0.000300699844956398,0.09818300046026707,1145.9689352009445,6.031387200579047,1146.1691090017557,1146.1691090017557,0.08402800001204014,0.19820410013198853,6.031353300437331,1152.252195701003,1152.252195701003,1152.252195701003,0.08236770145595074,0.1813706010580063,1157.9522158000618,1158.1521941013634,6.014644900336862,6.114606501534581,1164.1521883010864,12.014639301225543,1164.2855323012918,1164.2855323012918,0.014949401840567589,0.1146026011556387,down,2.3371802996844053,1166.6855268999934,4.759989678859711e-05,0.09793679974973202,1172.702083799988,1172.702083799988,1172.702083799988,0.009210899472236633,0.11471369862556458,5.0,3.8064093999564648,,,,,,,1164.2523761000484,1164.2523761000484,1152.168931800872,1152.168931800872,,,,676,Moral,2024-06-05_15h19.06.052,MoralCondition_v2,2022.2.5,29.998248061035376,
19,0,19,0,1,0,1,0,,,,,,,,,,,,,,,,,,,,,,,,,,,,,,,,,,,,,,,,,,,,,,,,,,,,1176.5355381015688,1176.5355381015688,0.007572600618004799,0.097562400624156,5.0,1.9580295998603106,,,,,,,,,,,,,,676,Moral,2024-06-05_15h19.06.052,MoralCondition_v2,2022.2.5,29.998248061035376,
19,0,19,0,2,0,2,0,,,,,,,,,,,,,,,,,,,,,,,,,,,,,,,,,,,,,,,,,,,,,,,,,,,,1178.5524000003934,1178.5524000003934,0.009366599842905998,0.11380329914391041,5.0,1.8720516003668308,,,,,,,,,,,,,,676,Moral,2024-06-05_15h19.06.052,MoralCondition_v2,2022.2.5,29.998248061035376,
19,0,19,0,3,0,3,0,,,,,,,,,,,,,,,,,,,,,,,,,,,,,,,,,,,,,,,,,,,,,,,,,,,,1180.4520529005677,1180.4520529005677,0.007863199338316917,0.09805859997868538,4.0,2.9577254001051188,,,,,,,,,,,,,,676,Moral,2024-06-05_15h19.06.052,MoralCondition_v2,2022.2.5,29.998248061035376,
19,0,19,0,4,0,4,0,,,,,,,,,,,,,,,,,,,,,,,,,,,,,,,,,,,,,,,,,,,,,,,,,,,,1183.4521520007402,1183.4521520007402,0.006586698815226555,0.09900159947574139,2.0,3.526722000911832,,,,,,,,,,,,,,676,Moral,2024-06-05_15h19.06.052,MoralCondition_v2,2022.2.5,29.998248061035376,
19,0,19,0,5,0,5,0,,,,,,,,,,,,,,,,,,,,,,,,,,,,,,,,,,,,,,,,,,,,,,,,,,,,1187.0187547001988,1187.0187547001988,0.006508899852633476,0.09850429929792881,2.0,1.3931621983647346,,,,,,,,,,,,,,676,Moral,2024-06-05_15h19.06.052,MoralCondition_v2,2022.2.5,29.998248061035376,
19,0,19,0,6,0,6,0,,,,,,,,,,,,,,,,,,,,,,,,,,,,,,,,,,,,,,,,,,,,,,,,,,,,1188.4689293000847,1188.4689293000847,0.008020998910069466,0.1144837997853756,5.0,6.407481299713254,,,,,,,,,,,,,,676,Moral,2024-06-05_15h19.06.052,MoralCondition_v2,2022.2.5,29.998248061035376,
19,0,19,0,,,,,,,,,,,,,,,,,,,,,,,,,,,,,,,,,,,,,,,,,,,,,,,,,,,,,,,,,,,,,,1194.9019548017532,1194.9019548017532,0.0010566003620624542,0.09871460124850273,3.0,3.4985790010541677,,,,,,,,676,Moral,2024-06-05_15h19.06.052,MoralCondition_v2,2022.2.5,29.998248061035376,
