loop.thisRepN,loop.thisTrialN,loop.thisN,loop.thisIndex,evaluate_all_emotions.thisRepN,evaluate_all_emotions.thisTrialN,evaluate_all_emotions.thisN,evaluate_all_emotions.thisIndex,sync_beep_1.started,p_port.started,p_port.stopped,sync_beep_1.stopped,sync_beep_2.started,sync_beep_2.stopped,sync_beep_3.started,sync_beep_3.stopped,sync_beep_4.started,sync_beep_4.stopped,baseline.started,p_port_2.started,p_port_2.stopped,baseline.stopped,p_port_3.started,Game_Start_Text.started,p_port_4.started,p_port_4.stopped,key_resp.started,key_resp.keys,key_resp.rt,fixation_cross.started,p_port_5.started,p_port_5.stopped,fixation_cross.stopped,p_port_6.started,player_image_intro.started,player_name_intro.started,p_port_7.started,p_port_7.stopped,p_port_8.started,player_image_offer.started,player_name_offer.started,proposed_split.started,p_port_9.started,p_port_9.stopped,proposed_split.stopped,accept_reject.started,p_port_15.started,p_port_15.stopped,accept_reject.stopped,p_port_10.started,arrow_instructions.started,offer_choice.started,p_port_11.started,p_port_11.stopped,offer_choice.keys,offer_choice.rt,Instructions_Affinity_Score.started,p_port_12.started,p_port_12.stopped,Instructions_Affinity_Score.stopped,Emotion_Image.started,AffinityScore.started,p_port_13.started,p_port_13.stopped,AffinityScore.response,AffinityScore.rt,Instruction.started,Moral_Disgust_Score.started,p_port_14.started,p_port_14.stopped,Moral_Disgust_Score.response,Moral_Disgust_Score.rt,player_image_intro.stopped,player_name_intro.stopped,player_image_offer.stopped,player_name_offer.stopped,p_port_6.stopped,p_port_8.stopped,p_port_10.stopped,participant,session,date,expName,psychopyVersion,frameRate,
,,,,,,,,20.385176750018218,0.0008394000033149496,0.10482360000241897,20.716523200000665,20.966570710001907,21.26642930000162,21.56682971000082,21.86646870000186,22.16645931000203,22.483016499998485,22.483016499998485,0.021507900004507974,0.1215669000048365,37.49982549999913,15.004927200003294,37.599826500001654,0.004890700005489634,0.10506530000566272,38.08329130000129,space,1.1062748000003921,,,,,,,,,,,,,,,,,,,,,,,,,,,,,,,,,,,,,,,,,,,,,,,,,,,677,Moral,2024-09-06_14h45.20.028,MoralCondition_v2,2022.2.5,30.004359633467956,
0,0,0,0,0,0,0,0,,,,,,,,,,,,,,,,,,,,,,39.249772300001496,0.009998000001360197,0.09856570000192733,45.266479300000356,6.015080500001204,45.59970759999851,45.59970759999851,0.1969762000007904,0.3482888000035018,6.015121600001294,51.56660660000125,51.56660660000125,51.56660660000125,0.07795670000268728,0.21509900000455673,57.26649489999909,57.433154999998806,6.015089000004082,6.1150598000022,63.43316069999855,12.015097600004083,63.56647460000022,63.56647460000022,0.0152881000067282,0.11502020000625635,up,0.8305166999998619,64.4331560999999,4.3700001697288826e-05,0.09673210000255494,70.44967439999891,70.44967439999891,70.44967439999891,0.014484700001048623,0.11347800000294228,1.0,2.4166110000005574,,,,,,,,,,,,,,677,Moral,2024-09-06_14h45.20.028,MoralCondition_v2,2022.2.5,30.004359633467956,
0,0,0,0,1,0,1,0,,,,,,,,,,,,,,,,,,,,,,,,,,,,,,,,,,,,,,,,,,,,,,,,,,,,,72.91669679999904,72.91669679999904,0.012334000002738321,0.11449400000128662,2.0,6.269787699999142,,,,,,,,,,,,,,677,Moral,2024-09-06_14h45.20.028,MoralCondition_v2,2022.2.5,30.004359633467956,
0,0,0,0,2,0,2,0,,,,,,,,,,,,,,,,,,,,,,,,,,,,,,,,,,,,,,,,,,,,,,,,,,,,,79.23340280000048,79.23340280000048,0.011161799997353228,0.11403409999911673,2.0,2.7369354000002204,,,,,,,,,,,,,,677,Moral,2024-09-06_14h45.20.028,MoralCondition_v2,2022.2.5,30.004359633467956,
0,0,0,0,3,0,3,0,,,,,,,,,,,,,,,,,,,,,,,,,,,,,,,,,,,,,,,,,,,,,,,,,,,,,82.01640409999891,82.01640409999891,0.013025699998252094,0.11492069999803789,7.0,1.9695582999993348,,,,,,,,,,,,,,677,Moral,2024-09-06_14h45.20.028,MoralCondition_v2,2022.2.5,30.004359633467956,
0,0,0,0,4,0,4,0,,,,,,,,,,,,,,,,,,,,,,,,,,,,,,,,,,,,,,,,,,,,,,,,,,,,,84.0333716999994,84.0333716999994,0.011967099999310449,0.11447219999899971,1.0,2.8033262999997532,,,,,,,,,,,,,,677,Moral,2024-09-06_14h45.20.028,MoralCondition_v2,2022.2.5,30.004359633467956,
0,0,0,0,5,0,5,0,,,,,,,,,,,,,,,,,,,,,,,,,,,,,,,,,,,,,,,,,,,,,,,,,,,,,86.88334770000074,86.88334770000074,0.011102799999207491,0.11588709999705316,1.0,0.7056678000008105,,,,,,,,,,,,,,677,Moral,2024-09-06_14h45.20.028,MoralCondition_v2,2022.2.5,30.004359633467956,
0,0,0,0,6,0,6,0,,,,,,,,,,,,,,,,,,,,,,,,,,,,,,,,,,,,,,,,,,,,,,,,,,,,,87.61646480000127,87.61646480000127,0.008938899998611305,0.09910479999962263,1.0,0.924495700000989,,,,,,,,,,,,,,677,Moral,2024-09-06_14h45.20.028,MoralCondition_v2,2022.2.5,30.004359633467956,
0,0,0,0,,,,,,,,,,,,,,,,,,,,,,,,,,,,,,,,,,,,,,,,,,,,,,,,,,,,,,,,,,,,,,,88.58331130000079,88.58331130000079,0.001547199997730786,0.09768669999903068,7.0,2.6303728000020783,,,,,,,,677,Moral,2024-09-06_14h45.20.028,MoralCondition_v2,2022.2.5,30.004359633467956,
1,0,1,0,0,0,0,0,,,,,,,,,,,,,,,,,,,,,,91.25008579999849,0.00027489999774843454,0.09733710000000428,97.2498239000015,6.03075059999901,97.48310109999875,97.48310109999875,0.1151772000011988,0.23065539999879547,6.0306038000017,103.54971640000076,103.54971640000076,103.54971640000076,0.0907500000030268,0.19729040000311215,109.26648529999875,109.43312689999948,6.013989000002766,6.114025599999877,115.43319569999949,12.014050400000997,115.56650570000056,115.56650570000056,0.01426490000449121,0.11393660000248929,up,0.8225765000024694,116.43325660000119,5.0099999498343095e-05,0.09784399999989546,,122.46675029999824,122.46675029999824,0.02566129999831901,0.13131549999889103,1.0,1.7735571000011987,,,,,,,,,,,,,,677,Moral,2024-09-06_14h45.20.028,MoralCondition_v2,2022.2.5,30.004359633467956,
1,0,1,0,1,0,1,0,,,,,,,,,,,,,,,,,,,,,,,,,,,,,,,,,,,,,,,,,,,,,,,,,,,,,124.26635030000034,124.26635030000034,0.007159600001614308,0.09787739999956102,1.0,1.3583803000001353,,,,,,,,,,,,,,677,Moral,2024-09-06_14h45.20.028,MoralCondition_v2,2022.2.5,30.004359633467956,
1,0,1,0,2,0,2,0,,,,,,,,,,,,,,,,,,,,,,,,,,,,,,,,,,,,,,,,,,,,,,,,,,,,,125.66650880000088,125.66650880000088,0.00875149999774294,0.09710749999794643,7.0,2.1228004999975383,,,,,,,,,,,,,,677,Moral,2024-09-06_14h45.20.028,MoralCondition_v2,2022.2.5,30.004359633467956,
1,0,1,0,3,0,3,0,,,,,,,,,,,,,,,,,,,,,,,,,,,,,,,,,,,,,,,,,,,,,,,,,,,,,127.83314840000094,127.83314840000094,0.006691599999612663,0.09938680000050226,2.0,1.3936729000015475,,,,,,,,,,,,,,677,Moral,2024-09-06_14h45.20.028,MoralCondition_v2,2022.2.5,30.004359633467956,
1,0,1,0,4,0,4,0,,,,,,,,,,,,,,,,,,,,,,,,,,,,,,,,,,,,,,,,,,,,,,,,,,,,,129.26653889999943,129.26653889999943,0.007815500001015607,0.09821899999951711,3.0,5.158020700000634,,,,,,,,,,,,,,677,Moral,2024-09-06_14h45.20.028,MoralCondition_v2,2022.2.5,30.004359633467956,
1,0,1,0,5,0,5,0,,,,,,,,,,,,,,,,,,,,,,,,,,,,,,,,,,,,,,,,,,,,,,,,,,,,,134.46658350000143,134.46658350000143,0.007205800000519957,0.09809099999984028,1.0,2.7253534000010404,,,,,,,,,,,,,,677,Moral,2024-09-06_14h45.20.028,MoralCondition_v2,2022.2.5,30.004359633467956,
1,0,1,0,6,0,6,0,,,,,,,,,,,,,,,,,,,,,,,,,,,,,,,,,,,,,,,,,,,,,,,,,,,,,137.23315770000045,137.23315770000045,0.006841599999461323,0.09927049999896553,1.0,1.393515199997637,,,,,,,,,,,,,,677,Moral,2024-09-06_14h45.20.028,MoralCondition_v2,2022.2.5,30.004359633467956,
1,0,1,0,,,,,,,,,,,,,,,,,,,,,,,,,,,,,,,,,,,,,,,,,,,,,,,,,,,,,,,,,,,,,,,138.6666222999993,138.6666222999993,0.000705400001606904,0.09950759999992442,7.0,3.499754300002678,,,,,,,,677,Moral,2024-09-06_14h45.20.028,MoralCondition_v2,2022.2.5,30.004359633467956,
2,0,2,0,0,0,0,0,,,,,,,,,,,,,,,,,,,,,,142.20006479999938,0.00028649999876506627,0.09770690000004834,148.20003290000022,6.031307599998399,148.38308079999842,148.38308079999842,0.07537710000178777,0.1810289000022749,6.014399300001969,154.4833585000015,154.4833585000015,154.4833585000015,0.07768260000375449,0.181343400003243,160.18348659999901,160.38324799999828,6.014446500001213,6.114370100003725,166.38324759999887,12.014450400001806,166.51664000000164,166.51664000000164,0.014562700005626539,0.11435800000253948,down,0.7127115000002959,167.283219500001,4.569999873638153e-05,0.09800459999678424,173.2829630999986,173.2829630999986,173.2829630999986,0.00831319999997504,0.09805969999797526,6.0,4.623890599999868,,,,,,,154.38319989999945,154.38319989999945,166.48320850000164,166.48320850000164,,,,677,Moral,2024-09-06_14h45.20.028,MoralCondition_v2,2022.2.5,30.004359633467956,
2,0,2,0,1,0,1,0,,,,,,,,,,,,,,,,,,,,,,,,,,,,,,,,,,,,,,,,,,,,,,,,,,,,,177.9498354999996,177.9498354999996,0.007449099997757003,0.09789230000023963,1.0,1.5914702000009129,,,,,,,,,,,,,,677,Moral,2024-09-06_14h45.20.028,MoralCondition_v2,2022.2.5,30.004359633467956,
2,0,2,0,2,0,2,0,,,,,,,,,,,,,,,,,,,,,,,,,,,,,,,,,,,,,,,,,,,,,,,,,,,,,179.58324459999858,179.58324459999858,0.006539399997564033,0.09915800000089803,4.0,3.393667899999855,,,,,,,,,,,,,,677,Moral,2024-09-06_14h45.20.028,MoralCondition_v2,2022.2.5,30.004359633467956,
2,0,2,0,3,0,3,0,,,,,,,,,,,,,,,,,,,,,,,,,,,,,,,,,,,,,,,,,,,,,,,,,,,,,183.01653559999977,183.01653559999977,0.006764699999621371,0.09903320000012172,3.0,5.626562199999171,,,,,,,,,,,,,,677,Moral,2024-09-06_14h45.20.028,MoralCondition_v2,2022.2.5,30.004359633467956,
2,0,2,0,4,0,4,0,,,,,,,,,,,,,,,,,,,,,,,,,,,,,,,,,,,,,,,,,,,,,,,,,,,,,188.68321239999932,188.68321239999932,0.007005399998888606,0.09910650000165333,5.0,2.9265003000000434,,,,,,,,,,,,,,677,Moral,2024-09-06_14h45.20.028,MoralCondition_v2,2022.2.5,30.004359633467956,
2,0,2,0,5,0,5,0,,,,,,,,,,,,,,,,,,,,,,,,,,,,,,,,,,,,,,,,,,,,,,,,,,,,,191.64990530000068,191.64990530000068,0.006649000002653338,0.09926910000285716,6.0,2.9936016999999993,,,,,,,,,,,,,,677,Moral,2024-09-06_14h45.20.028,MoralCondition_v2,2022.2.5,30.004359633467956,
2,0,2,0,6,0,6,0,,,,,,,,,,,,,,,,,,,,,,,,,,,,,,,,,,,,,,,,,,,,,,,,,,,,,194.68323619999865,194.68323619999865,0.006129200002760626,0.09923560000243015,4.0,8.694078900000022,,,,,,,,,,,,,,677,Moral,2024-09-06_14h45.20.028,MoralCondition_v2,2022.2.5,30.004359633467956,
2,0,2,0,,,,,,,,,,,,,,,,,,,,,,,,,,,,,,,,,,,,,,,,,,,,,,,,,,,,,,,,,,,,,,,203.4165979999998,203.4165979999998,0.0007251000024552923,0.09893650000230991,1.0,6.199538799999573,,,,,,,,677,Moral,2024-09-06_14h45.20.028,MoralCondition_v2,2022.2.5,30.004359633467956,
3,0,3,0,0,0,0,0,,,,,,,,,,,,,,,,,,,,,,209.64987850000034,0.0003281999997852836,0.11364699999830918,215.66657280000072,6.013710600000195,215.85005530000126,215.85005530000126,0.08615980000104173,0.1970902000030037,6.030329500001244,221.9499528999986,221.9499528999986,221.9499528999986,0.09247460000187857,0.1972200000018347,227.64991809999992,227.8499124000009,6.030382600001758,6.130321700002241,233.8499097999993,12.030380300002435,233.98323860000164,233.98323860000164,0.030518000003212364,0.13033170000562677,up,0.8543003000013414,234.88326750000124,4.529999932856299e-05,0.09796540000024834,240.8999502000006,240.8999502000006,240.8999502000006,0.00976760000048671,0.11477219999869703,3.0,3.1057784000004176,,,,,,,221.84992749999947,221.84992749999947,233.94990400000097,233.94990400000097,,,,677,Moral,2024-09-06_14h45.20.028,MoralCondition_v2,2022.2.5,30.004359633467956,
3,0,3,0,1,0,1,0,,,,,,,,,,,,,,,,,,,,,,,,,,,,,,,,,,,,,,,,,,,,,,,,,,,,,244.0333599000005,244.0333599000005,0.006528599999001017,0.09910759999911534,5.0,6.060308100000839,,,,,,,,,,,,,,677,Moral,2024-09-06_14h45.20.028,MoralCondition_v2,2022.2.5,30.004359633467956,
3,0,3,0,2,0,2,0,,,,,,,,,,,,,,,,,,,,,,,,,,,,,,,,,,,,,,,,,,,,,,,,,,,,,250.13308479999978,250.13308479999978,0.007847599998058286,0.09766759999911301,4.0,2.1906347000003734,,,,,,,,,,,,,,677,Moral,2024-09-06_14h45.20.028,MoralCondition_v2,2022.2.5,30.004359633467956,
3,0,3,0,3,0,3,0,,,,,,,,,,,,,,,,,,,,,,,,,,,,,,,,,,,,,,,,,,,,,,,,,,,,,252.36662179999985,252.36662179999985,0.007666899997275323,0.09792659999948228,3.0,3.0910328999998455,,,,,,,,,,,,,,677,Moral,2024-09-06_14h45.20.028,MoralCondition_v2,2022.2.5,30.004359633467956,
3,0,3,0,4,0,4,0,,,,,,,,,,,,,,,,,,,,,,,,,,,,,,,,,,,,,,,,,,,,,,,,,,,,,255.50005429999874,255.50005429999874,0.007597300002089469,0.09814380000170786,4.0,3.224712700000964,,,,,,,,,,,,,,677,Moral,2024-09-06_14h45.20.028,MoralCondition_v2,2022.2.5,30.004359633467956,
3,0,3,0,5,0,5,0,,,,,,,,,,,,,,,,,,,,,,,,,,,,,,,,,,,,,,,,,,,,,,,,,,,,,258.7666582999991,258.7666582999991,0.006550900001457194,0.09911110000030021,4.0,2.2935890999979165,,,,,,,,,,,,,,677,Moral,2024-09-06_14h45.20.028,MoralCondition_v2,2022.2.5,30.004359633467956,
3,0,3,0,6,0,6,0,,,,,,,,,,,,,,,,,,,,,,,,,,,,,,,,,,,,,,,,,,,,,,,,,,,,,261.10000109999964,261.10000109999964,0.007815200002369238,0.09792910000032862,4.0,5.424573100000998,,,,,,,,,,,,,,677,Moral,2024-09-06_14h45.20.028,MoralCondition_v2,2022.2.5,30.004359633467956,
3,0,3,0,,,,,,,,,,,,,,,,,,,,,,,,,,,,,,,,,,,,,,,,,,,,,,,,,,,,,,,,,,,,,,,266.5666210999989,266.5666210999989,0.0006800000010116491,0.09925400000065565,3.0,8.199828900000284,,,,,,,,677,Moral,2024-09-06_14h45.20.028,MoralCondition_v2,2022.2.5,30.004359633467956,
4,0,4,0,0,0,0,0,,,,,,,,,,,,,,,,,,,,,,274.80018239999845,0.00013179999950807542,0.09926690000065719,280.8165915999998,6.015715099998488,281.0165842999995,281.0165842999995,0.10579730000245036,0.21594130000084988,6.015732200001366,287.0831982999989,287.0831982999989,287.0831982999989,0.0693916000018362,0.18267500000365544,292.78326670000024,292.9832853000007,6.015886200002569,6.115747000003466,298.9834434000004,12.015930700003082,299.1166368999984,299.1166368999984,0.015962200002832105,0.11578460000237101,up,0.6802800000004936,299.8499996999999,4.650000118999742e-05,0.09768279999843799,,305.86667379999926,305.86667379999926,0.025664500000857515,0.11426520000168239,7.0,3.0230392000012216,,,,,,,,,299.08329969999977,299.08329969999977,,,,677,Moral,2024-09-06_14h45.20.028,MoralCondition_v2,2022.2.5,30.004359633467956,
4,0,4,0,1,0,1,0,,,,,,,,,,,,,,,,,,,,,,,,,,,,,,,,,,,,,,,,,,,,,,,,,,,,,308.93327879999924,308.93327879999924,0.008381899999221787,0.09755409999706899,1.0,1.390111499997147,,,,,,,,,,,,,,677,Moral,2024-09-06_14h45.20.028,MoralCondition_v2,2022.2.5,30.004359633467956,
4,0,4,0,2,0,2,0,,,,,,,,,,,,,,,,,,,,,,,,,,,,,,,,,,,,,,,,,,,,,,,,,,,,,310.3665632000011,310.3665632000011,0.006692099999781931,0.09930629999871599,1.0,1.4268412999990687,,,,,,,,,,,,,,677,Moral,2024-09-06_14h45.20.028,MoralCondition_v2,2022.2.5,30.004359633467956,
4,0,4,0,3,0,3,0,,,,,,,,,,,,,,,,,,,,,,,,,,,,,,,,,,,,,,,,,,,,,,,,,,,,,311.83329589999994,311.83329589999994,0.006998400000156835,0.0995148000001791,1.0,1.1266237999989244,,,,,,,,,,,,,,677,Moral,2024-09-06_14h45.20.028,MoralCondition_v2,2022.2.5,30.004359633467956,
4,0,4,0,4,0,4,0,,,,,,,,,,,,,,,,,,,,,,,,,,,,,,,,,,,,,,,,,,,,,,,,,,,,,313.01687390000006,313.01687390000006,0.008251999999629334,0.11425470000176574,1.0,2.1404450999980327,,,,,,,,,,,,,,677,Moral,2024-09-06_14h45.20.028,MoralCondition_v2,2022.2.5,30.004359633467956,
4,0,4,0,5,0,5,0,,,,,,,,,,,,,,,,,,,,,,,,,,,,,,,,,,,,,,,,,,,,,,,,,,,,,315.18319260000135,315.18319260000135,0.006773999997676583,0.09939630000008037,3.0,3.760344599999371,,,,,,,,,,,,,,677,Moral,2024-09-06_14h45.20.028,MoralCondition_v2,2022.2.5,30.004359633467956,
4,0,4,0,6,0,6,0,,,,,,,,,,,,,,,,,,,,,,,,,,,,,,,,,,,,,,,,,,,,,,,,,,,,,318.98329580000063,318.98329580000063,0.007585399998788489,0.09818129999985103,4.0,4.458337799998844,,,,,,,,,,,,,,677,Moral,2024-09-06_14h45.20.028,MoralCondition_v2,2022.2.5,30.004359633467956,
4,0,4,0,,,,,,,,,,,,,,,,,,,,,,,,,,,,,,,,,,,,,,,,,,,,,,,,,,,,,,,,,,,,,,,323.4833127999991,323.4833127999991,0.0013163000003260095,0.09779749999870546,7.0,3.2308374000022013,,,,,,,,677,Moral,2024-09-06_14h45.20.028,MoralCondition_v2,2022.2.5,30.004359633467956,
5,0,5,0,0,0,0,0,,,,,,,,,,,,,,,,,,,,,,326.7501952999992,0.0003068000005441718,0.09830969999893568,332.7499644000018,6.031677899998613,332.9497940000001,332.9497940000001,0.09167430000161403,0.19839210000282037,6.031699000002845,339.05014460000166,339.05014460000166,339.05014460000166,0.08798610000303597,0.19833010000365903,344.74997879999864,344.9499830999994,6.031746100001328,6.131666400004178,350.9500021999993,12.03174510000099,351.0833324999985,351.0833324999985,0.0318790000055742,0.13171100000545266,up,1.137564900000143,352.283322700001,4.350000017439015e-05,0.09802140000101645,358.28319460000057,358.28319460000057,358.28319460000057,0.008020100001886021,0.09809099999984028,1.0,1.6908270999992965,,,,,,,338.94996000000174,338.94996000000174,351.0499860000018,351.0499860000018,,,,677,Moral,2024-09-06_14h45.20.028,MoralCondition_v2,2022.2.5,30.004359633467956,
5,0,5,0,1,0,1,0,,,,,,,,,,,,,,,,,,,,,,,,,,,,,,,,,,,,,,,,,,,,,,,,,,,,,360.01657709999927,360.01657709999927,0.006780399999115616,0.09921149999718182,1.0,0.6934994000002916,,,,,,,,,,,,,,677,Moral,2024-09-06_14h45.20.028,MoralCondition_v2,2022.2.5,30.004359633467956,
5,0,5,0,2,0,2,0,,,,,,,,,,,,,,,,,,,,,,,,,,,,,,,,,,,,,,,,,,,,,,,,,,,,,360.74981860000116,360.74981860000116,0.006560699999681674,0.09907969999767374,1.0,0.6601496000002953,,,,,,,,,,,,,,677,Moral,2024-09-06_14h45.20.028,MoralCondition_v2,2022.2.5,30.004359633467956,
5,0,5,0,3,0,3,0,,,,,,,,,,,,,,,,,,,,,,,,,,,,,,,,,,,,,,,,,,,,,,,,,,,,,361.4669004999996,361.4669004999996,0.008401000002777437,0.11420600000201375,3.0,1.7403775999991922,,,,,,,,,,,,,,677,Moral,2024-09-06_14h45.20.028,MoralCondition_v2,2022.2.5,30.004359633467956,
5,0,5,0,4,0,4,0,,,,,,,,,,,,,,,,,,,,,,,,,,,,,,,,,,,,,,,,,,,,,,,,,,,,,363.23331300000063,363.23331300000063,0.006449000000429805,0.09867170000143233,1.0,1.9262671000033151,,,,,,,,,,,,,,677,Moral,2024-09-06_14h45.20.028,MoralCondition_v2,2022.2.5,30.004359633467956,
5,0,5,0,5,0,5,0,,,,,,,,,,,,,,,,,,,,,,,,,,,,,,,,,,,,,,,,,,,,,,,,,,,,,365.21668639999916,365.21668639999916,0.007962100000440842,0.11412629999904311,6.0,6.840626199998951,,,,,,,,,,,,,,677,Moral,2024-09-06_14h45.20.028,MoralCondition_v2,2022.2.5,30.004359633467956,
5,0,5,0,6,0,6,0,,,,,,,,,,,,,,,,,,,,,,,,,,,,,,,,,,,,,,,,,,,,,,,,,,,,,372.0831560000006,372.0831560000006,0.00841990000117221,0.09794420000253012,7.0,1.1905413000022236,,,,,,,,,,,,,,677,Moral,2024-09-06_14h45.20.028,MoralCondition_v2,2022.2.5,30.004359633467956,
5,0,5,0,,,,,,,,,,,,,,,,,,,,,,,,,,,,,,,,,,,,,,,,,,,,,,,,,,,,,,,,,,,,,,,373.3166502999993,373.3166502999993,0.0012980999999854248,0.0978979999999865,7.0,1.931074100000842,,,,,,,,677,Moral,2024-09-06_14h45.20.028,MoralCondition_v2,2022.2.5,30.004359633467956,
6,0,6,0,0,0,0,0,,,,,,,,,,,,,,,,,,,,,,375.28363779999927,0.00014710000323248096,0.09920700000293436,381.2999603999997,6.0158457000034105,381.4664558000004,381.4664558000004,0.07739620000211289,0.1825293000038073,6.01579600000332,387.56648510000014,387.56648510000014,387.56648510000014,0.07903270000315388,0.18247230000633863,393.26666190000105,393.4666184000016,6.015834400004678,6.115974200005439,399.46664840000085,12.015861700005189,399.59994789999837,399.59994789999837,0.01612290000775829,0.11592070000551757,up,1.0531230999986292,400.69997220000005,1.880000127130188e-05,0.0993536000023596,406.70011050000176,406.70011050000176,406.70011050000176,0.010729900001024362,0.09918060000200057,4.0,6.1229103000005125,,,,,,,387.4666345000005,387.4666345000005,399.5666826000015,399.5666826000015,,,,677,Moral,2024-09-06_14h45.20.028,MoralCondition_v2,2022.2.5,30.004359633467956,
6,0,6,0,1,0,1,0,,,,,,,,,,,,,,,,,,,,,,,,,,,,,,,,,,,,,,,,,,,,,,,,,,,,,412.8666249000016,412.8666249000016,0.008054099998844322,0.0974181999990833,5.0,3.5572113000016543,,,,,,,,,,,,,,677,Moral,2024-09-06_14h45.20.028,MoralCondition_v2,2022.2.5,30.004359633467956,
6,0,6,0,2,0,2,0,,,,,,,,,,,,,,,,,,,,,,,,,,,,,,,,,,,,,,,,,,,,,,,,,,,,,416.466552599999,416.466552599999,0.006277699998463504,0.09925659999862546,5.0,5.093810899998061,,,,,,,,,,,,,,677,Moral,2024-09-06_14h45.20.028,MoralCondition_v2,2022.2.5,30.004359633467956,
6,0,6,0,3,0,3,0,,,,,,,,,,,,,,,,,,,,,,,,,,,,,,,,,,,,,,,,,,,,,,,,,,,,,421.61660530000154,421.61660530000154,0.0095543000024918,0.11432010000135051,4.0,1.6721924000012223,,,,,,,,,,,,,,677,Moral,2024-09-06_14h45.20.028,MoralCondition_v2,2022.2.5,30.004359633467956,
6,0,6,0,4,0,4,0,,,,,,,,,,,,,,,,,,,,,,,,,,,,,,,,,,,,,,,,,,,,,,,,,,,,,423.31648679999853,423.31648679999853,0.0065027999989979435,0.09941500000059023,2.0,3.860422400000971,,,,,,,,,,,,,,677,Moral,2024-09-06_14h45.20.028,MoralCondition_v2,2022.2.5,30.004359633467956,
6,0,6,0,5,0,5,0,,,,,,,,,,,,,,,,,,,,,,,,,,,,,,,,,,,,,,,,,,,,,,,,,,,,,427.21654839999974,427.21654839999974,0.0075827999971807,0.09784939999735798,2.0,2.6913290999982564,,,,,,,,,,,,,,677,Moral,2024-09-06_14h45.20.028,MoralCondition_v2,2022.2.5,30.004359633467956,
6,0,6,0,6,0,6,0,,,,,,,,,,,,,,,,,,,,,,,,,,,,,,,,,,,,,,,,,,,,,,,,,,,,,429.9499090999998,429.9499090999998,0.009922999997797888,0.09810379999908037,2.0,2.055672100002994,,,,,,,,,,,,,,677,Moral,2024-09-06_14h45.20.028,MoralCondition_v2,2022.2.5,30.004359633467956,
6,0,6,0,,,,,,,,,,,,,,,,,,,,,,,,,,,,,,,,,,,,,,,,,,,,,,,,,,,,,,,,,,,,,,,432.0500256000014,432.0500256000014,0.0012692000018432736,0.09821219999867026,2.0,2.3647907999984454,,,,,,,,677,Moral,2024-09-06_14h45.20.028,MoralCondition_v2,2022.2.5,30.004359633467956,
7,0,7,0,0,0,0,0,,,,,,,,,,,,,,,,,,,,,,434.4501539999983,0.00028929999825777486,0.09791649999897345,440.4665980999998,6.014425699999265,440.6499470000017,440.6499470000017,0.09488770000098157,0.19793310000022757,6.03119389999847,446.7499807999993,446.7499807999993,446.7499807999993,0.09520030000203406,0.19806400000015856,452.4501373999992,452.64997389999917,6.031112500000745,6.131060400002752,458.6499478000005,12.03108390000125,458.78329510000185,458.78329510000185,0.031212800004141172,0.13126460000421503,down,1.5576632999982394,460.3999521000005,4.579999949783087e-05,0.09794160000092234,,466.41678479999973,466.41678479999973,0.025655400000687223,0.11456810000163387,2.0,3.1565012999999453,,,,,,,446.649953600001,446.649953600001,458.7499244999999,458.7499244999999,,,,677,Moral,2024-09-06_14h45.20.028,MoralCondition_v2,2022.2.5,30.004359633467956,
7,0,7,0,1,0,1,0,,,,,,,,,,,,,,,,,,,,,,,,,,,,,,,,,,,,,,,,,,,,,,,,,,,,,469.61662480000086,469.61662480000086,0.007901199998741504,0.09813469999789959,1.0,2.5576685999985784,,,,,,,,,,,,,,677,Moral,2024-09-06_14h45.20.028,MoralCondition_v2,2022.2.5,30.004359633467956,
7,0,7,0,2,0,2,0,,,,,,,,,,,,,,,,,,,,,,,,,,,,,,,,,,,,,,,,,,,,,,,,,,,,,472.2166646000005,472.2166646000005,0.006584800001292024,0.09926510000150301,4.0,6.526784999998199,,,,,,,,,,,,,,677,Moral,2024-09-06_14h45.20.028,MoralCondition_v2,2022.2.5,30.004359633467956,
7,0,7,0,3,0,3,0,,,,,,,,,,,,,,,,,,,,,,,,,,,,,,,,,,,,,,,,,,,,,,,,,,,,,478.8001680999987,478.8001680999987,0.008214699999371078,0.11452379999900586,5.0,2.909016399997199,,,,,,,,,,,,,,677,Moral,2024-09-06_14h45.20.028,MoralCondition_v2,2022.2.5,30.004359633467956,
7,0,7,0,4,0,4,0,,,,,,,,,,,,,,,,,,,,,,,,,,,,,,,,,,,,,,,,,,,,,,,,,,,,,481.7330839999995,481.7330839999995,0.007709699999395525,0.09795339999982389,6.0,2.924371200002497,,,,,,,,,,,,,,677,Moral,2024-09-06_14h45.20.028,MoralCondition_v2,2022.2.5,30.004359633467956,
7,0,7,0,5,0,5,0,,,,,,,,,,,,,,,,,,,,,,,,,,,,,,,,,,,,,,,,,,,,,,,,,,,,,484.6999723000008,484.6999723000008,0.007742699999653269,0.09825439999985974,4.0,3.1249318000009225,,,,,,,,,,,,,,677,Moral,2024-09-06_14h45.20.028,MoralCondition_v2,2022.2.5,30.004359633467956,
7,0,7,0,6,0,6,0,,,,,,,,,,,,,,,,,,,,,,,,,,,,,,,,,,,,,,,,,,,,,,,,,,,,,487.86668030000146,487.86668030000146,0.006613900000957074,0.09925469999870984,5.0,2.4601531000007526,,,,,,,,,,,,,,677,Moral,2024-09-06_14h45.20.028,MoralCondition_v2,2022.2.5,30.004359633467956,
7,0,7,0,,,,,,,,,,,,,,,,,,,,,,,,,,,,,,,,,,,,,,,,,,,,,,,,,,,,,,,,,,,,,,,490.3668155999985,490.3668155999985,0.0007227000023704022,0.09939099999974133,2.0,2.1663399999997637,,,,,,,,677,Moral,2024-09-06_14h45.20.028,MoralCondition_v2,2022.2.5,30.004359633467956,
8,0,8,0,0,0,0,0,,,,,,,,,,,,,,,,,,,,,,492.56678829999873,0.0002817999993567355,0.09777780000149505,498.5832831000007,6.014446200002567,498.7502286000017,498.7502286000017,0.0712115000023914,0.181368300003669,6.014448200003244,504.8498075999996,504.8498075999996,504.8498075999996,0.06726320000234409,0.18116760000339127,510.5501952000013,510.7499701000015,6.014536600003339,6.114419400004408,516.7499114999991,12.014490600002318,516.8832402000007,516.8832402000007,0.014667800005554454,0.11446230000365176,up,0.9702033000030497,517.916550599999,6.209999992279336e-05,0.09786560000065947,,523.933404200001,523.933404200001,0.02589369999986957,0.11469660000147996,3.0,3.223252499999944,,,,,,,504.74989070000083,504.74989070000083,516.849947499999,516.849947499999,,,,677,Moral,2024-09-06_14h45.20.028,MoralCondition_v2,2022.2.5,30.004359633467956,
8,0,8,0,1,0,1,0,,,,,,,,,,,,,,,,,,,,,,,,,,,,,,,,,,,,,,,,,,,,,,,,,,,,,527.1997295000001,527.1997295000001,0.006611099997826386,0.09946710000076564,1.0,3.2602800999993633,,,,,,,,,,,,,,677,Moral,2024-09-06_14h45.20.028,MoralCondition_v2,2022.2.5,30.004359633467956,
8,0,8,0,2,0,2,0,,,,,,,,,,,,,,,,,,,,,,,,,,,,,,,,,,,,,,,,,,,,,,,,,,,,,530.5000078000012,530.5000078000012,0.008228099999541882,0.09719649999897229,7.0,1.9572833000020182,,,,,,,,,,,,,,677,Moral,2024-09-06_14h45.20.028,MoralCondition_v2,2022.2.5,30.004359633467956,
8,0,8,0,3,0,3,0,,,,,,,,,,,,,,,,,,,,,,,,,,,,,,,,,,,,,,,,,,,,,,,,,,,,,532.499835999999,532.499835999999,0.00727520000145887,0.09780930000124499,1.0,1.5581975999994029,,,,,,,,,,,,,,677,Moral,2024-09-06_14h45.20.028,MoralCondition_v2,2022.2.5,30.004359633467956,
8,0,8,0,4,0,4,0,,,,,,,,,,,,,,,,,,,,,,,,,,,,,,,,,,,,,,,,,,,,,,,,,,,,,534.1166105000011,534.1166105000011,0.009033699996507494,0.11464629999682074,3.0,3.106511900001351,,,,,,,,,,,,,,677,Moral,2024-09-06_14h45.20.028,MoralCondition_v2,2022.2.5,30.004359633467956,
8,0,8,0,5,0,5,0,,,,,,,,,,,,,,,,,,,,,,,,,,,,,,,,,,,,,,,,,,,,,,,,,,,,,537.2499453000019,537.2499453000019,0.00652059999993071,0.09948219999932917,1.0,1.3936571999984153,,,,,,,,,,,,,,677,Moral,2024-09-06_14h45.20.028,MoralCondition_v2,2022.2.5,30.004359633467956,
8,0,8,0,6,0,6,0,,,,,,,,,,,,,,,,,,,,,,,,,,,,,,,,,,,,,,,,,,,,,,,,,,,,,538.6833465000018,538.6833465000018,0.007800799998221919,0.09784409999701893,1.0,0.9910967000032542,,,,,,,,,,,,,,677,Moral,2024-09-06_14h45.20.028,MoralCondition_v2,2022.2.5,30.004359633467956,
8,0,8,0,,,,,,,,,,,,,,,,,,,,,,,,,,,,,,,,,,,,,,,,,,,,,,,,,,,,,,,,,,,,,,,539.7165009000018,539.7165009000018,0.0006700000012642704,0.09912529999928665,7.0,1.7995026000025973,,,,,,,,677,Moral,2024-09-06_14h45.20.028,MoralCondition_v2,2022.2.5,30.004359633467956,
9,0,9,0,0,0,0,0,,,,,,,,,,,,,,,,,,,,,,541.5499181000014,0.00039819999801693484,0.09710439999980736,547.5498727999984,6.030675399997563,547.7664317000017,547.7664317000017,0.09792880000168225,0.21395940000002156,6.014013100000739,553.8164422000009,553.8164422000009,553.8164422000009,0.06426270000156364,0.16401800000312505,559.5165234999986,559.7497866999984,6.030530700001691,6.130640800001856,565.7498790999998,12.030663500001538,565.8665485999991,565.8665485999991,0.01399180000225897,0.11392440000417992,down,0.5144856000006257,566.4331897000011,4.39000032201875e-05,0.0979366999999911,,572.4496904000007,572.4496904000007,0.025785699999687495,0.11469500000021071,6.0,2.323041200001171,,,,,,,,,565.7996682000012,565.7996682000012,,,,677,Moral,2024-09-06_14h45.20.028,MoralCondition_v2,2022.2.5,30.004359633467956,
9,0,9,0,1,0,1,0,,,,,,,,,,,,,,,,,,,,,,,,,,,,,,,,,,,,,,,,,,,,,,,,,,,,,574.8165004000002,574.8165004000002,0.006727200001478195,0.09927750000133528,4.0,6.826831200000015,,,,,,,,,,,,,,677,Moral,2024-09-06_14h45.20.028,MoralCondition_v2,2022.2.5,30.004359633467956,
9,0,9,0,2,0,2,0,,,,,,,,,,,,,,,,,,,,,,,,,,,,,,,,,,,,,,,,,,,,,,,,,,,,,581.6833905999993,581.6833905999993,0.006677200002741301,0.09938940000211005,5.0,3.7267885000001115,,,,,,,,,,,,,,677,Moral,2024-09-06_14h45.20.028,MoralCondition_v2,2022.2.5,30.004359633467956,
9,0,9,0,3,0,3,0,,,,,,,,,,,,,,,,,,,,,,,,,,,,,,,,,,,,,,,,,,,,,,,,,,,,,585.4666715999992,585.4666715999992,0.008095199998933822,0.11435929999788641,1.0,1.5739135000003444,,,,,,,,,,,,,,677,Moral,2024-09-06_14h45.20.028,MoralCondition_v2,2022.2.5,30.004359633467956,
9,0,9,0,4,0,4,0,,,,,,,,,,,,,,,,,,,,,,,,,,,,,,,,,,,,,,,,,,,,,,,,,,,,,587.0665626000009,587.0665626000009,0.007503299999370938,0.09758099999817205,6.0,1.4247527999978047,,,,,,,,,,,,,,677,Moral,2024-09-06_14h45.20.028,MoralCondition_v2,2022.2.5,30.004359633467956,
9,0,9,0,5,0,5,0,,,,,,,,,,,,,,,,,,,,,,,,,,,,,,,,,,,,,,,,,,,,,,,,,,,,,588.5332204000006,588.5332204000006,0.007212900000013178,0.0974765999999363,6.0,1.1911869000032311,,,,,,,,,,,,,,677,Moral,2024-09-06_14h45.20.028,MoralCondition_v2,2022.2.5,30.004359633467956,
9,0,9,0,6,0,6,0,,,,,,,,,,,,,,,,,,,,,,,,,,,,,,,,,,,,,,,,,,,,,,,,,,,,,589.7665717999989,589.7665717999989,0.007528699999966193,0.09797919999982696,5.0,3.0245208000014827,,,,,,,,,,,,,,677,Moral,2024-09-06_14h45.20.028,MoralCondition_v2,2022.2.5,30.004359633467956,
9,0,9,0,,,,,,,,,,,,,,,,,,,,,,,,,,,,,,,,,,,,,,,,,,,,,,,,,,,,,,,,,,,,,,,592.8333087999999,592.8333087999999,0.0014293999993242323,0.09760110000206623,1.0,1.9640567999995255,,,,,,,,677,Moral,2024-09-06_14h45.20.028,MoralCondition_v2,2022.2.5,30.004359633467956,
10,0,10,0,0,0,0,0,,,,,,,,,,,,,,,,,,,,,,594.8333817999992,0.00028870000096503645,0.09814159999950789,600.8332456999997,6.031475800002227,601.0331273000011,601.0331273000011,0.08488770000258228,0.1982086000025447,6.031393100001878,607.1331701000017,607.1331701000017,607.1331701000017,0.0878132000034384,0.19806890000472777,612.8333299000005,613.0331198999993,6.031370900003822,6.131649300004938,619.0330562000017,12.031222100005834,619.1497836999988,619.1497836999988,0.014731200004462153,0.11461470000722329,up,0.759071500000573,619.9498500000009,4.600000102072954e-05,0.09827370000130031,,625.9666729000019,625.9666729000019,0.025518900001770817,0.11453020000044489,1.0,6.189885799998592,,,,,,,607.0331340000012,607.0331340000012,619.116359399999,619.116359399999,,,,677,Moral,2024-09-06_14h45.20.028,MoralCondition_v2,2022.2.5,30.004359633467956,
10,0,10,0,1,0,1,0,,,,,,,,,,,,,,,,,,,,,,,,,,,,,,,,,,,,,,,,,,,,,,,,,,,,,632.1996999000003,632.1996999000003,0.007620799999131123,0.09786609999719076,7.0,1.8910909999976866,,,,,,,,,,,,,,677,Moral,2024-09-06_14h45.20.028,MoralCondition_v2,2022.2.5,30.004359633467956,
10,0,10,0,2,0,2,0,,,,,,,,,,,,,,,,,,,,,,,,,,,,,,,,,,,,,,,,,,,,,,,,,,,,,634.1498001,634.1498001,0.008344599998963531,0.11460420000003069,1.0,1.507059700001264,,,,,,,,,,,,,,677,Moral,2024-09-06_14h45.20.028,MoralCondition_v2,2022.2.5,30.004359633467956,
10,0,10,0,3,0,3,0,,,,,,,,,,,,,,,,,,,,,,,,,,,,,,,,,,,,,,,,,,,,,,,,,,,,,635.6999236000011,635.6999236000011,0.008330500000738539,0.11451019999731216,1.0,0.8403924000012921,,,,,,,,,,,,,,677,Moral,2024-09-06_14h45.20.028,MoralCondition_v2,2022.2.5,30.004359633467956,
10,0,10,0,4,0,4,0,,,,,,,,,,,,,,,,,,,,,,,,,,,,,,,,,,,,,,,,,,,,,,,,,,,,,636.5833286999987,636.5833286999987,0.008269199999631383,0.11424909999914235,1.0,0.7737614999969082,,,,,,,,,,,,,,677,Moral,2024-09-06_14h45.20.028,MoralCondition_v2,2022.2.5,30.004359633467956,
10,0,10,0,5,0,5,0,,,,,,,,,,,,,,,,,,,,,,,,,,,,,,,,,,,,,,,,,,,,,,,,,,,,,637.3829915999995,637.3829915999995,0.007083699998474913,0.09923100000014529,3.0,1.9933832999995502,,,,,,,,,,,,,,677,Moral,2024-09-06_14h45.20.028,MoralCondition_v2,2022.2.5,30.004359633467956,
10,0,10,0,6,0,6,0,,,,,,,,,,,,,,,,,,,,,,,,,,,,,,,,,,,,,,,,,,,,,,,,,,,,,639.4332319999994,639.4332319999994,0.007852999999158783,0.11430660000041826,3.0,6.4074117000018305,,,,,,,,,,,,,,677,Moral,2024-09-06_14h45.20.028,MoralCondition_v2,2022.2.5,30.004359633467956,
10,0,10,0,,,,,,,,,,,,,,,,,,,,,,,,,,,,,,,,,,,,,,,,,,,,,,,,,,,,,,,,,,,,,,,645.8664086999997,645.8664086999997,0.0012800000004062895,0.09823659999892698,7.0,3.731589500002883,,,,,,,,677,Moral,2024-09-06_14h45.20.028,MoralCondition_v2,2022.2.5,30.004359633467956,
11,0,11,0,0,0,0,0,,,,,,,,,,,,,,,,,,,,,,649.6331630999994,0.0001274999995075632,0.099163499999122,655.6330558000009,5.999188300000242,655.8162364000018,655.8162364000018,0.0846153000020422,0.1825295000016922,6.015814700000192,661.9165796999987,661.9165796999987,661.9165796999987,0.07546220000222092,0.18252340000253753,667.6163893999983,667.8163991000001,6.015951100001985,6.115800300001865,673.8164886999984,12.015996100002667,673.9496705999991,673.9496705999991,0.015927800002828008,0.11579030000211787,down,0.4952287999985856,674.4997062000002,4.070000068168156e-05,0.09824630000002799,,680.5167058000006,680.5167058000006,0.025563300001522293,0.11483729999963543,1.0,2.4900802000011026,,,,,,,661.8164141999987,661.8164141999987,673.9163121999991,673.9163121999991,6.099150800000643,,,677,Moral,2024-09-06_14h45.20.028,MoralCondition_v2,2022.2.5,30.004359633467956,
11,0,11,0,1,0,1,0,,,,,,,,,,,,,,,,,,,,,,,,,,,,,,,,,,,,,,,,,,,,,,,,,,,,,683.0495964000002,683.0495964000002,0.006617900002311217,0.099185099999886,2.0,2.793733999998949,,,,,,,,,,,,,,677,Moral,2024-09-06_14h45.20.028,MoralCondition_v2,2022.2.5,30.004359633467956,
11,0,11,0,2,0,2,0,,,,,,,,,,,,,,,,,,,,,,,,,,,,,,,,,,,,,,,,,,,,,,,,,,,,,685.8830546999998,685.8830546999998,0.0075446999981068075,0.09788329999719281,5.0,2.291164400001435,,,,,,,,,,,,,,677,Moral,2024-09-06_14h45.20.028,MoralCondition_v2,2022.2.5,30.004359633467956,
11,0,11,0,3,0,3,0,,,,,,,,,,,,,,,,,,,,,,,,,,,,,,,,,,,,,,,,,,,,,,,,,,,,,688.2163347999995,688.2163347999995,0.006375700002536178,0.09860420000040904,2.0,2.026599000000715,,,,,,,,,,,,,,677,Moral,2024-09-06_14h45.20.028,MoralCondition_v2,2022.2.5,30.004359633467956,
11,0,11,0,4,0,4,0,,,,,,,,,,,,,,,,,,,,,,,,,,,,,,,,,,,,,,,,,,,,,,,,,,,,,690.2831284999993,690.2831284999993,0.0065104999994218815,0.09924689999752445,5.0,4.027320500001224,,,,,,,,,,,,,,677,Moral,2024-09-06_14h45.20.028,MoralCondition_v2,2022.2.5,30.004359633467956,
11,0,11,0,5,0,5,0,,,,,,,,,,,,,,,,,,,,,,,,,,,,,,,,,,,,,,,,,,,,,,,,,,,,,694.3497830000015,694.3497830000015,0.007646100002602907,0.0977212000034342,5.0,2.157940299999609,,,,,,,,,,,,,,677,Moral,2024-09-06_14h45.20.028,MoralCondition_v2,2022.2.5,30.004359633467956,
11,0,11,0,6,0,6,0,,,,,,,,,,,,,,,,,,,,,,,,,,,,,,,,,,,,,,,,,,,,,,,,,,,,,696.5496492999991,696.5496492999991,0.005796199999167584,0.09901460000037332,5.0,3.3280508999996528,,,,,,,,,,,,,,677,Moral,2024-09-06_14h45.20.028,MoralCondition_v2,2022.2.5,30.004359633467956,
11,0,11,0,,,,,,,,,,,,,,,,,,,,,,,,,,,,,,,,,,,,,,,,,,,,,,,,,,,,,,,,,,,,,,,699.9161329999988,699.9161329999988,0.001779400001396425,0.0973124000011012,2.0,2.963344700001471,,,,,,,,677,Moral,2024-09-06_14h45.20.028,MoralCondition_v2,2022.2.5,30.004359633467956,
12,0,12,0,0,0,0,0,,,,,,,,,,,,,,,,,,,,,,702.916530800001,0.00015389999680337496,0.09927789999710512,708.9162754999998,5.999209199999314,709.0828355999984,709.0828355999984,0.0545367000013357,0.16584539999894332,5.999163799999224,715.1829638999989,715.1829638999989,715.1829638999989,0.05136359999960405,0.16576770000028773,720.8830421999992,721.0829301999984,5.999192400002357,6.099117199999455,727.0829030999994,11.999163000000408,727.1994474999992,727.1994474999992,-0.0008062999986577779,0.08270100000299863,down,1.5742304000013974,728.8329233000004,4.5599997974932194e-05,0.09777959999701125,734.8329688999984,734.8329688999984,734.8329688999984,0.005322599998180522,0.11426019999998971,5.0,3.9936629999974684,,,,,,,715.0829354999987,715.0829354999987,727.1660808000015,727.1660808000015,6.0991829999984475,6.099292599999899,12.09896320000189,677,Moral,2024-09-06_14h45.20.028,MoralCondition_v2,2022.2.5,30.004359633467956,
12,0,12,0,1,0,1,0,,,,,,,,,,,,,,,,,,,,,,,,,,,,,,,,,,,,,,,,,,,,,,,,,,,,,738.8662656000015,738.8662656000015,0.007570099998702062,0.09782239999913145,5.0,1.9910750000017288,,,,,,,,,,,,,,677,Moral,2024-09-06_14h45.20.028,MoralCondition_v2,2022.2.5,30.004359633467956,
12,0,12,0,2,0,2,0,,,,,,,,,,,,,,,,,,,,,,,,,,,,,,,,,,,,,,,,,,,,,,,,,,,,,740.9164511999988,740.9164511999988,0.010678200000256766,0.11458249999850523,5.0,2.504738700001326,,,,,,,,,,,,,,677,Moral,2024-09-06_14h45.20.028,MoralCondition_v2,2022.2.5,30.004359633467956,
12,0,12,0,3,0,3,0,,,,,,,,,,,,,,,,,,,,,,,,,,,,,,,,,,,,,,,,,,,,,,,,,,,,,743.4495389000003,743.4495389000003,0.007303800000954652,0.09913220000089495,1.0,2.8260086000009323,,,,,,,,,,,,,,677,Moral,2024-09-06_14h45.20.028,MoralCondition_v2,2022.2.5,30.004359633467956,
12,0,12,0,4,0,4,0,,,,,,,,,,,,,,,,,,,,,,,,,,,,,,,,,,,,,,,,,,,,,,,,,,,,,746.3331342999991,746.3331342999991,0.009207900002365932,0.11404440000114846,2.0,3.2057050000003073,,,,,,,,,,,,,,677,Moral,2024-09-06_14h45.20.028,MoralCondition_v2,2022.2.5,30.004359633467956,
12,0,12,0,5,0,5,0,,,,,,,,,,,,,,,,,,,,,,,,,,,,,,,,,,,,,,,,,,,,,,,,,,,,,749.5661341000014,749.5661341000014,0.007414600000629434,0.09810680000009597,5.0,1.7913657999997668,,,,,,,,,,,,,,677,Moral,2024-09-06_14h45.20.028,MoralCondition_v2,2022.2.5,30.004359633467956,
12,0,12,0,6,0,6,0,,,,,,,,,,,,,,,,,,,,,,,,,,,,,,,,,,,,,,,,,,,,,,,,,,,,,751.3995066999996,751.3995066999996,0.008484099998895545,0.09903290000147535,1.0,1.6915702000005695,,,,,,,,,,,,,,677,Moral,2024-09-06_14h45.20.028,MoralCondition_v2,2022.2.5,30.004359633467956,
12,0,12,0,,,,,,,,,,,,,,,,,,,,,,,,,,,,,,,,,,,,,,,,,,,,,,,,,,,,,,,,,,,,,,,753.1328337999985,753.1328337999985,0.0006596999992325436,0.09925300000031712,2.0,1.999761800001579,,,,,,,,677,Moral,2024-09-06_14h45.20.028,MoralCondition_v2,2022.2.5,30.004359633467956,
13,0,13,0,0,0,0,0,,,,,,,,,,,,,,,,,,,,,,755.1665103000014,0.00013330000001587905,0.09907160000147996,761.182731500001,6.015689500000008,761.3493196000018,761.3493196000018,0.07064530000207014,0.18241210000269348,6.015697600003477,767.4494116999995,767.4494116999995,767.4494116999995,0.0769038000034925,0.18263210000441177,773.1495845999998,773.3498064999985,6.016109100004542,6.115686100005405,779.3496664999984,12.015911900005449,779.4828883000009,779.4828883000009,0.01591490000646445,0.11563500000556814,down,0.754852199999732,780.2829337000003,5.579999924520962e-05,0.09818789999917499,786.2825959000002,786.2825959000002,786.2825959000002,0.009297000000515254,0.09810680000009597,6.0,3.6232288999999582,,,,,,,767.3496354000017,767.3496354000017,779.4494784999988,779.4494784999988,,,,677,Moral,2024-09-06_14h45.20.028,MoralCondition_v2,2022.2.5,30.004359633467956,
13,0,13,0,1,0,1,0,,,,,,,,,,,,,,,,,,,,,,,,,,,,,,,,,,,,,,,,,,,,,,,,,,,,,789.9494153999985,789.9494153999985,0.008696200002304977,0.09926870000344934,6.0,1.0249249000007694,,,,,,,,,,,,,,677,Moral,2024-09-06_14h45.20.028,MoralCondition_v2,2022.2.5,30.004359633467956,
13,0,13,0,2,0,2,0,,,,,,,,,,,,,,,,,,,,,,,,,,,,,,,,,,,,,,,,,,,,,,,,,,,,,791.0161939999998,791.0161939999998,0.00661739999850397,0.09934679999787477,5.0,3.3602288000001863,,,,,,,,,,,,,,677,Moral,2024-09-06_14h45.20.028,MoralCondition_v2,2022.2.5,30.004359633467956,
13,0,13,0,3,0,3,0,,,,,,,,,,,,,,,,,,,,,,,,,,,,,,,,,,,,,,,,,,,,,,,,,,,,,794.4159666999985,794.4159666999985,0.008493000001180917,0.09958820000247215,6.0,1.5921581999973569,,,,,,,,,,,,,,677,Moral,2024-09-06_14h45.20.028,MoralCondition_v2,2022.2.5,30.004359633467956,
13,0,13,0,4,0,4,0,,,,,,,,,,,,,,,,,,,,,,,,,,,,,,,,,,,,,,,,,,,,,,,,,,,,,796.0663848000004,796.0663848000004,0.008353299999726005,0.1142586999994819,3.0,3.04036559999804,,,,,,,,,,,,,,677,Moral,2024-09-06_14h45.20.028,MoralCondition_v2,2022.2.5,30.004359633467956,
13,0,13,0,5,0,5,0,,,,,,,,,,,,,,,,,,,,,,,,,,,,,,,,,,,,,,,,,,,,,,,,,,,,,799.1496944999999,799.1496944999999,0.009084600002097432,0.1143289999999979,4.0,2.4061179000018456,,,,,,,,,,,,,,677,Moral,2024-09-06_14h45.20.028,MoralCondition_v2,2022.2.5,30.004359633467956,
13,0,13,0,6,0,6,0,,,,,,,,,,,,,,,,,,,,,,,,,,,,,,,,,,,,,,,,,,,,,,,,,,,,,801.5828622000008,801.5828622000008,0.006731600002240157,0.09928090000175871,1.0,2.060361299998476,,,,,,,,,,,,,,677,Moral,2024-09-06_14h45.20.028,MoralCondition_v2,2022.2.5,30.004359633467956,
13,0,13,0,,,,,,,,,,,,,,,,,,,,,,,,,,,,,,,,,,,,,,,,,,,,,,,,,,,,,,,,,,,,,,,803.6829577999997,803.6829577999997,0.001216000000567874,0.09802480000143987,1.0,3.6978906000003917,,,,,,,,677,Moral,2024-09-06_14h45.20.028,MoralCondition_v2,2022.2.5,30.004359633467956,
14,0,14,0,0,0,0,0,,,,,,,,,,,,,,,,,,,,,,807.4161453000015,0.00025489999825367704,0.09800750000067637,813.4327426000018,6.014663300000393,813.5993653000005,813.5993653000005,0.06969540000136476,0.18136860000231536,6.014684100002341,819.6994864000008,819.6994864000008,819.6994864000008,0.06897330000356305,0.18138420000468614,825.3993862999996,825.5993998999984,6.014683200002764,6.114754200003517,831.5993629000004,12.014639000004536,831.732714400001,831.732714400001,0.014722300005814759,0.11460440000519156,down,0.8081961000025331,832.5994009999995,7.2900002123788e-05,0.09759690000282717,,838.6327482999986,838.6327482999986,0.025560900001437403,0.1313614000027883,5.0,3.7731840000014927,,,,,,,819.5993043000017,819.5993043000017,831.6825202,831.6825202,,,,677,Moral,2024-09-06_14h45.20.028,MoralCondition_v2,2022.2.5,30.004359633467956,
14,0,14,0,1,0,1,0,,,,,,,,,,,,,,,,,,,,,,,,,,,,,,,,,,,,,,,,,,,,,,,,,,,,,842.4327621999983,842.4327621999983,0.006637500002398156,0.0992915000024368,5.0,1.9271230999984255,,,,,,,,,,,,,,677,Moral,2024-09-06_14h45.20.028,MoralCondition_v2,2022.2.5,30.004359633467956,
14,0,14,0,2,0,2,0,,,,,,,,,,,,,,,,,,,,,,,,,,,,,,,,,,,,,,,,,,,,,,,,,,,,,844.3994509000004,844.3994509000004,0.006975899999815738,0.09841030000097817,3.0,2.692499200002203,,,,,,,,,,,,,,677,Moral,2024-09-06_14h45.20.028,MoralCondition_v2,2022.2.5,30.004359633467956,
14,0,14,0,3,0,3,0,,,,,,,,,,,,,,,,,,,,,,,,,,,,,,,,,,,,,,,,,,,,,,,,,,,,,847.1327468000018,847.1327468000018,0.007423999999446096,0.09844689999954426,2.0,5.85819740000079,,,,,,,,,,,,,,677,Moral,2024-09-06_14h45.20.028,MoralCondition_v2,2022.2.5,30.004359633467956,
14,0,14,0,4,0,4,0,,,,,,,,,,,,,,,,,,,,,,,,,,,,,,,,,,,,,,,,,,,,,,,,,,,,,853.032639699999,853.032639699999,0.006978400000662077,0.09923569999955362,1.0,1.9933586000006471,,,,,,,,,,,,,,677,Moral,2024-09-06_14h45.20.028,MoralCondition_v2,2022.2.5,30.004359633467956,
14,0,14,0,5,0,5,0,,,,,,,,,,,,,,,,,,,,,,,,,,,,,,,,,,,,,,,,,,,,,,,,,,,,,855.0658325000004,855.0658325000004,0.00667059999977937,0.09952100000009523,5.0,4.293619100000797,,,,,,,,,,,,,,677,Moral,2024-09-06_14h45.20.028,MoralCondition_v2,2022.2.5,30.004359633467956,
14,0,14,0,6,0,6,0,,,,,,,,,,,,,,,,,,,,,,,,,,,,,,,,,,,,,,,,,,,,,,,,,,,,,859.3992715999993,859.3992715999993,0.006277399999817135,0.09874480000144104,4.0,2.7932964999999967,,,,,,,,,,,,,,677,Moral,2024-09-06_14h45.20.028,MoralCondition_v2,2022.2.5,30.004359633467956,
14,0,14,0,,,,,,,,,,,,,,,,,,,,,,,,,,,,,,,,,,,,,,,,,,,,,,,,,,,,,,,,,,,,,,,862.2326919000006,862.2326919000006,0.0014135999990685377,0.0976461999998719,2.0,4.4311152000009315,,,,,,,,677,Moral,2024-09-06_14h45.20.028,MoralCondition_v2,2022.2.5,30.004359633467956,
15,0,15,0,0,0,0,0,,,,,,,,,,,,,,,,,,,,,,866.6995361000008,0.0002657999975781422,0.09781309999743826,872.6992744999989,6.03105929999947,872.8824055000005,872.8824055000005,0.07382460000007995,0.18102509999880567,6.014362099998834,878.9825549999987,878.9825549999987,878.9825549999987,0.07603860000381246,0.18110950000118464,884.6826292000005,884.8826402999985,6.014427400001296,6.114398900001106,890.8826114000003,12.014442100000451,891.0159765999997,891.0159765999997,0.01457480000317446,0.11437190000287956,up,0.7172720999988087,891.7826177999996,6.289999873843044e-05,0.0977658000010706,897.7994264000008,897.7994264000008,897.7994264000008,0.008256500001152745,0.11450390000027255,1.0,2.5402993000025162,,,,,,,878.8826006000018,878.8826006000018,890.9826036000013,890.9826036000013,,,,677,Moral,2024-09-06_14h45.20.028,MoralCondition_v2,2022.2.5,30.004359633467956,
15,0,15,0,1,0,1,0,,,,,,,,,,,,,,,,,,,,,,,,,,,,,,,,,,,,,,,,,,,,,,,,,,,,,900.3658968000018,900.3658968000018,0.0064146000004257075,0.09852360000149929,1.0,0.7264003999989654,,,,,,,,,,,,,,677,Moral,2024-09-06_14h45.20.028,MoralCondition_v2,2022.2.5,30.004359633467956,
15,0,15,0,2,0,2,0,,,,,,,,,,,,,,,,,,,,,,,,,,,,,,,,,,,,,,,,,,,,,,,,,,,,,901.1326550000013,901.1326550000013,0.007701899998210138,0.09810619999916526,1.0,1.3580117999990762,,,,,,,,,,,,,,677,Moral,2024-09-06_14h45.20.028,MoralCondition_v2,2022.2.5,30.004359633467956,
15,0,15,0,3,0,3,0,,,,,,,,,,,,,,,,,,,,,,,,,,,,,,,,,,,,,,,,,,,,,,,,,,,,,902.5323872000008,902.5323872000008,0.006770800002414035,0.09904920000190032,1.0,2.4600735000021814,,,,,,,,,,,,,,677,Moral,2024-09-06_14h45.20.028,MoralCondition_v2,2022.2.5,30.004359633467956,
15,0,15,0,4,0,4,0,,,,,,,,,,,,,,,,,,,,,,,,,,,,,,,,,,,,,,,,,,,,,,,,,,,,,905.0324892999997,905.0324892999997,0.007477899998775683,0.09804779999831226,1.0,1.7248675000009825,,,,,,,,,,,,,,677,Moral,2024-09-06_14h45.20.028,MoralCondition_v2,2022.2.5,30.004359633467956,
15,0,15,0,5,0,5,0,,,,,,,,,,,,,,,,,,,,,,,,,,,,,,,,,,,,,,,,,,,,,,,,,,,,,906.7992825000001,906.7992825000001,0.008522000000084518,0.09902349999902071,7.0,1.958162999999331,,,,,,,,,,,,,,677,Moral,2024-09-06_14h45.20.028,MoralCondition_v2,2022.2.5,30.004359633467956,
15,0,15,0,6,0,6,0,,,,,,,,,,,,,,,,,,,,,,,,,,,,,,,,,,,,,,,,,,,,,,,,,,,,,908.7991330000004,908.7991330000004,0.007657399997697212,0.09780440000031376,3.0,2.991065800000797,,,,,,,,,,,,,,677,Moral,2024-09-06_14h45.20.028,MoralCondition_v2,2022.2.5,30.004359633467956,
15,0,15,0,,,,,,,,,,,,,,,,,,,,,,,,,,,,,,,,,,,,,,,,,,,,,,,,,,,,,,,,,,,,,,,911.8325130000012,911.8325130000012,0.0006912999997439329,0.09986239999852842,7.0,2.1997774000010395,,,,,,,,677,Moral,2024-09-06_14h45.20.028,MoralCondition_v2,2022.2.5,30.004359633467956,
16,0,16,0,0,0,0,0,,,,,,,,,,,,,,,,,,,,,,914.0660430999997,0.0002829999975801911,0.0978501999998116,920.0825256999997,6.014466900000116,920.2492751999998,920.2492751999998,0.06832030000077793,0.18094240000209538,6.014325200001622,926.3490745000017,926.3490745000017,926.3490745000017,0.06945330000235117,0.18105000000286964,932.0492782000001,932.2491795999995,6.014351100002386,6.114340900003299,938.2491474000017,12.014319800000521,938.3824927999995,938.3824927999995,0.014626700001826975,0.11421330000302987,down,1.718705899998895,940.1658637,0.00011569999696803279,0.09795909999957075,946.1824683999985,946.1824683999985,946.1824683999985,0.009100699997361517,0.11483799999768962,2.0,2.3064970000014,,,,,,,926.2492205999988,926.2492205999988,938.3492078000018,938.3492078000018,,,,677,Moral,2024-09-06_14h45.20.028,MoralCondition_v2,2022.2.5,30.004359633467956,
16,0,16,0,1,0,1,0,,,,,,,,,,,,,,,,,,,,,,,,,,,,,,,,,,,,,,,,,,,,,,,,,,,,,948.5159948,948.5159948,0.005656599998474121,0.09879720000026282,6.0,1.793820399998367,,,,,,,,,,,,,,677,Moral,2024-09-06_14h45.20.028,MoralCondition_v2,2022.2.5,30.004359633467956,
16,0,16,0,2,0,2,0,,,,,,,,,,,,,,,,,,,,,,,,,,,,,,,,,,,,,,,,,,,,,,,,,,,,,950.3491101,950.3491101,0.006612299999687821,0.09934040000007371,5.0,5.793597399999271,,,,,,,,,,,,,,677,Moral,2024-09-06_14h45.20.028,MoralCondition_v2,2022.2.5,30.004359633467956,
16,0,16,0,3,0,3,0,,,,,,,,,,,,,,,,,,,,,,,,,,,,,,,,,,,,,,,,,,,,,,,,,,,,,956.1994723999996,956.1994723999996,0.007929600000352366,0.11443819999840343,4.0,4.907405000001745,,,,,,,,,,,,,,677,Moral,2024-09-06_14h45.20.028,MoralCondition_v2,2022.2.5,30.004359633467956,
16,0,16,0,4,0,4,0,,,,,,,,,,,,,,,,,,,,,,,,,,,,,,,,,,,,,,,,,,,,,,,,,,,,,961.1325886999985,961.1325886999985,0.0078486000020348,0.0975034000002779,1.0,2.157366199997341,,,,,,,,,,,,,,677,Moral,2024-09-06_14h45.20.028,MoralCondition_v2,2022.2.5,30.004359633467956,
16,0,16,0,5,0,5,0,,,,,,,,,,,,,,,,,,,,,,,,,,,,,,,,,,,,,,,,,,,,,,,,,,,,,963.3324468999999,963.3324468999999,0.007711400001426227,0.09763780000139377,5.0,2.324388099998032,,,,,,,,,,,,,,677,Moral,2024-09-06_14h45.20.028,MoralCondition_v2,2022.2.5,30.004359633467956,
16,0,16,0,6,0,6,0,,,,,,,,,,,,,,,,,,,,,,,,,,,,,,,,,,,,,,,,,,,,,,,,,,,,,965.7160153000004,965.7160153000004,0.008420599999226397,0.11462010000104783,6.0,2.340538500000548,,,,,,,,,,,,,,677,Moral,2024-09-06_14h45.20.028,MoralCondition_v2,2022.2.5,30.004359633467956,
16,0,16,0,,,,,,,,,,,,,,,,,,,,,,,,,,,,,,,,,,,,,,,,,,,,,,,,,,,,,,,,,,,,,,,968.0823597000017,968.0823597000017,0.00069689999872935,0.09923719999642344,1.0,2.7328320999986317,,,,,,,,677,Moral,2024-09-06_14h45.20.028,MoralCondition_v2,2022.2.5,30.004359633467956,
17,0,17,0,0,0,0,0,,,,,,,,,,,,,,,,,,,,,,970.8491361000015,0.000265499998931773,0.09903879999910714,976.8657047000015,6.015660999997635,977.0322975999989,977.0322975999989,0.07129300000087824,0.1823303000019223,6.015628000001016,983.1324123999984,983.1324123999984,983.1324123999984,0.0743971000010788,0.18253180000101565,988.8323988000011,989.0324489999985,6.015746600001876,6.115671999999904,995.0323749000017,12.015702000000601,995.165696600001,995.165696600001,0.01584700000239536,0.11574290000135079,up,1.3835289999988163,996.5827387999998,8.719999823370017e-05,0.09742579999874579,,1002.599191199999,1002.599191199999,0.0230965999980981,0.11415629999828525,1.0,2.691932000001543,,,,,,,983.0324068000009,983.0324068000009,995.1323606000005,995.1323606000005,,,,677,Moral,2024-09-06_14h45.20.028,MoralCondition_v2,2022.2.5,30.004359633467956,
17,0,17,0,1,0,1,0,,,,,,,,,,,,,,,,,,,,,,,,,,,,,,,,,,,,,,,,,,,,,,,,,,,,,1005.3493584999997,1005.3493584999997,0.007793400000082329,0.1143527999993239,3.0,1.974163699997007,,,,,,,,,,,,,,677,Moral,2024-09-06_14h45.20.028,MoralCondition_v2,2022.2.5,30.004359633467956,
17,0,17,0,2,0,2,0,,,,,,,,,,,,,,,,,,,,,,,,,,,,,,,,,,,,,,,,,,,,,,,,,,,,,1007.3488991000013,1007.3488991000013,0.006539100002555642,0.09912880000047153,1.0,1.3934254000014334,,,,,,,,,,,,,,677,Moral,2024-09-06_14h45.20.028,MoralCondition_v2,2022.2.5,30.004359633467956,
17,0,17,0,3,0,3,0,,,,,,,,,,,,,,,,,,,,,,,,,,,,,,,,,,,,,,,,,,,,,,,,,,,,,1008.7821179999992,1008.7821179999992,0.007745700000668876,0.09779189999972004,7.0,1.6575586999970255,,,,,,,,,,,,,,677,Moral,2024-09-06_14h45.20.028,MoralCondition_v2,2022.2.5,30.004359633467956,
17,0,17,0,4,0,4,0,,,,,,,,,,,,,,,,,,,,,,,,,,,,,,,,,,,,,,,,,,,,,,,,,,,,,1010.4824124000006,1010.4824124000006,0.006765100002667168,0.09872689999974682,1.0,1.4927730000017618,,,,,,,,,,,,,,677,Moral,2024-09-06_14h45.20.028,MoralCondition_v2,2022.2.5,30.004359633467956,
17,0,17,0,5,0,5,0,,,,,,,,,,,,,,,,,,,,,,,,,,,,,,,,,,,,,,,,,,,,,,,,,,,,,1012.0157653999995,1012.0157653999995,0.007564299998193746,0.09752759999901173,2.0,2.5247049999998126,,,,,,,,,,,,,,677,Moral,2024-09-06_14h45.20.028,MoralCondition_v2,2022.2.5,30.004359633467956,
17,0,17,0,6,0,6,0,,,,,,,,,,,,,,,,,,,,,,,,,,,,,,,,,,,,,,,,,,,,,,,,,,,,,1014.5821415999999,1014.5821415999999,0.006935199999134056,0.09883970000009867,1.0,0.9259228999981133,,,,,,,,,,,,,,677,Moral,2024-09-06_14h45.20.028,MoralCondition_v2,2022.2.5,30.004359633467956,
17,0,17,0,,,,,,,,,,,,,,,,,,,,,,,,,,,,,,,,,,,,,,,,,,,,,,,,,,,,,,,,,,,,,,,1015.5491117999991,1015.5491117999991,0.001280399999814108,0.09953649999806657,7.0,2.0992107999991276,,,,,,,,677,Moral,2024-09-06_14h45.20.028,MoralCondition_v2,2022.2.5,30.004359633467956,
18,0,18,0,0,0,0,0,,,,,,,,,,,,,,,,,,,,,,1017.6825267999993,0.00025749999986146577,0.09797059999982594,1023.6989577999993,6.014620599999034,1023.8658486999993,1023.8658486999993,0.0715356000000611,0.1813006000011228,6.014591399998608,1029.9658737999998,1029.9658737999998,1029.9658737999998,0.0680783000025258,0.18125480000162497,1035.6656661999987,1035.8656121999993,6.014630300000135,6.114650700001221,1041.8655790000012,12.01463800000056,1041.9989750999994,1041.9989750999994,0.014839700004813494,0.11455980000391719,down,1.094474599998648,1043.1323522999992,4.0499999158782884e-05,0.09801729999890085,1049.132078999999,1049.132078999999,1049.132078999999,0.008378099999390543,0.0979442999996536,5.0,3.5578091999996104,,,,,,,1029.865629,1029.865629,1041.9656015,1041.9656015,,,,677,Moral,2024-09-06_14h45.20.028,MoralCondition_v2,2022.2.5,30.004359633467956,
18,0,18,0,1,0,1,0,,,,,,,,,,,,,,,,,,,,,,,,,,,,,,,,,,,,,,,,,,,,,,,,,,,,,1052.732340999999,1052.732340999999,0.007713400002103299,0.09795959999974002,5.0,1.5911718000024848,,,,,,,,,,,,,,677,Moral,2024-09-06_14h45.20.028,MoralCondition_v2,2022.2.5,30.004359633467956,
18,0,18,0,2,0,2,0,,,,,,,,,,,,,,,,,,,,,,,,,,,,,,,,,,,,,,,,,,,,,,,,,,,,,1054.365544799999,1054.365544799999,0.006611900000280002,0.0991585000010673,1.0,2.9602107999999134,,,,,,,,,,,,,,677,Moral,2024-09-06_14h45.20.028,MoralCondition_v2,2022.2.5,30.004359633467956,
18,0,18,0,3,0,3,0,,,,,,,,,,,,,,,,,,,,,,,,,,,,,,,,,,,,,,,,,,,,,,,,,,,,,1057.3653860000013,1057.3653860000013,0.007517599999118829,0.0974409000009473,2.0,8.12426190000042,,,,,,,,,,,,,,677,Moral,2024-09-06_14h45.20.028,MoralCondition_v2,2022.2.5,30.004359633467956,
18,0,18,0,4,0,4,0,,,,,,,,,,,,,,,,,,,,,,,,,,,,,,,,,,,,,,,,,,,,,,,,,,,,,1065.5322425000013,1065.5322425000013,0.0072661999984120484,0.0982300999967265,5.0,4.491915399998106,,,,,,,,,,,,,,677,Moral,2024-09-06_14h45.20.028,MoralCondition_v2,2022.2.5,30.004359633467956,
18,0,18,0,5,0,5,0,,,,,,,,,,,,,,,,,,,,,,,,,,,,,,,,,,,,,,,,,,,,,,,,,,,,,1070.0823286000013,1070.0823286000013,0.008617799998319242,0.11416710000048624,5.0,3.406467500000872,,,,,,,,,,,,,,677,Moral,2024-09-06_14h45.20.028,MoralCondition_v2,2022.2.5,30.004359633467956,
18,0,18,0,6,0,6,0,,,,,,,,,,,,,,,,,,,,,,,,,,,,,,,,,,,,,,,,,,,,,,,,,,,,,1073.5154546000012,1073.5154546000012,0.007987000000866828,0.09763340000063181,1.0,1.5907875999982934,,,,,,,,,,,,,,677,Moral,2024-09-06_14h45.20.028,MoralCondition_v2,2022.2.5,30.004359633467956,
18,0,18,0,,,,,,,,,,,,,,,,,,,,,,,,,,,,,,,,,,,,,,,,,,,,,,,,,,,,,,,,,,,,,,,1075.1489669000002,1075.1489669000002,0.0006654999997408595,0.09923019999769167,2.0,2.2998372000001837,,,,,,,,677,Moral,2024-09-06_14h45.20.028,MoralCondition_v2,2022.2.5,30.004359633467956,
19,0,19,0,0,0,0,0,,,,,,,,,,,,,,,,,,,,,,1077.4823488000002,0.0003223999992769677,0.09789180000007036,1083.4988489999996,6.014124599998468,1083.6656158000005,1083.6656158000005,0.07603650000237394,0.18101300000125775,6.014349600001879,1089.7655956999988,1089.7655956999988,1089.7655956999988,0.07292770000276505,0.18115020000186632,1095.4653585999986,1095.665387699999,6.014040200003365,6.114211700001761,1101.6654552,12.014147000001685,1101.7987982000013,1101.7987982000013,0.01427690000491566,0.11405590000504162,down,0.6940204000020458,1102.5321073000014,5.570000212173909e-05,0.09769460000097752,,1108.5487517000001,1108.5487517000001,0.024091300001600757,0.11441560000093887,2.0,3.6577760000000126,,,,,,,1089.6654729000002,1089.6654729000002,1101.7654232999994,1101.7654232999994,,,,677,Moral,2024-09-06_14h45.20.028,MoralCondition_v2,2022.2.5,30.004359633467956,
19,0,19,0,1,0,1,0,,,,,,,,,,,,,,,,,,,,,,,,,,,,,,,,,,,,,,,,,,,,,,,,,,,,,1112.2656462999985,1112.2656462999985,0.007636499998625368,0.11397719999877154,1.0,2.2072575999991386,,,,,,,,,,,,,,677,Moral,2024-09-06_14h45.20.028,MoralCondition_v2,2022.2.5,30.004359633467956,
19,0,19,0,2,0,2,0,,,,,,,,,,,,,,,,,,,,,,,,,,,,,,,,,,,,,,,,,,,,,,,,,,,,,1114.5153562999985,1114.5153562999985,0.008041600001888582,0.1141736999998102,5.0,1.8073624999997264,,,,,,,,,,,,,,677,Moral,2024-09-06_14h45.20.028,MoralCondition_v2,2022.2.5,30.004359633467956,
19,0,19,0,3,0,3,0,,,,,,,,,,,,,,,,,,,,,,,,,,,,,,,,,,,,,,,,,,,,,,,,,,,,,1116.3487453999987,1116.3487453999987,0.008054800000536488,0.09934490000159713,5.0,0.9254330000003392,,,,,,,,,,,,,,677,Moral,2024-09-06_14h45.20.028,MoralCondition_v2,2022.2.5,30.004359633467956,
19,0,19,0,4,0,4,0,,,,,,,,,,,,,,,,,,,,,,,,,,,,,,,,,,,,,,,,,,,,,,,,,,,,,1117.3154453999996,1117.3154453999996,0.007724799997959053,0.09784639999998035,5.0,0.8915794999993523,,,,,,,,,,,,,,677,Moral,2024-09-06_14h45.20.028,MoralCondition_v2,2022.2.5,30.004359633467956,
19,0,19,0,5,0,5,0,,,,,,,,,,,,,,,,,,,,,,,,,,,,,,,,,,,,,,,,,,,,,,,,,,,,,1118.2657091,1118.2657091,0.007800899998983368,0.11420509999879869,5.0,3.973703800002113,,,,,,,,,,,,,,677,Moral,2024-09-06_14h45.20.028,MoralCondition_v2,2022.2.5,30.004359633467956,
19,0,19,0,6,0,6,0,,,,,,,,,,,,,,,,,,,,,,,,,,,,,,,,,,,,,,,,,,,,,,,,,,,,,1122.2652196999989,1122.2652196999989,0.006567099997482728,0.09952689999772701,2.0,3.827103600000555,,,,,,,,,,,,,,677,Moral,2024-09-06_14h45.20.028,MoralCondition_v2,2022.2.5,30.004359633467956,
19,0,19,0,,,,,,,,,,,,,,,,,,,,,,,,,,,,,,,,,,,,,,,,,,,,,,,,,,,,,,,,,,,,,,,1126.1321978000014,1126.1321978000014,0.0013319999998202547,0.09782349999659345,2.0,2.597800699997606,,,,,,,,677,Moral,2024-09-06_14h45.20.028,MoralCondition_v2,2022.2.5,30.004359633467956,
