loop.thisRepN,loop.thisTrialN,loop.thisN,loop.thisIndex,evaluate_all_emotions.thisRepN,evaluate_all_emotions.thisTrialN,evaluate_all_emotions.thisN,evaluate_all_emotions.thisIndex,sync_beep_1.started,p_port.started,p_port.stopped,sync_beep_1.stopped,sync_beep_2.started,sync_beep_2.stopped,sync_beep_3.started,sync_beep_3.stopped,sync_beep_4.started,sync_beep_4.stopped,baseline.started,p_port_2.started,p_port_2.stopped,baseline.stopped,p_port_3.started,Game_Start_Text.started,p_port_4.started,p_port_4.stopped,key_resp.started,key_resp.keys,key_resp.rt,fixation_cross.started,p_port_5.started,p_port_5.stopped,fixation_cross.stopped,p_port_6.started,player_image_intro.started,player_name_intro.started,p_port_7.started,p_port_7.stopped,p_port_8.started,player_image_offer.started,player_name_offer.started,proposed_split.started,p_port_9.started,p_port_9.stopped,proposed_split.stopped,accept_reject.started,p_port_15.started,p_port_15.stopped,accept_reject.stopped,p_port_10.started,arrow_instructions.started,offer_choice.started,p_port_11.started,p_port_11.stopped,offer_choice.keys,offer_choice.rt,Instructions_Affinity_Score.started,p_port_12.started,p_port_12.stopped,Instructions_Affinity_Score.stopped,Emotion_Image.started,AffinityScore.started,p_port_13.started,p_port_13.stopped,AffinityScore.response,AffinityScore.rt,Instruction.started,Moral_Disgust_Score.started,p_port_14.started,p_port_14.stopped,Moral_Disgust_Score.response,Moral_Disgust_Score.rt,p_port_6.stopped,player_image_intro.stopped,player_name_intro.stopped,player_image_offer.stopped,player_name_offer.stopped,p_port_8.stopped,p_port_10.stopped,participant,session,date,expName,psychopyVersion,frameRate,
,,,,,,,,15.934277399571146,0.0008498000679537654,0.10965910006780177,16.251674799947068,16.55167389997514,16.851520500029437,17.151777299924287,17.451681099948473,17.73489269997226,18.068288199952804,18.068288199952804,0.008948100032284856,0.10976890008896589,33.084980899933726,15.02645810006652,33.16822430002503,0.02624070004094392,0.1097256001085043,33.635100699961185,space,1.4185641000512987,,,,,,,,,,,,,,,,,,,,,,,,,,,,,,,,,,,,,,,,,,,,,,,,,,,678,Moral,2024-09-17_10h49.29.192,MoralCondition_v2,2022.2.5,29.974276082780083,
0,0,0,0,0,0,0,0,,,,,,,,,,,,,,,,,,,,,,35.101676199934445,0.0013696999521926045,0.09847409999929368,41.11849339993205,6.015069299959578,41.4851724000182,41.4851724000182,0.24255349999293685,0.38189870002679527,6.014999600010924,47.41832119994797,47.41832119994797,47.41832119994797,0.08010640006978065,0.21503419999498874,53.11856680002529,53.28495619993191,6.015073199989274,6.114943300024606,59.28496590000577,12.015047600027174,59.41830779996235,59.41830779996235,0.015259700012393296,0.114973200019449,up,1.1624095001025125,60.634974999935366,4.4599990360438824e-05,0.09752509999088943,66.65165229991544,66.65165229991544,66.65165229991544,0.011145099997520447,0.11444749997463077,2.0,3.8539698000531644,,,,,,,,,,,,,,678,Moral,2024-09-17_10h49.29.192,MoralCondition_v2,2022.2.5,29.974276082780083,
0,0,0,0,1,0,1,0,,,,,,,,,,,,,,,,,,,,,,,,,,,,,,,,,,,,,,,,,,,,,,,,,,,,,70.55180459993426,70.55180459993426,0.014207900036126375,0.11401140002999455,2.0,2.834254499990493,,,,,,,,,,,,,,678,Moral,2024-09-17_10h49.29.192,MoralCondition_v2,2022.2.5,29.974276082780083,
0,0,0,0,2,0,2,0,,,,,,,,,,,,,,,,,,,,,,,,,,,,,,,,,,,,,,,,,,,,,,,,,,,,,73.41826760000549,73.41826760000549,0.009902900084853172,0.09746520000044256,2.0,1.3553735999157652,,,,,,,,,,,,,,678,Moral,2024-09-17_10h49.29.192,MoralCondition_v2,2022.2.5,29.974276082780083,
0,0,0,0,3,0,3,0,,,,,,,,,,,,,,,,,,,,,,,,,,,,,,,,,,,,,,,,,,,,,,,,,,,,,74.8350898999488,74.8350898999488,0.011618299991823733,0.11416899994947016,2.0,1.7369728999910876,,,,,,,,,,,,,,678,Moral,2024-09-17_10h49.29.192,MoralCondition_v2,2022.2.5,29.974276082780083,
0,0,0,0,4,0,4,0,,,,,,,,,,,,,,,,,,,,,,,,,,,,,,,,,,,,,,,,,,,,,,,,,,,,,76.60161250003148,76.60161250003148,0.008320199907757342,0.09928389999549836,2.0,0.8584248000988737,,,,,,,,,,,,,,678,Moral,2024-09-17_10h49.29.192,MoralCondition_v2,2022.2.5,29.974276082780083,
0,0,0,0,5,0,5,0,,,,,,,,,,,,,,,,,,,,,,,,,,,,,,,,,,,,,,,,,,,,,,,,,,,,,77.51828790002037,77.51828790002037,0.011980100069195032,0.11390720005147159,2.0,2.4696587999351323,,,,,,,,,,,,,,678,Moral,2024-09-17_10h49.29.192,MoralCondition_v2,2022.2.5,29.974276082780083,
0,0,0,0,6,0,6,0,,,,,,,,,,,,,,,,,,,,,,,,,,,,,,,,,,,,,,,,,,,,,,,,,,,,,80.01812209992204,80.01812209992204,0.008538200054317713,0.09904240001924336,2.0,4.3250926999608055,,,,,,,,,,,,,,678,Moral,2024-09-17_10h49.29.192,MoralCondition_v2,2022.2.5,29.974276082780083,
0,0,0,0,,,,,,,,,,,,,,,,,,,,,,,,,,,,,,,,,,,,,,,,,,,,,,,,,,,,,,,,,,,,,,,84.38493389997166,84.38493389997166,0.0006990000838413835,0.09917630010750145,6.0,6.666125599993393,,,,,,,,678,Moral,2024-09-17_10h49.29.192,MoralCondition_v2,2022.2.5,29.974276082780083,
1,0,1,0,0,0,0,0,,,,,,,,,,,,,,,,,,,,,,91.08519429992884,0.0002808000426739454,0.09822809998877347,97.06812059995718,6.014591599931009,97.25140609999653,97.25140609999653,0.06222600000910461,0.16481149999890476,6.03140269999858,103.38472929992713,103.38472929992713,103.38472929992713,0.09639150009024888,0.1980262000579387,109.08497740002349,109.28506959998049,6.031573100015521,6.131414800067432,115.28491829999257,12.031512400018983,115.41829399997368,115.41829399997368,0.03157800005283207,0.1313973000505939,down,0.6425802999874577,116.1182981999591,5.650008097290993e-05,0.09790809999685735,,122.13485989999026,122.13485989999026,0.025457400013692677,0.11463279998861253,5.0,3.956711200065911,,,,,,,6.098106599994935,103.25160459999461,103.25160459999461,115.38490860001184,115.38490860001184,,,678,Moral,2024-09-17_10h49.29.192,MoralCondition_v2,2022.2.5,29.974276082780083,
1,0,1,0,1,0,1,0,,,,,,,,,,,,,,,,,,,,,,,,,,,,,,,,,,,,,,,,,,,,,,,,,,,,,126.13494189991616,126.13494189991616,0.008617699961178005,0.09733839996624738,2.0,2.989918199949898,,,,,,,,,,,,,,678,Moral,2024-09-17_10h49.29.192,MoralCondition_v2,2022.2.5,29.974276082780083,
1,0,1,0,2,0,2,0,,,,,,,,,,,,,,,,,,,,,,,,,,,,,,,,,,,,,,,,,,,,,,,,,,,,,129.16819300001953,129.16819300001953,0.0067279000068083405,0.09912319993600249,4.0,3.493358999956399,,,,,,,,,,,,,,678,Moral,2024-09-17_10h49.29.192,MoralCondition_v2,2022.2.5,29.974276082780083,
1,0,1,0,3,0,3,0,,,,,,,,,,,,,,,,,,,,,,,,,,,,,,,,,,,,,,,,,,,,,,,,,,,,,132.70156469999347,132.70156469999347,0.0071078999899327755,0.09865579998586327,5.0,3.7258616000181064,,,,,,,,,,,,,,678,Moral,2024-09-17_10h49.29.192,MoralCondition_v2,2022.2.5,29.974276082780083,
1,0,1,0,4,0,4,0,,,,,,,,,,,,,,,,,,,,,,,,,,,,,,,,,,,,,,,,,,,,,,,,,,,,,136.4682610000018,136.4682610000018,0.008326000068336725,0.09803720004856586,5.0,4.090513700037263,,,,,,,,,,,,,,678,Moral,2024-09-17_10h49.29.192,MoralCondition_v2,2022.2.5,29.974276082780083,
1,0,1,0,5,0,5,0,,,,,,,,,,,,,,,,,,,,,,,,,,,,,,,,,,,,,,,,,,,,,,,,,,,,,140.60170569992624,140.60170569992624,0.0067900000140070915,0.09917289996519685,2.0,3.3601451999275014,,,,,,,,,,,,,,678,Moral,2024-09-17_10h49.29.192,MoralCondition_v2,2022.2.5,29.974276082780083,
1,0,1,0,6,0,6,0,,,,,,,,,,,,,,,,,,,,,,,,,,,,,,,,,,,,,,,,,,,,,,,,,,,,,144.01844369992614,144.01844369992614,0.007799300015904009,0.11443610000424087,2.0,2.1077794999582693,,,,,,,,,,,,,,678,Moral,2024-09-17_10h49.29.192,MoralCondition_v2,2022.2.5,29.974276082780083,
1,0,1,0,,,,,,,,,,,,,,,,,,,,,,,,,,,,,,,,,,,,,,,,,,,,,,,,,,,,,,,,,,,,,,,146.15177829994354,146.15177829994354,0.0006876999977976084,0.09912590007297695,2.0,4.999401399982162,,,,,,,,678,Moral,2024-09-17_10h49.29.192,MoralCondition_v2,2022.2.5,29.974276082780083,
2,0,2,0,0,0,0,0,,,,,,,,,,,,,,,,,,,,,,151.18517579999752,0.0003445000620558858,0.09728260000701994,157.18484559992794,6.030574200092815,157.46846429992002,157.46846429992002,0.1724645000649616,0.280722500057891,6.0138542000204325,163.46849090000615,163.46849090000615,163.46849090000615,0.07156660011969507,0.1805168001446873,169.16820970003027,169.36817779997364,6.0138904000632465,6.113892300054431,175.36816690000705,12.01394760014955,175.5015362999402,175.5015362999402,0.014034400111995637,0.1139013001229614,down,1.8716369000030681,177.4348071999848,5.949998740106821e-05,0.09776340005919337,183.43498349993024,183.43498349993024,183.43498349993024,0.009174300008453429,0.09779410006012768,2.0,2.5231410999549553,,,,,,,,,,175.46816719998606,175.46816719998606,,,678,Moral,2024-09-17_10h49.29.192,MoralCondition_v2,2022.2.5,29.974276082780083,
2,0,2,0,1,0,1,0,,,,,,,,,,,,,,,,,,,,,,,,,,,,,,,,,,,,,,,,,,,,,,,,,,,,,186.00152279995382,186.00152279995382,0.007177100051194429,0.09760690003167838,1.0,1.2583234999328852,,,,,,,,,,,,,,678,Moral,2024-09-17_10h49.29.192,MoralCondition_v2,2022.2.5,29.974276082780083,
2,0,2,0,2,0,2,0,,,,,,,,,,,,,,,,,,,,,,,,,,,,,,,,,,,,,,,,,,,,,,,,,,,,,187.3015246000141,187.3015246000141,0.006780700059607625,0.09842300007585436,2.0,1.9260905999690294,,,,,,,,,,,,,,678,Moral,2024-09-17_10h49.29.192,MoralCondition_v2,2022.2.5,29.974276082780083,
2,0,2,0,3,0,3,0,,,,,,,,,,,,,,,,,,,,,,,,,,,,,,,,,,,,,,,,,,,,,,,,,,,,,189.28501220000908,189.28501220000908,0.008189600077457726,0.11445240001194179,5.0,2.6738927999977022,,,,,,,,,,,,,,678,Moral,2024-09-17_10h49.29.192,MoralCondition_v2,2022.2.5,29.974276082780083,
2,0,2,0,4,0,4,0,,,,,,,,,,,,,,,,,,,,,,,,,,,,,,,,,,,,,,,,,,,,,,,,,,,,,191.98478339996655,191.98478339996655,0.006493000080808997,0.09896580001804978,5.0,4.826816199929453,,,,,,,,,,,,,,678,Moral,2024-09-17_10h49.29.192,MoralCondition_v2,2022.2.5,29.974276082780083,
2,0,2,0,5,0,5,0,,,,,,,,,,,,,,,,,,,,,,,,,,,,,,,,,,,,,,,,,,,,,,,,,,,,,196.8517017000122,196.8517017000122,0.008311800076626241,0.09716610005125403,4.0,5.390079599921592,,,,,,,,,,,,,,678,Moral,2024-09-17_10h49.29.192,MoralCondition_v2,2022.2.5,29.974276082780083,
2,0,2,0,6,0,6,0,,,,,,,,,,,,,,,,,,,,,,,,,,,,,,,,,,,,,,,,,,,,,,,,,,,,,202.28474969998933,202.28474969998933,0.006597100058570504,0.09930560004431754,5.0,1.6270782999927178,,,,,,,,,,,,,,678,Moral,2024-09-17_10h49.29.192,MoralCondition_v2,2022.2.5,29.974276082780083,
2,0,2,0,,,,,,,,,,,,,,,,,,,,,,,,,,,,,,,,,,,,,,,,,,,,,,,,,,,,,,,,,,,,,,,203.9516406999901,203.9516406999901,0.0006889000069350004,0.09908920002635568,2.0,2.6327638999791816,,,,,,,,678,Moral,2024-09-17_10h49.29.192,MoralCondition_v2,2022.2.5,29.974276082780083,
3,0,3,0,0,0,0,0,,,,,,,,,,,,,,,,,,,,,,206.6184150999179,0.0003342999843880534,0.09793819999322295,212.63481499999762,6.014340299996547,212.8513730999548,212.8513730999548,0.11588370008394122,0.23104560002684593,6.031143400003202,218.9180289999349,218.9180289999349,218.9180289999349,0.09350070008076727,0.19766060006804764,224.6182350999443,224.81834040000103,6.031312000122853,6.1310104000149295,230.81834569992498,12.031297400128096,230.95132059999742,230.95132059999742,0.031342800124548376,0.1309610001044348,down,2.4775296000298113,233.48478139995132,4.4899992644786835e-05,0.09799440007191151,239.5014627999626,239.5014627999626,239.5014627999626,0.009652200038544834,0.11466349998954684,2.0,2.77248879999388,,,,,,,,,,230.918246599962,230.918246599962,,,678,Moral,2024-09-17_10h49.29.192,MoralCondition_v2,2022.2.5,29.974276082780083,
3,0,3,0,1,0,1,0,,,,,,,,,,,,,,,,,,,,,,,,,,,,,,,,,,,,,,,,,,,,,,,,,,,,,242.30135680001695,242.30135680001695,0.006784799974411726,0.09926469996571541,3.0,4.159974099951796,,,,,,,,,,,,,,678,Moral,2024-09-17_10h49.29.192,MoralCondition_v2,2022.2.5,29.974276082780083,
3,0,3,0,2,0,2,0,,,,,,,,,,,,,,,,,,,,,,,,,,,,,,,,,,,,,,,,,,,,,,,,,,,,,246.5014891999308,246.5014891999308,0.0075882000382989645,0.09780440002214164,4.0,2.0243498999625444,,,,,,,,,,,,,,678,Moral,2024-09-17_10h49.29.192,MoralCondition_v2,2022.2.5,29.974276082780083,
3,0,3,0,3,0,3,0,,,,,,,,,,,,,,,,,,,,,,,,,,,,,,,,,,,,,,,,,,,,,,,,,,,,,248.56805719994009,248.56805719994009,0.0066639999859035015,0.09906599996611476,3.0,3.52678770001512,,,,,,,,,,,,,,678,Moral,2024-09-17_10h49.29.192,MoralCondition_v2,2022.2.5,29.974276082780083,
3,0,3,0,4,0,4,0,,,,,,,,,,,,,,,,,,,,,,,,,,,,,,,,,,,,,,,,,,,,,,,,,,,,,252.1347095000092,252.1347095000092,0.006535200052894652,0.09925139998085797,2.0,1.6601346000097692,,,,,,,,,,,,,,678,Moral,2024-09-17_10h49.29.192,MoralCondition_v2,2022.2.5,29.974276082780083,
3,0,3,0,5,0,5,0,,,,,,,,,,,,,,,,,,,,,,,,,,,,,,,,,,,,,,,,,,,,,,,,,,,,,253.83506359998137,253.83506359998137,0.008019500062800944,0.09766760002821684,4.0,2.59019839996472,,,,,,,,,,,,,,678,Moral,2024-09-17_10h49.29.192,MoralCondition_v2,2022.2.5,29.974276082780083,
3,0,3,0,6,0,6,0,,,,,,,,,,,,,,,,,,,,,,,,,,,,,,,,,,,,,,,,,,,,,,,,,,,,,256.48497490002774,256.48497490002774,0.008793000015430152,0.11444440006744117,4.0,2.5398036999395117,,,,,,,,,,,,,,678,Moral,2024-09-17_10h49.29.192,MoralCondition_v2,2022.2.5,29.974276082780083,
3,0,3,0,,,,,,,,,,,,,,,,,,,,,,,,,,,,,,,,,,,,,,,,,,,,,,,,,,,,,,,,,,,,,,,259.0514839999378,259.0514839999378,0.0015684999525547028,0.09762570005841553,3.0,2.297149500111118,,,,,,,,678,Moral,2024-09-17_10h49.29.192,MoralCondition_v2,2022.2.5,29.974276082780083,
4,0,4,0,0,0,0,0,,,,,,,,,,,,,,,,,,,,,,261.38478459999897,0.00046550005208700895,0.09671379998326302,267.38476469996385,6.030096100061201,267.60152719996404,267.60152719996404,0.09847299999091774,0.21360530005767941,6.013331699999981,273.66830130002927,273.66830130002927,273.66830130002927,0.06912570004351437,0.1801107000792399,279.36804939992726,279.56816779996734,6.01351750001777,6.11332320002839,285.5680689000292,12.013397200033069,285.7014988999581,285.7014988999581,0.013568100053817034,0.11338930006604642,up,0.6721829000161961,286.43470149999484,4.469999112188816e-05,0.09824710001703352,292.45140150003135,292.45140150003135,292.45140150003135,0.009829099988564849,0.11471709993202239,4.0,4.172367300023325,,,,,,,,,,285.6680536000058,285.6680536000058,,,678,Moral,2024-09-17_10h49.29.192,MoralCondition_v2,2022.2.5,29.974276082780083,
4,0,4,0,1,0,1,0,,,,,,,,,,,,,,,,,,,,,,,,,,,,,,,,,,,,,,,,,,,,,,,,,,,,,296.66832129994873,296.66832129994873,0.007943200063891709,0.11398120003286749,2.0,2.740482199937105,,,,,,,,,,,,,,678,Moral,2024-09-17_10h49.29.192,MoralCondition_v2,2022.2.5,29.974276082780083,
4,0,4,0,2,0,2,0,,,,,,,,,,,,,,,,,,,,,,,,,,,,,,,,,,,,,,,,,,,,,,,,,,,,,299.4512996999547,299.4512996999547,0.008908100076951087,0.11433030001353472,2.0,1.7736237000208348,,,,,,,,,,,,,,678,Moral,2024-09-17_10h49.29.192,MoralCondition_v2,2022.2.5,29.974276082780083,
4,0,4,0,3,0,3,0,,,,,,,,,,,,,,,,,,,,,,,,,,,,,,,,,,,,,,,,,,,,,,,,,,,,,301.26803509995807,301.26803509995807,0.011336199939250946,0.11455429997295141,5.0,2.904164499952458,,,,,,,,,,,,,,678,Moral,2024-09-17_10h49.29.192,MoralCondition_v2,2022.2.5,29.974276082780083,
4,0,4,0,4,0,4,0,,,,,,,,,,,,,,,,,,,,,,,,,,,,,,,,,,,,,,,,,,,,,,,,,,,,,304.20141879993025,304.20141879993025,0.007784299901686609,0.09787830000277609,2.0,1.2909217000706121,,,,,,,,,,,,,,678,Moral,2024-09-17_10h49.29.192,MoralCondition_v2,2022.2.5,29.974276082780083,
4,0,4,0,5,0,5,0,,,,,,,,,,,,,,,,,,,,,,,,,,,,,,,,,,,,,,,,,,,,,,,,,,,,,305.53473930002656,305.53473930002656,0.0067220000782981515,0.09933680004905909,2.0,1.060269600013271,,,,,,,,,,,,,,678,Moral,2024-09-17_10h49.29.192,MoralCondition_v2,2022.2.5,29.974276082780083,
4,0,4,0,6,0,6,0,,,,,,,,,,,,,,,,,,,,,,,,,,,,,,,,,,,,,,,,,,,,,,,,,,,,,306.6516531999223,306.6516531999223,0.008437899989075959,0.11419669992756099,2.0,1.7399605999235064,,,,,,,,,,,,,,678,Moral,2024-09-17_10h49.29.192,MoralCondition_v2,2022.2.5,29.974276082780083,
4,0,4,0,,,,,,,,,,,,,,,,,,,,,,,,,,,,,,,,,,,,,,,,,,,,,,,,,,,,,,,,,,,,,,,308.41800329997204,308.41800329997204,0.0013141001109033823,0.09798670001327991,6.0,5.398066099965945,,,,,,,,678,Moral,2024-09-17_10h49.29.192,MoralCondition_v2,2022.2.5,29.974276082780083,
5,0,5,0,0,0,0,0,,,,,,,,,,,,,,,,,,,,,,313.851372599951,0.0001537000061944127,0.09896049997769296,319.85129349993076,5.9990625999635085,320.0181317999959,320.0181317999959,0.05311229999642819,0.16579290002118796,5.999087400035933,326.1010353999445,326.1010353999445,326.1010353999445,0.05079810007009655,0.14904350007418543,331.80147609999403,332.0346257999772,6.015766200027429,6.1157409000443295,338.034601100022,12.015740500064567,338.1679643000243,338.1679643000243,0.015924800070933998,0.11569890007376671,up,0.5975785000482574,338.80126179999206,3.7499936297535896e-05,0.09791429992765188,,344.8345830999315,344.8345830999315,0.024848299915902317,0.131266999989748,2.0,3.074111800058745,,,,,,,6.098971999948844,326.017971699941,326.017971699941,338.1012786999345,338.1012786999345,6.099119300022721,,678,Moral,2024-09-17_10h49.29.192,MoralCondition_v2,2022.2.5,29.974276082780083,
5,0,5,0,1,0,1,0,,,,,,,,,,,,,,,,,,,,,,,,,,,,,,,,,,,,,,,,,,,,,,,,,,,,,347.9345568999415,347.9345568999415,0.005727400071918964,0.09926519996952266,2.0,1.0278494999511167,,,,,,,,,,,,,,678,Moral,2024-09-17_10h49.29.192,MoralCondition_v2,2022.2.5,29.974276082780083,
5,0,5,0,2,0,2,0,,,,,,,,,,,,,,,,,,,,,,,,,,,,,,,,,,,,,,,,,,,,,,,,,,,,,349.0011103999568,349.0011103999568,0.006321300053969026,0.09879620000720024,2.0,0.8266809999477118,,,,,,,,,,,,,,678,Moral,2024-09-17_10h49.29.192,MoralCondition_v2,2022.2.5,29.974276082780083,
5,0,5,0,3,0,3,0,,,,,,,,,,,,,,,,,,,,,,,,,,,,,,,,,,,,,,,,,,,,,,,,,,,,,349.86793720000423,349.86793720000423,0.008298000087961555,0.09768070001155138,2.0,1.1238847998902202,,,,,,,,,,,,,,678,Moral,2024-09-17_10h49.29.192,MoralCondition_v2,2022.2.5,29.974276082780083,
5,0,5,0,4,0,4,0,,,,,,,,,,,,,,,,,,,,,,,,,,,,,,,,,,,,,,,,,,,,,,,,,,,,,351.0345499999821,351.0345499999821,0.007277400000020862,0.09823070000857115,2.0,1.492186399991624,,,,,,,,,,,,,,678,Moral,2024-09-17_10h49.29.192,MoralCondition_v2,2022.2.5,29.974276082780083,
5,0,5,0,5,0,5,0,,,,,,,,,,,,,,,,,,,,,,,,,,,,,,,,,,,,,,,,,,,,,,,,,,,,,352.56785210000817,352.56785210000817,0.0066781999776139855,0.09887329989578575,5.0,1.92638119996991,,,,,,,,,,,,,,678,Moral,2024-09-17_10h49.29.192,MoralCondition_v2,2022.2.5,29.974276082780083,
5,0,5,0,6,0,6,0,,,,,,,,,,,,,,,,,,,,,,,,,,,,,,,,,,,,,,,,,,,,,,,,,,,,,354.53463629994076,354.53463629994076,0.006905399961397052,0.09916199999861419,2.0,4.326331499963999,,,,,,,,,,,,,,678,Moral,2024-09-17_10h49.29.192,MoralCondition_v2,2022.2.5,29.974276082780083,
5,0,5,0,,,,,,,,,,,,,,,,,,,,,,,,,,,,,,,,,,,,,,,,,,,,,,,,,,,,,,,,,,,,,,,358.90122669993434,358.90122669993434,0.0011751999845728278,0.09816990001127124,6.0,1.531474499963224,,,,,,,,678,Moral,2024-09-17_10h49.29.192,MoralCondition_v2,2022.2.5,29.974276082780083,
6,0,6,0,0,0,0,0,,,,,,,,,,,,,,,,,,,,,,360.4683214999968,0.00036940001882612705,0.09776749997399747,366.4678842999274,6.030978100025095,366.66779189999215,366.66779189999215,0.08561730000656098,0.19768049998674542,6.030936100054532,372.76806619996205,372.76806619996205,372.76806619996205,0.08899239997845143,0.19789750000927597,378.46792009996716,378.6678704000078,6.030967100057751,6.130979500012472,384.66810489993077,12.031188199995086,384.80120049999095,384.80120049999095,0.031242100056260824,0.13087560003623366,down,1.668372999993153,386.5345813999884,4.9400026910007e-05,0.09777430002577603,392.53436159994453,392.53436159994453,392.53436159994453,0.009121999959461391,0.09772189997602254,5.0,3.6566199000226334,,,,,,,,372.6679078999441,372.6679078999441,384.7679152999772,384.7679152999772,,,678,Moral,2024-09-17_10h49.29.192,MoralCondition_v2,2022.2.5,29.974276082780083,
6,0,6,0,1,0,1,0,,,,,,,,,,,,,,,,,,,,,,,,,,,,,,,,,,,,,,,,,,,,,,,,,,,,,396.2344572999282,396.2344572999282,0.009273699950426817,0.09930269990582019,2.0,2.22425430000294,,,,,,,,,,,,,,678,Moral,2024-09-17_10h49.29.192,MoralCondition_v2,2022.2.5,29.974276082780083,
6,0,6,0,2,0,2,0,,,,,,,,,,,,,,,,,,,,,,,,,,,,,,,,,,,,,,,,,,,,,,,,,,,,,398.51812060002703,398.51812060002703,0.010192000074312091,0.11391690000891685,4.0,4.671314499923028,,,,,,,,,,,,,,678,Moral,2024-09-17_10h49.29.192,MoralCondition_v2,2022.2.5,29.974276082780083,
6,0,6,0,3,0,3,0,,,,,,,,,,,,,,,,,,,,,,,,,,,,,,,,,,,,,,,,,,,,,,,,,,,,,403.2347740000114,403.2347740000114,0.008597000036388636,0.1142334999749437,2.0,3.1064587999135256,,,,,,,,,,,,,,678,Moral,2024-09-17_10h49.29.192,MoralCondition_v2,2022.2.5,29.974276082780083,
6,0,6,0,4,0,4,0,,,,,,,,,,,,,,,,,,,,,,,,,,,,,,,,,,,,,,,,,,,,,,,,,,,,,406.36777439992875,406.36777439992875,0.00636200001463294,0.09919420001097023,2.0,0.993923099944368,,,,,,,,,,,,,,678,Moral,2024-09-17_10h49.29.192,MoralCondition_v2,2022.2.5,29.974276082780083,
6,0,6,0,5,0,5,0,,,,,,,,,,,,,,,,,,,,,,,,,,,,,,,,,,,,,,,,,,,,,,,,,,,,,407.40094979992136,407.40094979992136,0.007686699973419309,0.09801669989246875,2.0,1.159056199947372,,,,,,,,,,,,,,678,Moral,2024-09-17_10h49.29.192,MoralCondition_v2,2022.2.5,29.974276082780083,
6,0,6,0,6,0,6,0,,,,,,,,,,,,,,,,,,,,,,,,,,,,,,,,,,,,,,,,,,,,,,,,,,,,,408.60124440002255,408.60124440002255,0.007099200040102005,0.09820959996432066,3.0,3.3253795000491664,,,,,,,,,,,,,,678,Moral,2024-09-17_10h49.29.192,MoralCondition_v2,2022.2.5,29.974276082780083,
6,0,6,0,,,,,,,,,,,,,,,,,,,,,,,,,,,,,,,,,,,,,,,,,,,,,,,,,,,,,,,,,,,,,,,411.9679770999355,411.9679770999355,0.001098700100556016,0.09817940008360893,3.0,4.598431600024924,,,,,,,,678,Moral,2024-09-17_10h49.29.192,MoralCondition_v2,2022.2.5,29.974276082780083,
7,0,7,0,0,0,0,0,,,,,,,,,,,,,,,,,,,,,,416.60119209997356,0.0002682999474927783,0.0977333999471739,422.6012486999389,6.031219900003634,422.86768439994194,422.86768439994194,0.15076930006034672,0.26438670000061393,6.031167500070296,428.9010565999197,428.9010565999197,428.9010565999197,0.08623140002600849,0.19766370009165257,434.6011327999877,434.80108929995913,6.031050699995831,6.131036199978553,440.80124529998284,12.03120090009179,440.93442339997273,440.93442339997273,0.03127950010821223,0.13102440000511706,down,0.7984890999505296,441.76775669993367,4.2100087739527225e-05,0.09794130001682788,,447.7806823999854,447.7806823999854,0.02238730003591627,0.13114020007196814,6.0,3.077395600033924,,,,,,,,,,440.9010645999806,440.9010645999806,,,678,Moral,2024-09-17_10h49.29.192,MoralCondition_v2,2022.2.5,29.974276082780083,
7,0,7,0,1,0,1,0,,,,,,,,,,,,,,,,,,,,,,,,,,,,,,,,,,,,,,,,,,,,,,,,,,,,,450.900971999974,450.900971999974,0.005530899972654879,0.09916650003287941,5.0,2.761429200065322,,,,,,,,,,,,,,678,Moral,2024-09-17_10h49.29.192,MoralCondition_v2,2022.2.5,29.974276082780083,
7,0,7,0,2,0,2,0,,,,,,,,,,,,,,,,,,,,,,,,,,,,,,,,,,,,,,,,,,,,,,,,,,,,,453.7008325000061,453.7008325000061,0.0065228999592363834,0.0994335999712348,2.0,2.5604830000083894,,,,,,,,,,,,,,678,Moral,2024-09-17_10h49.29.192,MoralCondition_v2,2022.2.5,29.974276082780083,
7,0,7,0,3,0,3,0,,,,,,,,,,,,,,,,,,,,,,,,,,,,,,,,,,,,,,,,,,,,,,,,,,,,,456.30089259997476,456.30089259997476,0.00760520005133003,0.09771270002238452,2.0,1.4583271999144927,,,,,,,,,,,,,,678,Moral,2024-09-17_10h49.29.192,MoralCondition_v2,2022.2.5,29.974276082780083,
7,0,7,0,4,0,4,0,,,,,,,,,,,,,,,,,,,,,,,,,,,,,,,,,,,,,,,,,,,,,,,,,,,,,457.8009940999327,457.8009940999327,0.0074668999295681715,0.0979063999839127,5.0,8.558128700009547,,,,,,,,,,,,,,678,Moral,2024-09-17_10h49.29.192,MoralCondition_v2,2022.2.5,29.974276082780083,
7,0,7,0,5,0,5,0,,,,,,,,,,,,,,,,,,,,,,,,,,,,,,,,,,,,,,,,,,,,,,,,,,,,,466.4009858999634,466.4009858999634,0.006547799916006625,0.0991841999348253,4.0,1.6603982000378892,,,,,,,,,,,,,,678,Moral,2024-09-17_10h49.29.192,MoralCondition_v2,2022.2.5,29.974276082780083,
7,0,7,0,6,0,6,0,,,,,,,,,,,,,,,,,,,,,,,,,,,,,,,,,,,,,,,,,,,,,,,,,,,,,468.10092050000094,468.10092050000094,0.006702600046992302,0.09921010001562536,2.0,1.4932830999605358,,,,,,,,,,,,,,678,Moral,2024-09-17_10h49.29.192,MoralCondition_v2,2022.2.5,29.974276082780083,
7,0,7,0,,,,,,,,,,,,,,,,,,,,,,,,,,,,,,,,,,,,,,,,,,,,,,,,,,,,,,,,,,,,,,,469.63449869991746,469.63449869991746,0.0019503000658005476,0.09733120002783835,2.0,2.9298580000177026,,,,,,,,678,Moral,2024-09-17_10h49.29.192,MoralCondition_v2,2022.2.5,29.974276082780083,
8,0,8,0,0,0,0,0,,,,,,,,,,,,,,,,,,,,,,472.6012601000257,0.0002573999809101224,0.09795849991496652,478.6009703000309,6.031337399967015,478.8008326999843,478.8008326999843,0.09184010000899434,0.19806820002850145,6.031329500023276,484.90107040002476,484.90107040002476,484.90107040002476,0.08840210002381355,0.19781979999970645,490.60102469997946,490.80101990001276,6.03139060002286,6.131354399956763,496.8010809000116,12.031523099984042,496.9343168999767,496.9343168999767,0.03147390007507056,0.1313104999717325,up,1.374692500103265,498.3509908999549,3.650004509836435e-05,0.09793020004872233,,504.38460119999945,504.38460119999945,0.02518440003041178,0.13130950008053333,2.0,1.7403142000548542,,,,,,,,484.801125900005,484.801125900005,496.9009558999678,496.9009558999678,,,678,Moral,2024-09-17_10h49.29.192,MoralCondition_v2,2022.2.5,29.974276082780083,
8,0,8,0,1,0,1,0,,,,,,,,,,,,,,,,,,,,,,,,,,,,,,,,,,,,,,,,,,,,,,,,,,,,,506.1510161999613,506.1510161999613,0.007336299982853234,0.09866449993569404,2.0,0.8257529999827966,,,,,,,,,,,,,,678,Moral,2024-09-17_10h49.29.192,MoralCondition_v2,2022.2.5,29.974276082780083,
8,0,8,0,2,0,2,0,,,,,,,,,,,,,,,,,,,,,,,,,,,,,,,,,,,,,,,,,,,,,,,,,,,,,507.01778370002285,507.01778370002285,0.007352699991315603,0.0978909000987187,5.0,1.6914559000870213,,,,,,,,,,,,,,678,Moral,2024-09-17_10h49.29.192,MoralCondition_v2,2022.2.5,29.974276082780083,
8,0,8,0,3,0,3,0,,,,,,,,,,,,,,,,,,,,,,,,,,,,,,,,,,,,,,,,,,,,,,,,,,,,,508.76790189999156,508.76790189999156,0.008676899946294725,0.11435879999771714,2.0,1.6732481000944972,,,,,,,,,,,,,,678,Moral,2024-09-17_10h49.29.192,MoralCondition_v2,2022.2.5,29.974276082780083,
8,0,8,0,4,0,4,0,,,,,,,,,,,,,,,,,,,,,,,,,,,,,,,,,,,,,,,,,,,,,,,,,,,,,510.48451490001753,510.48451490001753,0.008001800044439733,0.11432890000287443,2.0,1.6406408000038937,,,,,,,,,,,,,,678,Moral,2024-09-17_10h49.29.192,MoralCondition_v2,2022.2.5,29.974276082780083,
8,0,8,0,5,0,5,0,,,,,,,,,,,,,,,,,,,,,,,,,,,,,,,,,,,,,,,,,,,,,,,,,,,,,512.1509379999479,512.1509379999479,0.006152600049972534,0.09884910006076097,2.0,0.9601675999583676,,,,,,,,,,,,,,678,Moral,2024-09-17_10h49.29.192,MoralCondition_v2,2022.2.5,29.974276082780083,
8,0,8,0,6,0,6,0,,,,,,,,,,,,,,,,,,,,,,,,,,,,,,,,,,,,,,,,,,,,,,,,,,,,,513.1510022999719,513.1510022999719,0.005907600047066808,0.09873860003426671,2.0,2.59394659998361,,,,,,,,,,,,,,678,Moral,2024-09-17_10h49.29.192,MoralCondition_v2,2022.2.5,29.974276082780083,
8,0,8,0,,,,,,,,,,,,,,,,,,,,,,,,,,,,,,,,,,,,,,,,,,,,,,,,,,,,,,,,,,,,,,,515.7843458999414,515.7843458999414,0.00217929994687438,0.09714259998872876,6.0,1.7299503000685945,,,,,,,,678,Moral,2024-09-17_10h49.29.192,MoralCondition_v2,2022.2.5,29.974276082780083,
9,0,9,0,0,0,0,0,,,,,,,,,,,,,,,,,,,,,,517.5511192999547,0.00013800000306218863,0.09940080007072538,523.5513097000076,5.999550300068222,523.7174848000286,523.7174848000286,0.056620500050485134,0.16583860001992434,5.999191100010648,529.8175491000293,529.8175491000293,529.8175491000293,0.053680800017900765,0.1659310000250116,535.5175774999661,535.7175724999979,5.999225700041279,6.099151900038123,541.7175713999895,11.999274100060575,541.8508945999201,541.8508945999201,-9.819993283599615e-05,0.09916680003516376,up,0.9066692999331281,542.8175625000149,4.4599990360438824e-05,0.09808639995753765,548.8177676999476,548.8177676999476,548.8177676999476,0.0063807000406086445,0.09809310000855476,2.0,1.525963700027205,,,,,,,6.099509499967098,529.7175713999895,529.7175713999895,541.8008378000231,541.8008378000231,6.099239100003615,12.099055500118993,678,Moral,2024-09-17_10h49.29.192,MoralCondition_v2,2022.2.5,29.974276082780083,
9,0,9,0,1,0,1,0,,,,,,,,,,,,,,,,,,,,,,,,,,,,,,,,,,,,,,,,,,,,,,,,,,,,,550.3841906000162,550.3841906000162,0.008110399940051138,0.09716779994778335,5.0,2.8236039000330493,,,,,,,,,,,,,,678,Moral,2024-09-17_10h49.29.192,MoralCondition_v2,2022.2.5,29.974276082780083,
9,0,9,0,2,0,2,0,,,,,,,,,,,,,,,,,,,,,,,,,,,,,,,,,,,,,,,,,,,,,,,,,,,,,553.2508112000069,553.2508112000069,0.008060800028033555,0.09796190005727112,2.0,2.690658299950883,,,,,,,,,,,,,,678,Moral,2024-09-17_10h49.29.192,MoralCondition_v2,2022.2.5,29.974276082780083,
9,0,9,0,3,0,3,0,,,,,,,,,,,,,,,,,,,,,,,,,,,,,,,,,,,,,,,,,,,,,,,,,,,,,556.001372299972,556.001372299972,0.00967469997704029,0.11458619998302311,2.0,1.4389816999901086,,,,,,,,,,,,,,678,Moral,2024-09-17_10h49.29.192,MoralCondition_v2,2022.2.5,29.974276082780083,
9,0,9,0,4,0,4,0,,,,,,,,,,,,,,,,,,,,,,,,,,,,,,,,,,,,,,,,,,,,,,,,,,,,,557.4674427999416,557.4674427999416,0.0076139000011608005,0.09764350007753819,2.0,2.0577524000545964,,,,,,,,,,,,,,678,Moral,2024-09-17_10h49.29.192,MoralCondition_v2,2022.2.5,29.974276082780083,
9,0,9,0,5,0,5,0,,,,,,,,,,,,,,,,,,,,,,,,,,,,,,,,,,,,,,,,,,,,,,,,,,,,,559.5675765000051,559.5675765000051,0.007654000073671341,0.09788040001876652,2.0,0.6580353999743238,,,,,,,,,,,,,,678,Moral,2024-09-17_10h49.29.192,MoralCondition_v2,2022.2.5,29.974276082780083,
9,0,9,0,6,0,6,0,,,,,,,,,,,,,,,,,,,,,,,,,,,,,,,,,,,,,,,,,,,,,,,,,,,,,560.2674959999276,560.2674959999276,0.0064425000455230474,0.09910620003938675,2.0,0.6603488998953253,,,,,,,,,,,,,,678,Moral,2024-09-17_10h49.29.192,MoralCondition_v2,2022.2.5,29.974276082780083,
9,0,9,0,,,,,,,,,,,,,,,,,,,,,,,,,,,,,,,,,,,,,,,,,,,,,,,,,,,,,,,,,,,,,,,560.9675261999946,560.9675261999946,0.0013832999393343925,0.09753909998107702,6.0,1.5307125999825075,,,,,,,,678,Moral,2024-09-17_10h49.29.192,MoralCondition_v2,2022.2.5,29.974276082780083,
10,0,10,0,0,0,0,0,,,,,,,,,,,,,,,,,,,,,,562.5344834999414,0.00026160001289099455,0.09779959998559207,568.5341774999397,6.031089900061488,568.7173627000302,568.7173627000302,0.07484060002025217,0.18103630002588034,6.014318000059575,574.817778000026,574.817778000026,574.817778000026,0.07112810004036874,0.18126200011465698,580.5174874999793,580.7174606999615,6.014376600040123,6.114396500051953,586.7174739999464,12.014410700066946,586.8507647999795,586.8507647999795,0.014509100117720664,0.11438160005491227,down,0.41015540005173534,587.3010323999915,2.5499961338937283e-05,0.09884019999299198,593.3175019000191,593.3175019000191,593.3175019000191,0.010819899966008961,0.11570650001522154,2.0,2.7723763999529183,,,,,,,,574.7176060000202,574.7176060000202,586.8174378999975,586.8174378999975,,,678,Moral,2024-09-17_10h49.29.192,MoralCondition_v2,2022.2.5,29.974276082780083,
10,0,10,0,1,0,1,0,,,,,,,,,,,,,,,,,,,,,,,,,,,,,,,,,,,,,,,,,,,,,,,,,,,,,596.1172943999991,596.1172943999991,0.006639500032179058,0.09909689996857196,5.0,2.460244399961084,,,,,,,,,,,,,,678,Moral,2024-09-17_10h49.29.192,MoralCondition_v2,2022.2.5,29.974276082780083,
10,0,10,0,2,0,2,0,,,,,,,,,,,,,,,,,,,,,,,,,,,,,,,,,,,,,,,,,,,,,,,,,,,,,598.6172399999341,598.6172399999341,0.0075441999360919,0.09811709995847195,2.0,1.5582234000321478,,,,,,,,,,,,,,678,Moral,2024-09-17_10h49.29.192,MoralCondition_v2,2022.2.5,29.974276082780083,
10,0,10,0,3,0,3,0,,,,,,,,,,,,,,,,,,,,,,,,,,,,,,,,,,,,,,,,,,,,,,,,,,,,,600.2172720999224,600.2172720999224,0.0066111000487580895,0.09936000010930002,6.0,1.1935129000339657,,,,,,,,,,,,,,678,Moral,2024-09-17_10h49.29.192,MoralCondition_v2,2022.2.5,29.974276082780083,
10,0,10,0,4,0,4,0,,,,,,,,,,,,,,,,,,,,,,,,,,,,,,,,,,,,,,,,,,,,,,,,,,,,,601.4507779999403,601.4507779999403,0.007593300077132881,0.09819660009816289,5.0,1.8914041999960318,,,,,,,,,,,,,,678,Moral,2024-09-17_10h49.29.192,MoralCondition_v2,2022.2.5,29.974276082780083,
10,0,10,0,5,0,5,0,,,,,,,,,,,,,,,,,,,,,,,,,,,,,,,,,,,,,,,,,,,,,,,,,,,,,603.3841136000119,603.3841136000119,0.006908299983479083,0.0992886999156326,3.0,2.3267370000248775,,,,,,,,,,,,,,678,Moral,2024-09-17_10h49.29.192,MoralCondition_v2,2022.2.5,29.974276082780083,
10,0,10,0,6,0,6,0,,,,,,,,,,,,,,,,,,,,,,,,,,,,,,,,,,,,,,,,,,,,,,,,,,,,,605.7506003000308,605.7506003000308,0.006614699959754944,0.09918429993558675,4.0,4.626759300008416,,,,,,,,,,,,,,678,Moral,2024-09-17_10h49.29.192,MoralCondition_v2,2022.2.5,29.974276082780083,
10,0,10,0,,,,,,,,,,,,,,,,,,,,,,,,,,,,,,,,,,,,,,,,,,,,,,,,,,,,,,,,,,,,,,,610.4176512999693,610.4176512999693,0.0009135999716818333,0.09859130007680506,2.0,2.2988901999779046,,,,,,,,678,Moral,2024-09-17_10h49.29.192,MoralCondition_v2,2022.2.5,29.974276082780083,
11,0,11,0,0,0,0,0,,,,,,,,,,,,,,,,,,,,,,612.75089939998,0.00044020009227097034,0.09750060003716499,618.7673545000143,6.014107100083493,618.9342679999536,618.9342679999536,0.07073130004573613,0.18083200010005385,6.014388800016604,625.0341365999775,625.0341365999775,625.0341365999775,0.07105700008105487,0.180991500033997,630.7339814000297,630.9340048999293,6.014177900040522,6.114105800050311,636.9339691000059,12.014139900100417,637.0673245999496,637.0673245999496,0.014269500155933201,0.11450860009063035,down,0.33870199997909367,637.4506661000196,2.6899971999228e-05,0.09913200000301003,643.4505617999239,643.4505617999239,643.4505617999239,0.006069700000807643,0.09905680001247674,3.0,4.127467399928719,,,,,,,,624.9340038999217,624.9340038999217,637.033959500026,637.033959500026,,,678,Moral,2024-09-17_10h49.29.192,MoralCondition_v2,2022.2.5,29.974276082780083,
11,0,11,0,1,0,1,0,,,,,,,,,,,,,,,,,,,,,,,,,,,,,,,,,,,,,,,,,,,,,,,,,,,,,647.617312300019,647.617312300019,0.00664789997972548,0.0991536999354139,2.0,1.326648800051771,,,,,,,,,,,,,,678,Moral,2024-09-17_10h49.29.192,MoralCondition_v2,2022.2.5,29.974276082780083,
11,0,11,0,2,0,2,0,,,,,,,,,,,,,,,,,,,,,,,,,,,,,,,,,,,,,,,,,,,,,,,,,,,,,648.9839886999689,648.9839886999689,0.006824200041592121,0.09953330003190786,3.0,1.726793700014241,,,,,,,,,,,,,,678,Moral,2024-09-17_10h49.29.192,MoralCondition_v2,2022.2.5,29.974276082780083,
11,0,11,0,3,0,3,0,,,,,,,,,,,,,,,,,,,,,,,,,,,,,,,,,,,,,,,,,,,,,,,,,,,,,650.7504816999426,650.7504816999426,0.006713000009767711,0.09945830004289746,2.0,2.7602428999962285,,,,,,,,,,,,,,678,Moral,2024-09-17_10h49.29.192,MoralCondition_v2,2022.2.5,29.974276082780083,
11,0,11,0,4,0,4,0,,,,,,,,,,,,,,,,,,,,,,,,,,,,,,,,,,,,,,,,,,,,,,,,,,,,,653.5503950000275,653.5503950000275,0.007720900001004338,0.09811770007945597,3.0,1.4579808000707999,,,,,,,,,,,,,,678,Moral,2024-09-17_10h49.29.192,MoralCondition_v2,2022.2.5,29.974276082780083,
11,0,11,0,5,0,5,0,,,,,,,,,,,,,,,,,,,,,,,,,,,,,,,,,,,,,,,,,,,,,,,,,,,,,655.0504471999593,655.0504471999593,0.007671899977140129,0.09788060002028942,5.0,3.5244241999462247,,,,,,,,,,,,,,678,Moral,2024-09-17_10h49.29.192,MoralCondition_v2,2022.2.5,29.974276082780083,
11,0,11,0,6,0,6,0,,,,,,,,,,,,,,,,,,,,,,,,,,,,,,,,,,,,,,,,,,,,,,,,,,,,,658.6171097999904,658.6171097999904,0.007709600031375885,0.0976303000934422,2.0,1.5908515000483021,,,,,,,,,,,,,,678,Moral,2024-09-17_10h49.29.192,MoralCondition_v2,2022.2.5,29.974276082780083,
11,0,11,0,,,,,,,,,,,,,,,,,,,,,,,,,,,,,,,,,,,,,,,,,,,,,,,,,,,,,,,,,,,,,,,660.2507287999615,660.2507287999615,0.0013741999864578247,0.09767429996281862,3.0,3.197512899991125,,,,,,,,678,Moral,2024-09-17_10h49.29.192,MoralCondition_v2,2022.2.5,29.974276082780083,
12,0,12,0,0,0,0,0,,,,,,,,,,,,,,,,,,,,,,663.4842038999777,0.00027660001069307327,0.09775810001883656,669.5005707999226,6.0145654999651015,669.6671258999268,669.6671258999268,0.07418360002338886,0.1812698000576347,6.0145381999900565,675.767311399919,675.767311399919,675.767311399919,0.07425090007018298,0.1814714000793174,681.4672031999798,681.6672617000295,6.0146922001149505,6.114800100098364,687.6671740999445,12.014576500048861,687.8006388000213,687.8006388000213,0.014935600105673075,0.11452490009833127,up,1.613076000008732,689.4505164999282,4.070007707923651e-05,0.0978948000119999,695.4837970000226,695.4837970000226,695.4837970000226,0.0034690999891608953,0.13096830004360527,2.0,1.6116239000111818,,,,,,,,675.6672131000087,675.6672131000087,687.7673826999962,687.7673826999962,,,678,Moral,2024-09-17_10h49.29.192,MoralCondition_v2,2022.2.5,29.974276082780083,
12,0,12,0,1,0,1,0,,,,,,,,,,,,,,,,,,,,,,,,,,,,,,,,,,,,,,,,,,,,,,,,,,,,,697.1003098000074,697.1003098000074,0.007554500014521182,0.11531300004571676,5.0,1.7755123000824824,,,,,,,,,,,,,,678,Moral,2024-09-17_10h49.29.192,MoralCondition_v2,2022.2.5,29.974276082780083,
12,0,12,0,2,0,2,0,,,,,,,,,,,,,,,,,,,,,,,,,,,,,,,,,,,,,,,,,,,,,,,,,,,,,698.9172417999944,698.9172417999944,0.00773539999499917,0.09769750002305955,2.0,1.390772399958223,,,,,,,,,,,,,,678,Moral,2024-09-17_10h49.29.192,MoralCondition_v2,2022.2.5,29.974276082780083,
12,0,12,0,3,0,3,0,,,,,,,,,,,,,,,,,,,,,,,,,,,,,,,,,,,,,,,,,,,,,,,,,,,,,700.3503969999729,700.3503969999729,0.007743200054392219,0.09772820002399385,2.0,1.1243054999504238,,,,,,,,,,,,,,678,Moral,2024-09-17_10h49.29.192,MoralCondition_v2,2022.2.5,29.974276082780083,
12,0,12,0,4,0,4,0,,,,,,,,,,,,,,,,,,,,,,,,,,,,,,,,,,,,,,,,,,,,,,,,,,,,,701.5170259999577,701.5170259999577,0.007599500007927418,0.09813739999663085,2.0,1.357952499995008,,,,,,,,,,,,,,678,Moral,2024-09-17_10h49.29.192,MoralCondition_v2,2022.2.5,29.974276082780083,
12,0,12,0,5,0,5,0,,,,,,,,,,,,,,,,,,,,,,,,,,,,,,,,,,,,,,,,,,,,,,,,,,,,,702.9337893999182,702.9337893999182,0.012815899914130569,0.11425859993323684,2.0,1.5688531999476254,,,,,,,,,,,,,,678,Moral,2024-09-17_10h49.29.192,MoralCondition_v2,2022.2.5,29.974276082780083,
12,0,12,0,6,0,6,0,,,,,,,,,,,,,,,,,,,,,,,,,,,,,,,,,,,,,,,,,,,,,,,,,,,,,704.5336484999862,704.5336484999862,0.007667900063097477,0.0977081999881193,2.0,1.2911360999569297,,,,,,,,,,,,,,678,Moral,2024-09-17_10h49.29.192,MoralCondition_v2,2022.2.5,29.974276082780083,
12,0,12,0,,,,,,,,,,,,,,,,,,,,,,,,,,,,,,,,,,,,,,,,,,,,,,,,,,,,,,,,,,,,,,,705.867235200014,705.867235200014,0.0019171000458300114,0.09798439999576658,6.0,1.2971040999982506,,,,,,,,678,Moral,2024-09-17_10h49.29.192,MoralCondition_v2,2022.2.5,29.974276082780083,
13,0,13,0,0,0,0,0,,,,,,,,,,,,,,,,,,,,,,707.2007338999538,0.0002891999902203679,0.09758820000570267,713.2004343000008,6.030957099981606,713.4003397999331,713.4003397999331,0.09320210001897067,0.19762560003437102,6.030884000007063,719.5003584999358,719.5003584999358,719.5003584999358,0.0896190000930801,0.19779810006730258,725.2005579000106,725.4004292999161,6.0309558000881225,6.130916700116359,731.4003772999858,12.030891100061126,731.5336894999491,731.5336894999491,0.03105310013052076,0.130835400079377,up,0.7118249000050128,732.2836981000146,4.6900007873773575e-05,0.09765150002203882,,738.3171123999637,738.3171123999637,0.02548359998036176,0.13100229995325208,2.0,1.773128299973905,,,,,,,,719.4003504000138,719.4003504000138,731.5003712999169,731.5003712999169,,,678,Moral,2024-09-17_10h49.29.192,MoralCondition_v2,2022.2.5,29.974276082780083,
13,0,13,0,1,0,1,0,,,,,,,,,,,,,,,,,,,,,,,,,,,,,,,,,,,,,,,,,,,,,,,,,,,,,740.116847999976,740.116847999976,0.007845700019970536,0.0990550999995321,2.0,0.692251899978146,,,,,,,,,,,,,,678,Moral,2024-09-17_10h49.29.192,MoralCondition_v2,2022.2.5,29.974276082780083,
13,0,13,0,2,0,2,0,,,,,,,,,,,,,,,,,,,,,,,,,,,,,,,,,,,,,,,,,,,,,,,,,,,,,740.8501882000128,740.8501882000128,0.007387799909338355,0.09791010001208633,2.0,1.1914626999059692,,,,,,,,,,,,,,678,Moral,2024-09-17_10h49.29.192,MoralCondition_v2,2022.2.5,29.974276082780083,
13,0,13,0,3,0,3,0,,,,,,,,,,,,,,,,,,,,,,,,,,,,,,,,,,,,,,,,,,,,,,,,,,,,,742.1006073999451,742.1006073999451,0.008542200084775686,0.11469610000494868,2.0,1.1404015999287367,,,,,,,,,,,,,,678,Moral,2024-09-17_10h49.29.192,MoralCondition_v2,2022.2.5,29.974276082780083,
13,0,13,0,4,0,4,0,,,,,,,,,,,,,,,,,,,,,,,,,,,,,,,,,,,,,,,,,,,,,,,,,,,,,743.2669817999704,743.2669817999704,0.0068641999969258904,0.09793200006242841,2.0,1.058559100027196,,,,,,,,,,,,,,678,Moral,2024-09-17_10h49.29.192,MoralCondition_v2,2022.2.5,29.974276082780083,
13,0,13,0,5,0,5,0,,,,,,,,,,,,,,,,,,,,,,,,,,,,,,,,,,,,,,,,,,,,,,,,,,,,,744.3668352999957,744.3668352999957,0.007392700063064694,0.09836960001848638,5.0,1.4251344000222161,,,,,,,,,,,,,,678,Moral,2024-09-17_10h49.29.192,MoralCondition_v2,2022.2.5,29.974276082780083,
13,0,13,0,6,0,6,0,,,,,,,,,,,,,,,,,,,,,,,,,,,,,,,,,,,,,,,,,,,,,,,,,,,,,745.8337061000057,745.8337061000057,0.006921000080183148,0.09901250002440065,2.0,1.293086199904792,,,,,,,,,,,,,,678,Moral,2024-09-17_10h49.29.192,MoralCondition_v2,2022.2.5,29.974276082780083,
13,0,13,0,,,,,,,,,,,,,,,,,,,,,,,,,,,,,,,,,,,,,,,,,,,,,,,,,,,,,,,,,,,,,,,747.1670770000201,747.1670770000201,0.0006964999483898282,0.09912789997179061,6.0,1.6996276000281796,,,,,,,,678,Moral,2024-09-17_10h49.29.192,MoralCondition_v2,2022.2.5,29.974276082780083,
14,0,14,0,0,0,0,0,,,,,,,,,,,,,,,,,,,,,,748.9006086000009,0.00029039999935775995,0.09772680001333356,754.9169352999888,6.014293399988674,755.0835003999528,755.0835003999528,0.0677085000788793,0.1807845999719575,6.013967300066724,761.1837071999907,761.1837071999907,761.1837071999907,0.0675713000819087,0.18097680003847927,766.8836464999476,767.0835991000058,6.014180700061843,6.114160199998878,773.0835924999556,12.014175900025293,773.217305899947,773.217305899947,0.0145153000485152,0.11411340010818094,up,0.7720545999472961,774.0502179999603,3.839994315057993e-05,0.09811529994476587,,780.0837406999199,780.0837406999199,0.02437400002963841,0.13131710002198815,5.0,1.3749254000140354,,,,,,,,761.083615200012,761.083615200012,773.183818200021,773.183818200021,,,678,Moral,2024-09-17_10h49.29.192,MoralCondition_v2,2022.2.5,29.974276082780083,
14,0,14,0,1,0,1,0,,,,,,,,,,,,,,,,,,,,,,,,,,,,,,,,,,,,,,,,,,,,,,,,,,,,,781.5005590999499,781.5005590999499,0.007789100054651499,0.1141733000986278,2.0,1.1740310000022873,,,,,,,,,,,,,,678,Moral,2024-09-17_10h49.29.192,MoralCondition_v2,2022.2.5,29.974276082780083,
14,0,14,0,2,0,2,0,,,,,,,,,,,,,,,,,,,,,,,,,,,,,,,,,,,,,,,,,,,,,,,,,,,,,782.7174803999951,782.7174803999951,0.007982400013133883,0.11434660002123564,2.0,0.7077378999674693,,,,,,,,,,,,,,678,Moral,2024-09-17_10h49.29.192,MoralCondition_v2,2022.2.5,29.974276082780083,
14,0,14,0,3,0,3,0,,,,,,,,,,,,,,,,,,,,,,,,,,,,,,,,,,,,,,,,,,,,,,,,,,,,,783.4502213000087,783.4502213000087,0.006915200036019087,0.0976780999917537,2.0,0.6582530000014231,,,,,,,,,,,,,,678,Moral,2024-09-17_10h49.29.192,MoralCondition_v2,2022.2.5,29.974276082780083,
14,0,14,0,4,0,4,0,,,,,,,,,,,,,,,,,,,,,,,,,,,,,,,,,,,,,,,,,,,,,,,,,,,,,784.1502278000116,784.1502278000116,0.008066999958828092,0.09805079991929233,2.0,0.6243295000167564,,,,,,,,,,,,,,678,Moral,2024-09-17_10h49.29.192,MoralCondition_v2,2022.2.5,29.974276082780083,
14,0,14,0,5,0,5,0,,,,,,,,,,,,,,,,,,,,,,,,,,,,,,,,,,,,,,,,,,,,,,,,,,,,,784.8170041999547,784.8170041999547,0.006522499956190586,0.09941709996201098,2.0,0.7274965000106022,,,,,,,,,,,,,,678,Moral,2024-09-17_10h49.29.192,MoralCondition_v2,2022.2.5,29.974276082780083,
14,0,14,0,6,0,6,0,,,,,,,,,,,,,,,,,,,,,,,,,,,,,,,,,,,,,,,,,,,,,,,,,,,,,785.5835809999844,785.5835809999844,0.0066850000293925405,0.09868480009026825,2.0,0.5929870000109076,,,,,,,,,,,,,,678,Moral,2024-09-17_10h49.29.192,MoralCondition_v2,2022.2.5,29.974276082780083,
14,0,14,0,,,,,,,,,,,,,,,,,,,,,,,,,,,,,,,,,,,,,,,,,,,,,,,,,,,,,,,,,,,,,,,786.2167855999433,786.2167855999433,0.0014920999528840184,0.09790769999381155,6.0,1.4640641000587493,,,,,,,,678,Moral,2024-09-17_10h49.29.192,MoralCondition_v2,2022.2.5,29.974276082780083,
15,0,15,0,0,0,0,0,,,,,,,,,,,,,,,,,,,,,,787.7170809999807,0.00032629992347210646,0.09771049988921732,793.7335198000073,6.014255299931392,793.9001022999873,793.9001022999873,0.07562449993565679,0.18084249994717538,6.014304199954495,800.0002252999693,800.0002252999693,800.0002252999693,0.07324359996709973,0.18097979994490743,805.7000977999996,805.9002027999377,6.014406400034204,6.114240100025199,811.9001091999235,12.014237400027923,812.033422700013,812.033422700013,0.014490799978375435,0.11422160000074655,down,0.9876568000763655,813.0667489999905,4.549999721348286e-05,0.09800929995253682,,819.0832828999264,819.0832828999264,0.025918800034560263,0.11459340003784746,6.0,2.822937299963087,,,,,,,,799.9002640999388,799.9002640999388,812.0002085999586,812.0002085999586,,,678,Moral,2024-09-17_10h49.29.192,MoralCondition_v2,2022.2.5,29.974276082780083,
15,0,15,0,1,0,1,0,,,,,,,,,,,,,,,,,,,,,,,,,,,,,,,,,,,,,,,,,,,,,,,,,,,,,821.966847899952,821.966847899952,0.007851799950003624,0.1139285999815911,2.0,1.7737984000705183,,,,,,,,,,,,,,678,Moral,2024-09-17_10h49.29.192,MoralCondition_v2,2022.2.5,29.974276082780083,
15,0,15,0,2,0,2,0,,,,,,,,,,,,,,,,,,,,,,,,,,,,,,,,,,,,,,,,,,,,,,,,,,,,,823.76664539997,823.76664539997,0.006805800017900765,0.0991306999931112,5.0,2.359933799947612,,,,,,,,,,,,,,678,Moral,2024-09-17_10h49.29.192,MoralCondition_v2,2022.2.5,29.974276082780083,
15,0,15,0,3,0,3,0,,,,,,,,,,,,,,,,,,,,,,,,,,,,,,,,,,,,,,,,,,,,,,,,,,,,,826.1667733999202,826.1667733999202,0.006691500078886747,0.0983011000789702,2.0,1.49348479998298,,,,,,,,,,,,,,678,Moral,2024-09-17_10h49.29.192,MoralCondition_v2,2022.2.5,29.974276082780083,
15,0,15,0,4,0,4,0,,,,,,,,,,,,,,,,,,,,,,,,,,,,,,,,,,,,,,,,,,,,,,,,,,,,,827.7000951999798,827.7000951999798,0.007652899948880076,0.09839259996078908,5.0,1.558568499982357,,,,,,,,,,,,,,678,Moral,2024-09-17_10h49.29.192,MoralCondition_v2,2022.2.5,29.974276082780083,
15,0,15,0,5,0,5,0,,,,,,,,,,,,,,,,,,,,,,,,,,,,,,,,,,,,,,,,,,,,,,,,,,,,,829.3001047000289,829.3001047000289,0.00765870010945946,0.09748280001804233,3.0,1.8241861999267712,,,,,,,,,,,,,,678,Moral,2024-09-17_10h49.29.192,MoralCondition_v2,2022.2.5,29.974276082780083,
15,0,15,0,6,0,6,0,,,,,,,,,,,,,,,,,,,,,,,,,,,,,,,,,,,,,,,,,,,,,,,,,,,,,831.1667229000013,831.1667229000013,0.006441100034862757,0.09919079998508096,6.0,3.4938489000778645,,,,,,,,,,,,,,678,Moral,2024-09-17_10h49.29.192,MoralCondition_v2,2022.2.5,29.974276082780083,
15,0,15,0,,,,,,,,,,,,,,,,,,,,,,,,,,,,,,,,,,,,,,,,,,,,,,,,,,,,,,,,,,,,,,,834.6999692999525,834.6999692999525,0.000687599997036159,0.09912249993067235,2.0,5.832877999986522,,,,,,,,678,Moral,2024-09-17_10h49.29.192,MoralCondition_v2,2022.2.5,29.974276082780083,
16,0,16,0,0,0,0,0,,,,,,,,,,,,,,,,,,,,,,840.5667308999691,0.0002490999177098274,0.09815390000585467,846.5498527999735,6.014411599957384,846.7332011000253,846.7332011000253,0.0509462000336498,0.16448319994378835,6.0311682999599725,852.8665376999415,852.8665376999415,852.8665376999415,0.08376169996336102,0.19815189996734262,858.5667417999357,858.767031299998,6.031550999963656,6.131530000013299,864.7667624999303,12.031330300029367,864.8999594999477,864.8999594999477,0.03142690006643534,0.131070000003092,down,0.522681700065732,865.4665907999733,1.4999997802078724e-05,0.09951620001811534,871.4833130999468,871.4833130999468,871.4833130999468,0.011341099976561964,0.11616470001172274,3.0,2.539102999959141,,,,,,,6.097758399904706,852.7333258999279,852.7333258999279,864.8666064999998,864.8666064999998,,,678,Moral,2024-09-17_10h49.29.192,MoralCondition_v2,2022.2.5,29.974276082780083,
16,0,16,0,1,0,1,0,,,,,,,,,,,,,,,,,,,,,,,,,,,,,,,,,,,,,,,,,,,,,,,,,,,,,874.0498971999623,874.0498971999623,0.007710199919529259,0.09788609994575381,5.0,1.8912341000977904,,,,,,,,,,,,,,678,Moral,2024-09-17_10h49.29.192,MoralCondition_v2,2022.2.5,29.974276082780083,
16,0,16,0,2,0,2,0,,,,,,,,,,,,,,,,,,,,,,,,,,,,,,,,,,,,,,,,,,,,,,,,,,,,,876.00017080002,876.00017080002,0.00851190008688718,0.11443170008715242,6.0,1.673520699958317,,,,,,,,,,,,,,678,Moral,2024-09-17_10h49.29.192,MoralCondition_v2,2022.2.5,29.974276082780083,
16,0,16,0,3,0,3,0,,,,,,,,,,,,,,,,,,,,,,,,,,,,,,,,,,,,,,,,,,,,,,,,,,,,,877.7000676000025,877.7000676000025,0.006595099926926196,0.09929469996131957,2.0,1.593644900014624,,,,,,,,,,,,,,678,Moral,2024-09-17_10h49.29.192,MoralCondition_v2,2022.2.5,29.974276082780083,
16,0,16,0,4,0,4,0,,,,,,,,,,,,,,,,,,,,,,,,,,,,,,,,,,,,,,,,,,,,,,,,,,,,,879.333343999926,879.333343999926,0.00785850000102073,0.09796319995075464,6.0,3.4578251999337226,,,,,,,,,,,,,,678,Moral,2024-09-17_10h49.29.192,MoralCondition_v2,2022.2.5,29.974276082780083,
16,0,16,0,5,0,5,0,,,,,,,,,,,,,,,,,,,,,,,,,,,,,,,,,,,,,,,,,,,,,,,,,,,,,882.8502499000169,882.8502499000169,0.01000230002682656,0.11469449999276549,5.0,1.6059427000582218,,,,,,,,,,,,,,678,Moral,2024-09-17_10h49.29.192,MoralCondition_v2,2022.2.5,29.974276082780083,
16,0,16,0,6,0,6,0,,,,,,,,,,,,,,,,,,,,,,,,,,,,,,,,,,,,,,,,,,,,,,,,,,,,,884.48311869998,884.48311869998,0.006211600033566356,0.09916320000775158,2.0,1.1605098000727594,,,,,,,,,,,,,,678,Moral,2024-09-17_10h49.29.192,MoralCondition_v2,2022.2.5,29.974276082780083,
16,0,16,0,,,,,,,,,,,,,,,,,,,,,,,,,,,,,,,,,,,,,,,,,,,,,,,,,,,,,,,,,,,,,,,885.6833216999657,885.6833216999657,0.0006923000328242779,0.09886709996499121,2.0,1.9323759999824688,,,,,,,,678,Moral,2024-09-17_10h49.29.192,MoralCondition_v2,2022.2.5,29.974276082780083,
17,0,17,0,0,0,0,0,,,,,,,,,,,,,,,,,,,,,,887.6500605000183,0.00029200001154094934,0.09744000004138798,893.6498454000102,6.030757600092329,893.8497599000111,893.8497599000111,0.09080000012181699,0.19736360001843423,6.030696800095029,899.9505636999384,899.9505636999384,899.9505636999384,0.08941190014593303,0.19750310003291816,905.6499082000228,905.849746700027,6.03068200009875,6.130673400126398,911.8497703999747,12.030690200044774,911.9830926000141,911.9830926000141,0.031001700088381767,0.13060580007731915,down,1.8303549999836832,913.8497748000082,4.0899962186813354e-05,0.09787269996013492,,919.8833334000083,919.8833334000083,0.02550570003222674,0.13127130002249032,6.0,3.906646899995394,,,,,,,,899.8498281999491,899.8498281999491,911.9497797000222,911.9497797000222,,,678,Moral,2024-09-17_10h49.29.192,MoralCondition_v2,2022.2.5,29.974276082780083,
17,0,17,0,1,0,1,0,,,,,,,,,,,,,,,,,,,,,,,,,,,,,,,,,,,,,,,,,,,,,,,,,,,,,923.8163003999507,923.8163003999507,0.00660070008598268,0.09924820007290691,4.0,6.727037200005725,,,,,,,,,,,,,,678,Moral,2024-09-17_10h49.29.192,MoralCondition_v2,2022.2.5,29.974276082780083,
17,0,17,0,2,0,2,0,,,,,,,,,,,,,,,,,,,,,,,,,,,,,,,,,,,,,,,,,,,,,,,,,,,,,930.5832234999398,930.5832234999398,0.00669990002643317,0.099129099980928,2.0,1.3933188999071717,,,,,,,,,,,,,,678,Moral,2024-09-17_10h49.29.192,MoralCondition_v2,2022.2.5,29.974276082780083,
17,0,17,0,3,0,3,0,,,,,,,,,,,,,,,,,,,,,,,,,,,,,,,,,,,,,,,,,,,,,,,,,,,,,932.0164068000158,932.0164068000158,0.0065740999998524785,0.09938939998392016,5.0,2.5601900999899954,,,,,,,,,,,,,,678,Moral,2024-09-17_10h49.29.192,MoralCondition_v2,2022.2.5,29.974276082780083,
17,0,17,0,4,0,4,0,,,,,,,,,,,,,,,,,,,,,,,,,,,,,,,,,,,,,,,,,,,,,,,,,,,,,934.6164972999832,934.6164972999832,0.007590199937112629,0.09779659996274859,2.0,2.2246126999380067,,,,,,,,,,,,,,678,Moral,2024-09-17_10h49.29.192,MoralCondition_v2,2022.2.5,29.974276082780083,
17,0,17,0,5,0,5,0,,,,,,,,,,,,,,,,,,,,,,,,,,,,,,,,,,,,,,,,,,,,,,,,,,,,,936.8830145000247,936.8830145000247,0.006800099974498153,0.09940780000761151,3.0,1.9934009000426158,,,,,,,,,,,,,,678,Moral,2024-09-17_10h49.29.192,MoralCondition_v2,2022.2.5,29.974276082780083,
17,0,17,0,6,0,6,0,,,,,,,,,,,,,,,,,,,,,,,,,,,,,,,,,,,,,,,,,,,,,,,,,,,,,938.9162233999232,938.9162233999232,0.007522600004449487,0.09765209991019219,5.0,1.924582300009206,,,,,,,,,,,,,,678,Moral,2024-09-17_10h49.29.192,MoralCondition_v2,2022.2.5,29.974276082780083,
17,0,17,0,,,,,,,,,,,,,,,,,,,,,,,,,,,,,,,,,,,,,,,,,,,,,,,,,,,,,,,,,,,,,,,940.8831526000286,940.8831526000286,0.0006709999870508909,0.09909179992973804,2.0,2.399565099971369,,,,,,,,678,Moral,2024-09-17_10h49.29.192,MoralCondition_v2,2022.2.5,29.974276082780083,
18,0,18,0,0,0,0,0,,,,,,,,,,,,,,,,,,,,,,943.316507200012,0.00013619998935610056,0.09959969995543361,949.3162717999658,5.9993554999819025,949.4828758999938,949.4828758999938,0.057851499994285405,0.16598139994312078,5.999287900049239,955.5829694999848,955.5829694999848,955.5829694999848,0.05844190006610006,0.16615409997757524,961.2829169000033,961.4829469999531,5.999340299982578,6.099276900058612,967.482890299987,11.999274700065143,967.6162133999169,967.6162133999169,3.850006032735109e-05,0.09920749999582767,up,0.5808254000730813,968.2495485999389,3.9199949242174625e-05,0.09780299989506602,974.2497442000313,974.2497442000313,974.2497442000313,0.008804299985058606,0.0978130999719724,2.0,3.3233130000298843,,,,,,,6.099242799915373,955.4831017999677,955.4831017999677,967.5828878999455,967.5828878999455,6.099526599980891,12.09928540000692,678,Moral,2024-09-17_10h49.29.192,MoralCondition_v2,2022.2.5,29.974276082780083,
18,0,18,0,1,0,1,0,,,,,,,,,,,,,,,,,,,,,,,,,,,,,,,,,,,,,,,,,,,,,,,,,,,,,977.6161346000154,977.6161346000154,0.0075379000045359135,0.09787059994414449,2.0,0.824347999994643,,,,,,,,,,,,,,678,Moral,2024-09-17_10h49.29.192,MoralCondition_v2,2022.2.5,29.974276082780083,
18,0,18,0,2,0,2,0,,,,,,,,,,,,,,,,,,,,,,,,,,,,,,,,,,,,,,,,,,,,,,,,,,,,,978.4829607999418,978.4829607999418,0.0070390000473707914,0.09740720002446324,2.0,1.8911761000053957,,,,,,,,,,,,,,678,Moral,2024-09-17_10h49.29.192,MoralCondition_v2,2022.2.5,29.974276082780083,
18,0,18,0,3,0,3,0,,,,,,,,,,,,,,,,,,,,,,,,,,,,,,,,,,,,,,,,,,,,,,,,,,,,,980.4329857999692,980.4329857999692,0.007748199976049364,0.11431620002258569,2.0,0.9411035000812262,,,,,,,,,,,,,,678,Moral,2024-09-17_10h49.29.192,MoralCondition_v2,2022.2.5,29.974276082780083,
18,0,18,0,4,0,4,0,,,,,,,,,,,,,,,,,,,,,,,,,,,,,,,,,,,,,,,,,,,,,,,,,,,,,981.399580999976,981.399580999976,0.006506899953819811,0.09904969995841384,2.0,0.6936976000433788,,,,,,,,,,,,,,678,Moral,2024-09-17_10h49.29.192,MoralCondition_v2,2022.2.5,29.974276082780083,
18,0,18,0,5,0,5,0,,,,,,,,,,,,,,,,,,,,,,,,,,,,,,,,,,,,,,,,,,,,,,,,,,,,,982.1499481999781,982.1499481999781,0.00889399996958673,0.11581709992606193,2.0,3.0413698999909684,,,,,,,,,,,,,,678,Moral,2024-09-17_10h49.29.192,MoralCondition_v2,2022.2.5,29.974276082780083,
18,0,18,0,6,0,6,0,,,,,,,,,,,,,,,,,,,,,,,,,,,,,,,,,,,,,,,,,,,,,,,,,,,,,985.2160144000081,985.2160144000081,0.0064205999951809645,0.09926319995429367,5.0,2.3936963999876752,,,,,,,,,,,,,,678,Moral,2024-09-17_10h49.29.192,MoralCondition_v2,2022.2.5,29.974276082780083,
18,0,18,0,,,,,,,,,,,,,,,,,,,,,,,,,,,,,,,,,,,,,,,,,,,,,,,,,,,,,,,,,,,,,,,987.6495259000221,987.6495259000221,0.0006970999529585242,0.09948119998443872,6.0,1.299787399941124,,,,,,,,678,Moral,2024-09-17_10h49.29.192,MoralCondition_v2,2022.2.5,29.974276082780083,
19,0,19,0,0,0,0,0,,,,,,,,,,,,,,,,,,,,,,988.982840099954,0.0002767998958006501,0.09819039993453771,994.9828643000219,6.031395499943756,995.1663156999275,995.1663156999275,0.06839739996939898,0.18130289996042848,6.01457819994539,1001.2663661999395,1001.2663661999395,1001.2663661999395,0.06969050003681332,0.18142299994360656,1006.9660825999454,1007.1660629999824,6.014643599977717,6.114593700040132,1013.1662815000163,12.014843499986455,1013.2993766999571,1013.2993766999571,0.01482210005633533,0.11454940005205572,down,0.4179164000088349,1013.7659737999784,3.9800070226192474e-05,0.0983119000447914,1019.765910099959,1019.765910099959,1019.765910099959,0.008131699985824525,0.0977590000256896,4.0,2.457438499899581,,,,,,,,1001.1662967000157,1001.1662967000157,1013.2660718000261,1013.2660718000261,,,678,Moral,2024-09-17_10h49.29.192,MoralCondition_v2,2022.2.5,29.974276082780083,
19,0,19,0,1,0,1,0,,,,,,,,,,,,,,,,,,,,,,,,,,,,,,,,,,,,,,,,,,,,,,,,,,,,,1022.2660118999192,1022.2660118999192,0.006745000020600855,0.09940179996192455,2.0,1.6934124999679625,,,,,,,,,,,,,,678,Moral,2024-09-17_10h49.29.192,MoralCondition_v2,2022.2.5,29.974276082780083,
19,0,19,0,2,0,2,0,,,,,,,,,,,,,,,,,,,,,,,,,,,,,,,,,,,,,,,,,,,,,,,,,,,,,1023.9995592000196,1023.9995592000196,0.007536399993114173,0.09769630001392215,3.0,1.9910939999390393,,,,,,,,,,,,,,678,Moral,2024-09-17_10h49.29.192,MoralCondition_v2,2022.2.5,29.974276082780083,
19,0,19,0,3,0,3,0,,,,,,,,,,,,,,,,,,,,,,,,,,,,,,,,,,,,,,,,,,,,,,,,,,,,,1026.032586999936,1026.032586999936,0.0071724000154063106,0.09815889992751181,6.0,1.7252429999643937,,,,,,,,,,,,,,678,Moral,2024-09-17_10h49.29.192,MoralCondition_v2,2022.2.5,29.974276082780083,
19,0,19,0,4,0,4,0,,,,,,,,,,,,,,,,,,,,,,,,,,,,,,,,,,,,,,,,,,,,,,,,,,,,,1027.7991663999856,1027.7991663999856,0.007029499975033104,0.09821269998792559,5.0,1.3587738000787795,,,,,,,,,,,,,,678,Moral,2024-09-17_10h49.29.192,MoralCondition_v2,2022.2.5,29.974276082780083,
19,0,19,0,5,0,5,0,,,,,,,,,,,,,,,,,,,,,,,,,,,,,,,,,,,,,,,,,,,,,,,,,,,,,1029.1995701999404,1029.1995701999404,0.0064498999854549766,0.09929349995218217,6.0,2.360891400021501,,,,,,,,,,,,,,678,Moral,2024-09-17_10h49.29.192,MoralCondition_v2,2022.2.5,29.974276082780083,
19,0,19,0,6,0,6,0,,,,,,,,,,,,,,,,,,,,,,,,,,,,,,,,,,,,,,,,,,,,,,,,,,,,,1031.5993220999371,1031.5993220999371,0.006585999974049628,0.09912629995960742,2.0,1.5269129000371322,,,,,,,,,,,,,,678,Moral,2024-09-17_10h49.29.192,MoralCondition_v2,2022.2.5,29.974276082780083,
19,0,19,0,,,,,,,,,,,,,,,,,,,,,,,,,,,,,,,,,,,,,,,,,,,,,,,,,,,,,,,,,,,,,,,1033.1662441999651,1033.1662441999651,0.0013040000339969993,0.09922540001571178,2.0,1.8326272999402136,,,,,,,,678,Moral,2024-09-17_10h49.29.192,MoralCondition_v2,2022.2.5,29.974276082780083,
