loop.thisRepN,loop.thisTrialN,loop.thisN,loop.thisIndex,evaluate_all_emotions.thisRepN,evaluate_all_emotions.thisTrialN,evaluate_all_emotions.thisN,evaluate_all_emotions.thisIndex,sync_beep_1.started,p_port.started,p_port.stopped,sync_beep_1.stopped,sync_beep_2.started,sync_beep_3.started,sync_beep_3.stopped,sync_beep_4.started,sync_beep_4.stopped,baseline.started,p_port_2.started,p_port_2.stopped,baseline.stopped,p_port_3.started,Game_Start_Text.started,p_port_4.started,p_port_4.stopped,key_resp.started,key_resp.keys,key_resp.rt,fixation_cross.started,p_port_5.started,p_port_5.stopped,fixation_cross.stopped,p_port_6.started,player_image_intro.started,player_name_intro.started,p_port_7.started,p_port_7.stopped,p_port_8.started,player_image_offer.started,player_name_offer.started,proposed_split.started,p_port_9.started,p_port_9.stopped,proposed_split.stopped,accept_reject.started,p_port_15.started,p_port_15.stopped,accept_reject.stopped,p_port_10.started,player_image_offer.stopped,player_name_offer.stopped,arrow_instructions.started,offer_choice.started,p_port_11.started,p_port_11.stopped,offer_choice.keys,offer_choice.rt,Instructions_Affinity_Score.started,p_port_12.started,p_port_12.stopped,Instructions_Affinity_Score.stopped,Emotion_Image.started,AffinityScore.started,p_port_13.started,p_port_13.stopped,AffinityScore.response,AffinityScore.rt,Instruction.started,Moral_Disgust_Score.started,p_port_14.started,p_port_14.stopped,Moral_Disgust_Score.response,Moral_Disgust_Score.rt,p_port_8.stopped,p_port_10.stopped,p_port_6.stopped,player_image_intro.stopped,player_name_intro.stopped,participant,session,date,expName,psychopyVersion,frameRate,
,,,,,,,,14.029036119580269,0.0008000999223440886,0.11409759987145662,14.328725199913606,14.628522719955072,15.228619019966573,15.52851269999519,15.828468619845808,16.145230899797752,16.145230899797752,0.030987699748948216,0.13111739978194237,31.16194639983587,15.014352499740198,31.24502049991861,0.014366299845278263,0.09765539970248938,31.7452737998683,space,1.4927432998083532,,,,,,,,,,,,,,,,,,,,,,,,,,,,,,,,,,,,,,,,,,,,,,,,,,,679,Moral,2024-09-24_16h21.13.884,MoralCondition_v2,2022.2.5,29.992975647482726,
0,0,0,0,0,0,0,0,,,,,,,,,,,,,,,,,,,,,33.27858949988149,0.001347400015220046,0.09808719996362925,39.278676399961114,6.031540700001642,39.59530989988707,39.59530989988707,0.1811015997081995,0.3146118998993188,6.014684199821204,45.578419799916446,45.578419799916446,45.578419799916446,0.07089939969591796,0.19797829980961978,51.278610799927264,51.478563899872825,6.031423899810761,6.131349899806082,57.47864059987478,12.031508899759501,57.578518899856135,57.578518899856135,57.61185159999877,57.61185159999877,0.031621899688616395,0.13145969971083105,down,2.778064399957657,60.445247899973765,2.759997732937336e-05,0.09880529996007681,66.46177429985255,66.46177429985255,66.46177429985255,0.009966699872165918,0.11553009995259345,7.0,4.823187000118196,,,,,,,,,,,,679,Moral,2024-09-24_16h21.13.884,MoralCondition_v2,2022.2.5,29.992975647482726,
0,0,0,0,1,0,1,0,,,,,,,,,,,,,,,,,,,,,,,,,,,,,,,,,,,,,,,,,,,,,,,,,,,,,,71.31196710001677,71.31196710001677,0.00871039996854961,0.09919159999117255,1.0,3.25804050010629,,,,,,,,,,,,679,Moral,2024-09-24_16h21.13.884,MoralCondition_v2,2022.2.5,29.992975647482726,
0,0,0,0,2,0,2,0,,,,,,,,,,,,,,,,,,,,,,,,,,,,,,,,,,,,,,,,,,,,,,,,,,,,,,74.62861909996718,74.62861909996718,0.011436200002208352,0.11438540020026267,7.0,2.8705521000083536,,,,,,,,,,,,679,Moral,2024-09-24_16h21.13.884,MoralCondition_v2,2022.2.5,29.992975647482726,
0,0,0,0,3,0,3,0,,,,,,,,,,,,,,,,,,,,,,,,,,,,,,,,,,,,,,,,,,,,,,,,,,,,,,77.52861919999123,77.52861919999123,0.008788600098341703,0.09912579995580018,1.0,1.6246654000133276,,,,,,,,,,,,679,Moral,2024-09-24_16h21.13.884,MoralCondition_v2,2022.2.5,29.992975647482726,
0,0,0,0,4,0,4,0,,,,,,,,,,,,,,,,,,,,,,,,,,,,,,,,,,,,,,,,,,,,,,,,,,,,,,79.1950570999179,79.1950570999179,0.00840400019660592,0.0992963002063334,6.0,5.292204600060359,,,,,,,,,,,,679,Moral,2024-09-24_16h21.13.884,MoralCondition_v2,2022.2.5,29.992975647482726,
0,0,0,0,5,0,5,0,,,,,,,,,,,,,,,,,,,,,,,,,,,,,,,,,,,,,,,,,,,,,,,,,,,,,,84.54519979981706,84.54519979981706,0.00948019977658987,0.11473399982787669,4.0,3.47257039998658,,,,,,,,,,,,679,Moral,2024-09-24_16h21.13.884,MoralCondition_v2,2022.2.5,29.992975647482726,
0,0,0,0,6,0,6,0,,,,,,,,,,,,,,,,,,,,,,,,,,,,,,,,,,,,,,,,,,,,,,,,,,,,,,88.04523859987967,88.04523859987967,0.009649400133639574,0.0974679000210017,5.0,3.42227300000377,,,,,,,,,,,,679,Moral,2024-09-24_16h21.13.884,MoralCondition_v2,2022.2.5,29.992975647482726,
0,0,0,0,,,,,,,,,,,,,,,,,,,,,,,,,,,,,,,,,,,,,,,,,,,,,,,,,,,,,,,,,,,,,,,,91.51216729986481,91.51216729986481,0.0024391000624746084,0.09683439997024834,1.0,4.429306200006977,,,,,,679,Moral,2024-09-24_16h21.13.884,MoralCondition_v2,2022.2.5,29.992975647482726,
1,0,1,0,0,0,0,0,,,,,,,,,,,,,,,,,,,,,95.97869869996794,0.0003108999226242304,0.09938919986598194,101.99516099994071,6.016035799868405,102.21169229992665,102.21169229992665,0.1252762998919934,0.23276429995894432,5.999272299930453,108.27867309981957,108.27867309981957,108.27867309981957,0.09063889971002936,0.1995416998397559,113.97845019982196,114.14509949996136,5.99931289977394,6.099268199875951,120.14506099978462,11.999260999727994,120.2785004999023,120.2785004999023,120.2785004999023,120.2785004999023,0.0003507996443659067,0.09930019965395331,down,1.5675293998792768,121.91177629982121,4.779989831149578e-05,0.09796769986860454,,127.94516379991546,127.94516379991546,0.02581219980493188,0.1313397998455912,1.0,2.6069149000104517,,,,,,,6.099251299863681,12.099259799811989,,,,679,Moral,2024-09-24_16h21.13.884,MoralCondition_v2,2022.2.5,29.992975647482726,
1,0,1,0,1,0,1,0,,,,,,,,,,,,,,,,,,,,,,,,,,,,,,,,,,,,,,,,,,,,,,,,,,,,,,130.57824149983935,130.57824149983935,0.007293500006198883,0.09824290010146797,7.0,2.7252404999453574,,,,,,,,,,,,679,Moral,2024-09-24_16h21.13.884,MoralCondition_v2,2022.2.5,29.992975647482726,
1,0,1,0,2,0,2,0,,,,,,,,,,,,,,,,,,,,,,,,,,,,,,,,,,,,,,,,,,,,,,,,,,,,,,133.34490839997306,133.34490839997306,0.007795699872076511,0.09771830006502569,7.0,1.6575337999965996,,,,,,,,,,,,679,Moral,2024-09-24_16h21.13.884,MoralCondition_v2,2022.2.5,29.992975647482726,
1,0,1,0,3,0,3,0,,,,,,,,,,,,,,,,,,,,,,,,,,,,,,,,,,,,,,,,,,,,,,,,,,,,,,135.04515509982593,135.04515509982593,0.0064292000606656075,0.09914790000766516,5.0,5.7930863997899,,,,,,,,,,,,679,Moral,2024-09-24_16h21.13.884,MoralCondition_v2,2022.2.5,29.992975647482726,
1,0,1,0,4,0,4,0,,,,,,,,,,,,,,,,,,,,,,,,,,,,,,,,,,,,,,,,,,,,,,,,,,,,,,140.87855469994247,140.87855469994247,0.007604300044476986,0.09767390019260347,1.0,4.891385399969295,,,,,,,,,,,,679,Moral,2024-09-24_16h21.13.884,MoralCondition_v2,2022.2.5,29.992975647482726,
1,0,1,0,5,0,5,0,,,,,,,,,,,,,,,,,,,,,,,,,,,,,,,,,,,,,,,,,,,,,,,,,,,,,,145.81181059987284,145.81181059987284,0.007250300142914057,0.09818400000222027,5.0,2.4922148999758065,,,,,,,,,,,,679,Moral,2024-09-24_16h21.13.884,MoralCondition_v2,2022.2.5,29.992975647482726,
1,0,1,0,6,0,6,0,,,,,,,,,,,,,,,,,,,,,,,,,,,,,,,,,,,,,,,,,,,,,,,,,,,,,,148.34507249994203,148.34507249994203,0.0067189999390393496,0.09904889995232224,5.0,1.3265040998812765,,,,,,,,,,,,679,Moral,2024-09-24_16h21.13.884,MoralCondition_v2,2022.2.5,29.992975647482726,
1,0,1,0,,,,,,,,,,,,,,,,,,,,,,,,,,,,,,,,,,,,,,,,,,,,,,,,,,,,,,,,,,,,,,,,149.71182969980873,149.71182969980873,0.0012292999308556318,0.09850500011816621,1.0,2.898291799938306,,,,,,679,Moral,2024-09-24_16h21.13.884,MoralCondition_v2,2022.2.5,29.992975647482726,
2,0,2,0,0,0,0,0,,,,,,,,,,,,,,,,,,,,,152.64509049989283,0.0001387998927384615,0.09934509987942874,158.66171069978736,6.0160562000237405,158.86154879978858,158.86154879978858,0.10371409985236824,0.21609939984045923,6.015996999805793,164.92843979992904,164.92843979992904,164.92843979992904,0.07187409978359938,0.1828511997591704,170.62819309998304,170.8280995998066,6.015826199902222,6.115850799717009,176.82863050000742,12.01630669971928,176.92831919994205,176.92831919994205,176.96167809981853,176.96167809981853,0.016211699694395065,0.11599549977108836,down,0.7405756998341531,177.7616347000003,5.019991658627987e-05,0.0977409000042826,183.76155709987506,183.76155709987506,183.76155709987506,0.008899199776351452,0.09791309991851449,7.0,2.056376999942586,,,,,,,,,,,,679,Moral,2024-09-24_16h21.13.884,MoralCondition_v2,2022.2.5,29.992975647482726,
2,0,2,0,1,0,1,0,,,,,,,,,,,,,,,,,,,,,,,,,,,,,,,,,,,,,,,,,,,,,,,,,,,,,,185.87853299989365,185.87853299989365,0.00801590015180409,0.11445710016414523,1.0,1.574389899848029,,,,,,,,,,,,679,Moral,2024-09-24_16h21.13.884,MoralCondition_v2,2022.2.5,29.992975647482726,
2,0,2,0,2,0,2,0,,,,,,,,,,,,,,,,,,,,,,,,,,,,,,,,,,,,,,,,,,,,,,,,,,,,,,187.47833019983955,187.47833019983955,0.007604300044476986,0.09911559987813234,7.0,1.5922563001513481,,,,,,,,,,,,679,Moral,2024-09-24_16h21.13.884,MoralCondition_v2,2022.2.5,29.992975647482726,
2,0,2,0,3,0,3,0,,,,,,,,,,,,,,,,,,,,,,,,,,,,,,,,,,,,,,,,,,,,,,,,,,,,,,189.12858319981024,189.12858319981024,0.007995299994945526,0.11454949993640184,7.0,0.8740406997967511,,,,,,,,,,,,679,Moral,2024-09-24_16h21.13.884,MoralCondition_v2,2022.2.5,29.992975647482726,
2,0,2,0,4,0,4,0,,,,,,,,,,,,,,,,,,,,,,,,,,,,,,,,,,,,,,,,,,,,,,,,,,,,,,190.0281467998866,190.0281467998866,0.006687199929729104,0.09910449991002679,7.0,0.7934051000047475,,,,,,,,,,,,679,Moral,2024-09-24_16h21.13.884,MoralCondition_v2,2022.2.5,29.992975647482726,
2,0,2,0,5,0,5,0,,,,,,,,,,,,,,,,,,,,,,,,,,,,,,,,,,,,,,,,,,,,,,,,,,,,,,190.86156499991193,190.86156499991193,0.006738899974152446,0.09934630012139678,7.0,1.22705930005759,,,,,,,,,,,,679,Moral,2024-09-24_16h21.13.884,MoralCondition_v2,2022.2.5,29.992975647482726,
2,0,2,0,6,0,6,0,,,,,,,,,,,,,,,,,,,,,,,,,,,,,,,,,,,,,,,,,,,,,,,,,,,,,,192.12827419978566,192.12827419978566,0.006748999934643507,0.09874880011193454,1.0,1.759816600009799,,,,,,,,,,,,679,Moral,2024-09-24_16h21.13.884,MoralCondition_v2,2022.2.5,29.992975647482726,
2,0,2,0,,,,,,,,,,,,,,,,,,,,,,,,,,,,,,,,,,,,,,,,,,,,,,,,,,,,,,,,,,,,,,,,193.9284863998182,193.9284863998182,0.0011454001069068909,0.09932609996758401,1.0,2.2994268001057208,,,,,,679,Moral,2024-09-24_16h21.13.884,MoralCondition_v2,2022.2.5,29.992975647482726,
3,0,3,0,0,0,0,0,,,,,,,,,,,,,,,,,,,,,196.26190879987553,0.00013269996270537376,0.09912350005470216,202.26161049981602,5.999147300142795,202.44519179989584,202.44519179989584,0.07266329997219145,0.1825041000265628,6.015875200042501,208.54515559994616,208.54515559994616,208.54515559994616,0.07836439996026456,0.1824331998359412,214.24504039995372,214.44495499995537,6.0158384998794645,6.115818599937484,220.4451579998713,12.01605789992027,220.5449959000107,220.5449959000107,220.57834369991906,220.57834369991906,0.016140799736604095,0.1159071996808052,up,0.9798568000551313,221.6115671999287,2.5399960577487946e-05,0.09883629996329546,227.61147130001336,227.61147130001336,227.61147130001336,0.006862199865281582,0.09873469988815486,2.0,3.2594724998343736,,,,,,,,,6.099087800132111,208.4449098999612,208.4449098999612,679,Moral,2024-09-24_16h21.13.884,MoralCondition_v2,2022.2.5,29.992975647482726,
3,0,3,0,1,0,1,0,,,,,,,,,,,,,,,,,,,,,,,,,,,,,,,,,,,,,,,,,,,,,,,,,,,,,,230.91142829996534,230.91142829996534,0.00766750006005168,0.09760740003548563,5.0,2.790892400080338,,,,,,,,,,,,679,Moral,2024-09-24_16h21.13.884,MoralCondition_v2,2022.2.5,29.992975647482726,
3,0,3,0,2,0,2,0,,,,,,,,,,,,,,,,,,,,,,,,,,,,,,,,,,,,,,,,,,,,,,,,,,,,,,233.7450028997846,233.7450028997846,0.007112600142136216,0.09732670010998845,2.0,2.791763699846342,,,,,,,,,,,,679,Moral,2024-09-24_16h21.13.884,MoralCondition_v2,2022.2.5,29.992975647482726,
3,0,3,0,3,0,3,0,,,,,,,,,,,,,,,,,,,,,,,,,,,,,,,,,,,,,,,,,,,,,,,,,,,,,,236.57803299999796,236.57803299999796,0.006529300007969141,0.09934439999051392,2.0,1.5603877999819815,,,,,,,,,,,,679,Moral,2024-09-24_16h21.13.884,MoralCondition_v2,2022.2.5,29.992975647482726,
3,0,3,0,4,0,4,0,,,,,,,,,,,,,,,,,,,,,,,,,,,,,,,,,,,,,,,,,,,,,,,,,,,,,,238.17821339983493,238.17821339983493,0.007469899952411652,0.0991418999619782,6.0,2.8596732998266816,,,,,,,,,,,,679,Moral,2024-09-24_16h21.13.884,MoralCondition_v2,2022.2.5,29.992975647482726,
3,0,3,0,5,0,5,0,,,,,,,,,,,,,,,,,,,,,,,,,,,,,,,,,,,,,,,,,,,,,,,,,,,,,,241.07814230001532,241.07814230001532,0.0074974000453948975,0.09798720013350248,3.0,2.7580744998995215,,,,,,,,,,,,679,Moral,2024-09-24_16h21.13.884,MoralCondition_v2,2022.2.5,29.992975647482726,
3,0,3,0,6,0,6,0,,,,,,,,,,,,,,,,,,,,,,,,,,,,,,,,,,,,,,,,,,,,,,,,,,,,,,243.8782549998723,243.8782549998723,0.007252800045534968,0.0994571999181062,2.0,2.692950699944049,,,,,,,,,,,,679,Moral,2024-09-24_16h21.13.884,MoralCondition_v2,2022.2.5,29.992975647482726,
3,0,3,0,,,,,,,,,,,,,,,,,,,,,,,,,,,,,,,,,,,,,,,,,,,,,,,,,,,,,,,,,,,,,,,,246.6116902998183,246.6116902998183,0.0013689999468624592,0.09794409992173314,7.0,2.831027900101617,,,,,,679,Moral,2024-09-24_16h21.13.884,MoralCondition_v2,2022.2.5,29.992975647482726,
4,0,4,0,0,0,0,0,,,,,,,,,,,,,,,,,,,,,249.47843289980665,0.00013560010120272636,0.09913099999539554,255.47815219988115,5.999257900053635,255.66144299996085,255.66144299996085,0.07041150005534291,0.18244439992122352,6.0158621000591666,261.7616073999088,261.7616073999088,261.7616073999088,0.07290059980005026,0.18279099999926984,267.4614659999497,267.6614893998485,6.015816799830645,6.115729299839586,273.6615204999689,12.01584169990383,273.7614580998197,273.7614580998197,273.7948842998594,273.7948842998594,0.01593149988912046,0.11571429972536862,down,1.123199800029397,274.9614512999542,5.019991658627987e-05,0.09778800001367927,,280.97838089987636,280.97838089987636,0.025600099936127663,0.114633500110358,7.0,1.2897928999736905,,,,,,,,,6.099139100173488,261.6614449999761,261.6614449999761,679,Moral,2024-09-24_16h21.13.884,MoralCondition_v2,2022.2.5,29.992975647482726,
4,0,4,0,1,0,1,0,,,,,,,,,,,,,,,,,,,,,,,,,,,,,,,,,,,,,,,,,,,,,,,,,,,,,,282.31144419987686,282.31144419987686,0.008003000169992447,0.09794240002520382,7.0,0.9907410000450909,,,,,,,,,,,,679,Moral,2024-09-24_16h21.13.884,MoralCondition_v2,2022.2.5,29.992975647482726,
4,0,4,0,2,0,2,0,,,,,,,,,,,,,,,,,,,,,,,,,,,,,,,,,,,,,,,,,,,,,,,,,,,,,,283.36176160001196,283.36176160001196,0.008177699986845255,0.11489260010421276,1.0,1.4741595999803394,,,,,,,,,,,,679,Moral,2024-09-24_16h21.13.884,MoralCondition_v2,2022.2.5,29.992975647482726,
4,0,4,0,3,0,3,0,,,,,,,,,,,,,,,,,,,,,,,,,,,,,,,,,,,,,,,,,,,,,,,,,,,,,,284.8783200997859,284.8783200997859,0.008603400085121393,0.11452420009300113,7.0,1.641786799998954,,,,,,,,,,,,679,Moral,2024-09-24_16h21.13.884,MoralCondition_v2,2022.2.5,29.992975647482726,
4,0,4,0,4,0,4,0,,,,,,,,,,,,,,,,,,,,,,,,,,,,,,,,,,,,,,,,,,,,,,,,,,,,,,286.5447782999836,286.5447782999836,0.007053400157019496,0.09886489994823933,7.0,0.9930046999361366,,,,,,,,,,,,679,Moral,2024-09-24_16h21.13.884,MoralCondition_v2,2022.2.5,29.992975647482726,
4,0,4,0,5,0,5,0,,,,,,,,,,,,,,,,,,,,,,,,,,,,,,,,,,,,,,,,,,,,,,,,,,,,,,287.57814729982056,287.57814729982056,0.006890200078487396,0.09908040007576346,1.0,1.4600074000190943,,,,,,,,,,,,679,Moral,2024-09-24_16h21.13.884,MoralCondition_v2,2022.2.5,29.992975647482726,
4,0,4,0,6,0,6,0,,,,,,,,,,,,,,,,,,,,,,,,,,,,,,,,,,,,,,,,,,,,,,,,,,,,,,289.07811759994365,289.07811759994365,0.007027799962088466,0.09889969998039305,6.0,2.85952669987455,,,,,,,,,,,,679,Moral,2024-09-24_16h21.13.884,MoralCondition_v2,2022.2.5,29.992975647482726,
4,0,4,0,,,,,,,,,,,,,,,,,,,,,,,,,,,,,,,,,,,,,,,,,,,,,,,,,,,,,,,,,,,,,,,,291.977987999795,291.977987999795,0.001140599837526679,0.09782799985259771,1.0,2.5314792999997735,,,,,,679,Moral,2024-09-24_16h21.13.884,MoralCondition_v2,2022.2.5,29.992975647482726,
5,0,5,0,0,0,0,0,,,,,,,,,,,,,,,,,,,,,294.5450788999442,0.0002164000179618597,0.09843109990470111,300.5447072999086,6.031766099855304,300.72811959986575,300.72811959986575,0.06762809981592,0.18198459991253912,6.015085999853909,306.828120799968,306.828120799968,306.828120799968,0.06740499986335635,0.1816367998253554,312.5280355999712,312.7281949999742,6.015268699731678,6.115261499769986,318.72802979988046,12.015123499790207,318.828005899908,318.828005899908,318.86134770000353,318.86134770000353,0.015223099617287517,0.11502449959516525,up,1.2086642000358552,320.128006799845,3.9899954572319984e-05,0.09809059998951852,326.12861549993977,326.12861549993977,326.12861549993977,0.009171999990940094,0.09803900006227195,4.0,5.389730599941686,,,,,,,,,,306.7281613999512,306.7281613999512,679,Moral,2024-09-24_16h21.13.884,MoralCondition_v2,2022.2.5,29.992975647482726,
5,0,5,0,1,0,1,0,,,,,,,,,,,,,,,,,,,,,,,,,,,,,,,,,,,,,,,,,,,,,,,,,,,,,,331.57799079990946,331.57799079990946,0.008770799962803721,0.1139525999315083,2.0,3.3727762000635266,,,,,,,,,,,,679,Moral,2024-09-24_16h21.13.884,MoralCondition_v2,2022.2.5,29.992975647482726,
5,0,5,0,2,0,2,0,,,,,,,,,,,,,,,,,,,,,,,,,,,,,,,,,,,,,,,,,,,,,,,,,,,,,,334.99498959979974,334.99498959979974,0.008349600015208125,0.11455830000340939,5.0,2.1402545999735594,,,,,,,,,,,,679,Moral,2024-09-24_16h21.13.884,MoralCondition_v2,2022.2.5,29.992975647482726,
5,0,5,0,3,0,3,0,,,,,,,,,,,,,,,,,,,,,,,,,,,,,,,,,,,,,,,,,,,,,,,,,,,,,,337.1611629999243,337.1611629999243,0.0073866997845470905,0.09815789991989732,4.0,2.5247827998828143,,,,,,,,,,,,679,Moral,2024-09-24_16h21.13.884,MoralCondition_v2,2022.2.5,29.992975647482726,
5,0,5,0,4,0,4,0,,,,,,,,,,,,,,,,,,,,,,,,,,,,,,,,,,,,,,,,,,,,,,,,,,,,,,339.72781199985184,339.72781199985184,0.007635500049218535,0.09753159992396832,2.0,2.1243971998337656,,,,,,,,,,,,679,Moral,2024-09-24_16h21.13.884,MoralCondition_v2,2022.2.5,29.992975647482726,
5,0,5,0,5,0,5,0,,,,,,,,,,,,,,,,,,,,,,,,,,,,,,,,,,,,,,,,,,,,,,,,,,,,,,341.89462369983084,341.89462369983084,0.007387000136077404,0.0978171001188457,1.0,2.424724099924788,,,,,,,,,,,,679,Moral,2024-09-24_16h21.13.884,MoralCondition_v2,2022.2.5,29.992975647482726,
5,0,5,0,6,0,6,0,,,,,,,,,,,,,,,,,,,,,,,,,,,,,,,,,,,,,,,,,,,,,,,,,,,,,,344.3613766999915,344.3613766999915,0.00695739989168942,0.0973469999153167,3.0,3.4247286999598145,,,,,,,,,,,,679,Moral,2024-09-24_16h21.13.884,MoralCondition_v2,2022.2.5,29.992975647482726,
5,0,5,0,,,,,,,,,,,,,,,,,,,,,,,,,,,,,,,,,,,,,,,,,,,,,,,,,,,,,,,,,,,,,,,,347.82786719989963,347.82786719989963,0.0010946998372673988,0.09911939990706742,7.0,2.3660492000635713,,,,,,679,Moral,2024-09-24_16h21.13.884,MoralCondition_v2,2022.2.5,29.992975647482726,
6,0,6,0,0,0,0,0,,,,,,,,,,,,,,,,,,,,,350.2282358999364,0.00013519986532628536,0.09908149996772408,356.2446727999486,6.01577110006474,356.411093799863,356.411093799863,0.07093129982240498,0.18242159998044372,6.0157192999031395,362.51135329995304,362.51135329995304,362.51135329995304,0.07185239973478019,0.18268089974299073,368.2113632999826,368.4111732998863,6.015741899842396,6.1157586998306215,374.41116879996844,12.015756899723783,374.51114939991385,374.51114939991385,374.5445253998041,374.5445253998041,0.015868899645283818,0.11572849960066378,down,0.7579087999183685,375.34450839995407,4.060007631778717e-05,0.09798760013654828,,381.36136889993213,381.36136889993213,0.02552939997985959,0.11460730014368892,6.0,2.3569692000746727,,,,,,,,,,362.4112171998713,362.4112171998713,679,Moral,2024-09-24_16h21.13.884,MoralCondition_v2,2022.2.5,29.992975647482726,
6,0,6,0,1,0,1,0,,,,,,,,,,,,,,,,,,,,,,,,,,,,,,,,,,,,,,,,,,,,,,,,,,,,,,383.7611781999003,383.7611781999003,0.006442900048568845,0.09900980000384152,1.0,1.9938614999409765,,,,,,,,,,,,679,Moral,2024-09-24_16h21.13.884,MoralCondition_v2,2022.2.5,29.992975647482726,
6,0,6,0,2,0,2,0,,,,,,,,,,,,,,,,,,,,,,,,,,,,,,,,,,,,,,,,,,,,,,,,,,,,,,385.79445239994675,385.79445239994675,0.007523099891841412,0.0976780999917537,7.0,1.9245327000971884,,,,,,,,,,,,679,Moral,2024-09-24_16h21.13.884,MoralCondition_v2,2022.2.5,29.992975647482726,
6,0,6,0,3,0,3,0,,,,,,,,,,,,,,,,,,,,,,,,,,,,,,,,,,,,,,,,,,,,,,,,,,,,,,387.76119409990497,387.76119409990497,0.007255199830979109,0.09771659993566573,6.0,3.491387400077656,,,,,,,,,,,,679,Moral,2024-09-24_16h21.13.884,MoralCondition_v2,2022.2.5,29.992975647482726,
6,0,6,0,4,0,4,0,,,,,,,,,,,,,,,,,,,,,,,,,,,,,,,,,,,,,,,,,,,,,,,,,,,,,,391.2943702999037,391.2943702999037,0.006689699832350016,0.09906479995697737,1.0,1.4602194000035524,,,,,,,,,,,,679,Moral,2024-09-24_16h21.13.884,MoralCondition_v2,2022.2.5,29.992975647482726,
6,0,6,0,5,0,5,0,,,,,,,,,,,,,,,,,,,,,,,,,,,,,,,,,,,,,,,,,,,,,,,,,,,,,,392.79449009988457,392.79449009988457,0.0064483999740332365,0.09934079996310174,5.0,2.1604772000573575,,,,,,,,,,,,679,Moral,2024-09-24_16h21.13.884,MoralCondition_v2,2022.2.5,29.992975647482726,
6,0,6,0,6,0,6,0,,,,,,,,,,,,,,,,,,,,,,,,,,,,,,,,,,,,,,,,,,,,,,,,,,,,,,394.99447869998403,394.99447869998403,0.007477999897673726,0.09797050012275577,7.0,2.0582620000932366,,,,,,,,,,,,679,Moral,2024-09-24_16h21.13.884,MoralCondition_v2,2022.2.5,29.992975647482726,
6,0,6,0,,,,,,,,,,,,,,,,,,,,,,,,,,,,,,,,,,,,,,,,,,,,,,,,,,,,,,,,,,,,,,,,397.0944908999372,397.0944908999372,0.001460599945858121,0.09734530001878738,1.0,2.797205900074914,,,,,,679,Moral,2024-09-24_16h21.13.884,MoralCondition_v2,2022.2.5,29.992975647482726,
7,0,7,0,0,0,0,0,,,,,,,,,,,,,,,,,,,,,399.92755519994535,0.00014590006321668625,0.11595660005696118,405.94439309998415,6.0159392999485135,406.11097559984773,406.11097559984773,0.07255659974180162,0.18257009983062744,6.016080099856481,412.2111146999523,412.2111146999523,412.2111146999523,0.07036709971725941,0.18282319977879524,417.9112209000159,418.111079899827,6.015988699859008,6.115862399805337,424.1109958998859,12.015954399714246,424.2110152998939,424.2110152998939,424.2443413999863,424.2443413999863,0.01604639971628785,0.11585469963029027,up,0.6740206000395119,424.9776894999668,4.449998959898949e-05,0.09795770002529025,,430.99428169988096,430.99428169988096,0.025391600094735622,0.11472610011696815,3.0,2.7235590000636876,,,,,,,,,,412.11103089991957,412.11103089991957,679,Moral,2024-09-24_16h21.13.884,MoralCondition_v2,2022.2.5,29.992975647482726,
7,0,7,0,1,0,1,0,,,,,,,,,,,,,,,,,,,,,,,,,,,,,,,,,,,,,,,,,,,,,,,,,,,,,,433.7608941998333,433.7608941998333,0.006512500112876296,0.09913900005631149,5.0,1.8936216998845339,,,,,,,,,,,,679,Moral,2024-09-24_16h21.13.884,MoralCondition_v2,2022.2.5,29.992975647482726,
7,0,7,0,2,0,2,0,,,,,,,,,,,,,,,,,,,,,,,,,,,,,,,,,,,,,,,,,,,,,,,,,,,,,,435.694355199812,435.694355199812,0.006490400061011314,0.09927070001140237,2.0,2.860231400001794,,,,,,,,,,,,679,Moral,2024-09-24_16h21.13.884,MoralCondition_v2,2022.2.5,29.992975647482726,
7,0,7,0,3,0,3,0,,,,,,,,,,,,,,,,,,,,,,,,,,,,,,,,,,,,,,,,,,,,,,,,,,,,,,438.59444809984416,438.59444809984416,0.0066714000422507524,0.0991707001812756,2.0,2.9601127000059932,,,,,,,,,,,,679,Moral,2024-09-24_16h21.13.884,MoralCondition_v2,2022.2.5,29.992975647482726,
7,0,7,0,4,0,4,0,,,,,,,,,,,,,,,,,,,,,,,,,,,,,,,,,,,,,,,,,,,,,,,,,,,,,,441.61105729988776,441.61105729988776,0.009673200082033873,0.11460219998843968,1.0,2.939041400095448,,,,,,,,,,,,679,Moral,2024-09-24_16h21.13.884,MoralCondition_v2,2022.2.5,29.992975647482726,
7,0,7,0,5,0,5,0,,,,,,,,,,,,,,,,,,,,,,,,,,,,,,,,,,,,,,,,,,,,,,,,,,,,,,444.59442839981057,444.59442839981057,0.007915000198408961,0.11432040017098188,3.0,2.473907200153917,,,,,,,,,,,,679,Moral,2024-09-24_16h21.13.884,MoralCondition_v2,2022.2.5,29.992975647482726,
7,0,7,0,6,0,6,0,,,,,,,,,,,,,,,,,,,,,,,,,,,,,,,,,,,,,,,,,,,,,,,,,,,,,,447.09436789993197,447.09436789993197,0.007517300080507994,0.09786970005370677,4.0,4.158241699915379,,,,,,,,,,,,679,Moral,2024-09-24_16h21.13.884,MoralCondition_v2,2022.2.5,29.992975647482726,
7,0,7,0,,,,,,,,,,,,,,,,,,,,,,,,,,,,,,,,,,,,,,,,,,,,,,,,,,,,,,,,,,,,,,,,451.2941879997961,451.2941879997961,0.0010009999386966228,0.09815279999747872,7.0,2.9983284999616444,,,,,,679,Moral,2024-09-24_16h21.13.884,MoralCondition_v2,2022.2.5,29.992975647482726,
8,0,8,0,0,0,0,0,,,,,,,,,,,,,,,,,,,,,454.32773029990494,0.00034190015867352486,0.09761540009640157,460.3275807998143,6.031086400151253,460.5273668000009,460.5273668000009,0.09744539996609092,0.19766340008936822,6.031175100011751,466.62758659990504,466.62758659990504,466.62758659990504,0.09163679997436702,0.19769559986889362,472.3275464999024,472.52746000001207,6.030984599841759,6.130953999934718,478.5274902000092,12.030935899820179,478.62750639999285,478.62750639999285,478.66079439991154,478.66079439991154,0.031122799729928374,0.13086019968613982,up,0.6579934998881072,479.3608522999566,3.729993477463722e-05,0.09802610008046031,,485.37769240001217,485.37769240001217,0.02485379995778203,0.11454139999113977,6.0,3.6241337000392377,,,,,,,,,,466.52755129989237,466.52755129989237,679,Moral,2024-09-24_16h21.13.884,MoralCondition_v2,2022.2.5,29.992975647482726,
8,0,8,0,1,0,1,0,,,,,,,,,,,,,,,,,,,,,,,,,,,,,,,,,,,,,,,,,,,,,,,,,,,,,,489.0440245999489,489.0440245999489,0.007097200024873018,0.09846489992924035,2.0,2.758382000029087,,,,,,,,,,,,679,Moral,2024-09-24_16h21.13.884,MoralCondition_v2,2022.2.5,29.992975647482726,
8,0,8,0,2,0,2,0,,,,,,,,,,,,,,,,,,,,,,,,,,,,,,,,,,,,,,,,,,,,,,,,,,,,,,491.8610270000063,491.8610270000063,0.007744400063529611,0.11442200001329184,4.0,2.307524000061676,,,,,,,,,,,,679,Moral,2024-09-24_16h21.13.884,MoralCondition_v2,2022.2.5,29.992975647482726,
8,0,8,0,3,0,3,0,,,,,,,,,,,,,,,,,,,,,,,,,,,,,,,,,,,,,,,,,,,,,,,,,,,,,,494.21083669993095,494.21083669993095,0.008053200086578727,0.11437229998409748,3.0,3.0072782000061125,,,,,,,,,,,,679,Moral,2024-09-24_16h21.13.884,MoralCondition_v2,2022.2.5,29.992975647482726,
8,0,8,0,4,0,4,0,,,,,,,,,,,,,,,,,,,,,,,,,,,,,,,,,,,,,,,,,,,,,,,,,,,,,,497.26093619992025,497.26093619992025,0.009083600016310811,0.11432880000211298,1.0,2.539425899973139,,,,,,,,,,,,679,Moral,2024-09-24_16h21.13.884,MoralCondition_v2,2022.2.5,29.992975647482726,
8,0,8,0,5,0,5,0,,,,,,,,,,,,,,,,,,,,,,,,,,,,,,,,,,,,,,,,,,,,,,,,,,,,,,499.8273786997888,499.8273786997888,0.007509499788284302,0.09784079995006323,3.0,3.491504899924621,,,,,,,,,,,,679,Moral,2024-09-24_16h21.13.884,MoralCondition_v2,2022.2.5,29.992975647482726,
8,0,8,0,6,0,6,0,,,,,,,,,,,,,,,,,,,,,,,,,,,,,,,,,,,,,,,,,,,,,,,,,,,,,,503.3609179998748,503.3609179998748,0.007536800112575293,0.09731750003993511,2.0,2.8572732000611722,,,,,,,,,,,,679,Moral,2024-09-24_16h21.13.884,MoralCondition_v2,2022.2.5,29.992975647482726,
8,0,8,0,,,,,,,,,,,,,,,,,,,,,,,,,,,,,,,,,,,,,,,,,,,,,,,,,,,,,,,,,,,,,,,,506.26087279990315,506.26087279990315,0.0012072999961674213,0.09783260012045503,7.0,2.3977976001333445,,,,,,679,Moral,2024-09-24_16h21.13.884,MoralCondition_v2,2022.2.5,29.992975647482726,
9,0,9,0,0,0,0,0,,,,,,,,,,,,,,,,,,,,,508.69424219988286,0.00027660001069307327,0.09770500008016825,514.7107044998556,6.0143532999791205,514.8939216998406,514.8939216998406,0.08739280002191663,0.19768019998446107,6.031002399977297,520.9939882999752,520.9939882999752,520.9939882999752,0.08856159984134138,0.19768289988860488,526.6940030998085,526.8939785999246,6.031006999779493,6.131066999863833,532.8939562998712,12.030988999875262,532.9939634997863,532.9939634997863,533.0272913998924,533.0272913998924,0.03116659983061254,0.13091369974426925,down,0.6111971999052912,533.693962499965,5.659996531903744e-05,0.0979929999448359,,539.7274076999165,539.7274076999165,0.025624800007790327,0.1314157999586314,6.0,4.339803099865094,,,,,,,,,,520.894027599832,520.894027599832,679,Moral,2024-09-24_16h21.13.884,MoralCondition_v2,2022.2.5,29.992975647482726,
9,0,9,0,1,0,1,0,,,,,,,,,,,,,,,,,,,,,,,,,,,,,,,,,,,,,,,,,,,,,,,,,,,,,,544.0938756999094,544.0938756999094,0.006860200082883239,0.09835180011577904,7.0,1.2257433000486344,,,,,,,,,,,,679,Moral,2024-09-24_16h21.13.884,MoralCondition_v2,2022.2.5,29.992975647482726,
9,0,9,0,2,0,2,0,,,,,,,,,,,,,,,,,,,,,,,,,,,,,,,,,,,,,,,,,,,,,,,,,,,,,,545.3609341999982,545.3609341999982,0.008771900087594986,0.09727240004576743,1.0,1.5230006999336183,,,,,,,,,,,,679,Moral,2024-09-24_16h21.13.884,MoralCondition_v2,2022.2.5,29.992975647482726,
9,0,9,0,3,0,3,0,,,,,,,,,,,,,,,,,,,,,,,,,,,,,,,,,,,,,,,,,,,,,,,,,,,,,,546.9274527998641,546.9274527998641,0.0073327000718563795,0.09746480011381209,6.0,1.4910611000377685,,,,,,,,,,,,679,Moral,2024-09-24_16h21.13.884,MoralCondition_v2,2022.2.5,29.992975647482726,
9,0,9,0,4,0,4,0,,,,,,,,,,,,,,,,,,,,,,,,,,,,,,,,,,,,,,,,,,,,,,,,,,,,,,548.4774936998729,548.4774936998729,0.008606200106441975,0.11403029994107783,1.0,1.4402654999867082,,,,,,,,,,,,679,Moral,2024-09-24_16h21.13.884,MoralCondition_v2,2022.2.5,29.992975647482726,
9,0,9,0,5,0,5,0,,,,,,,,,,,,,,,,,,,,,,,,,,,,,,,,,,,,,,,,,,,,,,,,,,,,,,549.9437976998743,549.9437976998743,0.005961199989542365,0.09949139994569123,7.0,2.094224900007248,,,,,,,,,,,,679,Moral,2024-09-24_16h21.13.884,MoralCondition_v2,2022.2.5,29.992975647482726,
9,0,9,0,6,0,6,0,,,,,,,,,,,,,,,,,,,,,,,,,,,,,,,,,,,,,,,,,,,,,,,,,,,,,,552.0770429999102,552.0770429999102,0.007079900009557605,0.09799570008181036,7.0,2.658658100059256,,,,,,,,,,,,679,Moral,2024-09-24_16h21.13.884,MoralCondition_v2,2022.2.5,29.992975647482726,
9,0,9,0,,,,,,,,,,,,,,,,,,,,,,,,,,,,,,,,,,,,,,,,,,,,,,,,,,,,,,,,,,,,,,,,554.7772207998205,554.7772207998205,0.0013321000151336193,0.09806700004264712,1.0,2.3310167000163347,,,,,,679,Moral,2024-09-24_16h21.13.884,MoralCondition_v2,2022.2.5,29.992975647482726,
10,0,10,0,0,0,0,0,,,,,,,,,,,,,,,,,,,,,557.1440556999296,0.00036700000055134296,0.09761259984225035,563.1604909999296,6.01411939994432,563.3105705999769,563.3105705999769,0.06538479984737933,0.16425329982303083,6.03083059983328,569.4439916999545,569.4439916999545,569.4439916999545,0.08426809962838888,0.197501499671489,575.1437973999418,575.3438508999534,6.030862599611282,6.130742099601775,581.3437910999637,12.03080299962312,581.4437561999075,581.4437561999075,581.4770810999908,581.4770810999908,0.031002099625766277,0.13071349961683154,up,1.3134316999930888,582.8270858000033,4.700012505054474e-05,0.11452509998343885,,588.8604560999665,588.8604560999665,0.025711999973282218,0.13126359996385872,5.0,3.739825800061226,,,,,,,,,,569.3104750998318,569.3104750998318,679,Moral,2024-09-24_16h21.13.884,MoralCondition_v2,2022.2.5,29.992975647482726,
10,0,10,0,1,0,1,0,,,,,,,,,,,,,,,,,,,,,,,,,,,,,,,,,,,,,,,,,,,,,,,,,,,,,,592.6271294998005,592.6271294998005,0.007794099859893322,0.09910240001045167,2.0,2.3259578000288457,,,,,,,,,,,,679,Moral,2024-09-24_16h21.13.884,MoralCondition_v2,2022.2.5,29.992975647482726,
10,0,10,0,2,0,2,0,,,,,,,,,,,,,,,,,,,,,,,,,,,,,,,,,,,,,,,,,,,,,,,,,,,,,,594.9936930998228,594.9936930998228,0.00647960021160543,0.0993634001351893,2.0,1.5270779998973012,,,,,,,,,,,,679,Moral,2024-09-24_16h21.13.884,MoralCondition_v2,2022.2.5,29.992975647482726,
10,0,10,0,3,0,3,0,,,,,,,,,,,,,,,,,,,,,,,,,,,,,,,,,,,,,,,,,,,,,,,,,,,,,,596.5602925999556,596.5602925999556,0.006719100056216121,0.09856650000438094,2.0,1.6259916999842972,,,,,,,,,,,,679,Moral,2024-09-24_16h21.13.884,MoralCondition_v2,2022.2.5,29.992975647482726,
10,0,10,0,4,0,4,0,,,,,,,,,,,,,,,,,,,,,,,,,,,,,,,,,,,,,,,,,,,,,,,,,,,,,,598.2269019999076,598.2269019999076,0.006677399855107069,0.09957830002531409,1.0,1.4600313999690115,,,,,,,,,,,,679,Moral,2024-09-24_16h21.13.884,MoralCondition_v2,2022.2.5,29.992975647482726,
10,0,10,0,5,0,5,0,,,,,,,,,,,,,,,,,,,,,,,,,,,,,,,,,,,,,,,,,,,,,,,,,,,,,,599.7269309000112,599.7269309000112,0.007616400020197034,0.09760789992287755,3.0,2.0909900998231024,,,,,,,,,,,,679,Moral,2024-09-24_16h21.13.884,MoralCondition_v2,2022.2.5,29.992975647482726,
10,0,10,0,6,0,6,0,,,,,,,,,,,,,,,,,,,,,,,,,,,,,,,,,,,,,,,,,,,,,,,,,,,,,,601.8603015998378,601.8603015998378,0.006764299934729934,0.09903149981983006,3.0,2.026508199982345,,,,,,,,,,,,679,Moral,2024-09-24_16h21.13.884,MoralCondition_v2,2022.2.5,29.992975647482726,
10,0,10,0,,,,,,,,,,,,,,,,,,,,,,,,,,,,,,,,,,,,,,,,,,,,,,,,,,,,,,,,,,,,,,,,603.9271924998611,603.9271924998611,0.0007158999796956778,0.09929769998416305,7.0,2.166334099834785,,,,,,679,Moral,2024-09-24_16h21.13.884,MoralCondition_v2,2022.2.5,29.992975647482726,
11,0,11,0,0,0,0,0,,,,,,,,,,,,,,,,,,,,,606.1273564998992,0.00014779996126890182,0.09920499986037612,612.1437161997892,6.016106399940327,612.3103378999513,612.3103378999513,0.0717466997448355,0.182494199834764,6.0158263999037445,618.4103830999229,618.4103830999229,618.4103830999229,0.06944239977747202,0.18272019969299436,624.1102659997996,624.3102706999052,6.015851299744099,6.11583809973672,630.310177499894,12.015696799848229,630.4102368999738,630.4102368999738,630.4436115999706,630.4436115999706,0.015977199655026197,0.11575629957951605,up,1.0986989999655634,631.5935558998026,5.9900106862187386e-05,0.09782709996215999,,637.6270473999903,637.6270473999903,0.025365500012412667,0.13124880008399487,2.0,3.140097599942237,,,,,,,,,,618.3102759998292,618.3102759998292,679,Moral,2024-09-24_16h21.13.884,MoralCondition_v2,2022.2.5,29.992975647482726,
11,0,11,0,1,0,1,0,,,,,,,,,,,,,,,,,,,,,,,,,,,,,,,,,,,,,,,,,,,,,,,,,,,,,,640.7934424998239,640.7934424998239,0.008489300031214952,0.09742349991574883,2.0,1.3899400997906923,,,,,,,,,,,,679,Moral,2024-09-24_16h21.13.884,MoralCondition_v2,2022.2.5,29.992975647482726,
11,0,11,0,2,0,2,0,,,,,,,,,,,,,,,,,,,,,,,,,,,,,,,,,,,,,,,,,,,,,,,,,,,,,,642.2270031999797,642.2270031999797,0.0074968000408262014,0.09790450008586049,4.0,3.891245200065896,,,,,,,,,,,,679,Moral,2024-09-24_16h21.13.884,MoralCondition_v2,2022.2.5,29.992975647482726,
11,0,11,0,3,0,3,0,,,,,,,,,,,,,,,,,,,,,,,,,,,,,,,,,,,,,,,,,,,,,,,,,,,,,,646.1601538998075,646.1601538998075,0.008346900111064315,0.09793330007232726,3.0,3.490366999991238,,,,,,,,,,,,679,Moral,2024-09-24_16h21.13.884,MoralCondition_v2,2022.2.5,29.992975647482726,
11,0,11,0,4,0,4,0,,,,,,,,,,,,,,,,,,,,,,,,,,,,,,,,,,,,,,,,,,,,,,,,,,,,,,649.693511699792,649.693511699792,0.007244599983096123,0.09803189989179373,3.0,1.025049300165847,,,,,,,,,,,,679,Moral,2024-09-24_16h21.13.884,MoralCondition_v2,2022.2.5,29.992975647482726,
11,0,11,0,5,0,5,0,,,,,,,,,,,,,,,,,,,,,,,,,,,,,,,,,,,,,,,,,,,,,,,,,,,,,,650.7599768999498,650.7599768999498,0.007572599919512868,0.09800169989466667,1.0,1.89139230013825,,,,,,,,,,,,679,Moral,2024-09-24_16h21.13.884,MoralCondition_v2,2022.2.5,29.992975647482726,
11,0,11,0,6,0,6,0,,,,,,,,,,,,,,,,,,,,,,,,,,,,,,,,,,,,,,,,,,,,,,,,,,,,,,652.6934116999619,652.6934116999619,0.006928900023922324,0.09828300005756319,3.0,7.525525499833748,,,,,,,,,,,,679,Moral,2024-09-24_16h21.13.884,MoralCondition_v2,2022.2.5,29.992975647482726,
11,0,11,0,,,,,,,,,,,,,,,,,,,,,,,,,,,,,,,,,,,,,,,,,,,,,,,,,,,,,,,,,,,,,,,,660.2602150000166,660.2602150000166,0.0013508000411093235,0.0975103999953717,7.0,1.9640082998666912,,,,,,679,Moral,2024-09-24_16h21.13.884,MoralCondition_v2,2022.2.5,29.992975647482726,
12,0,12,0,0,0,0,0,,,,,,,,,,,,,,,,,,,,,662.2603662998881,0.0002912001218646765,0.0973195000551641,668.2601381998975,6.030753799946979,668.4599183998071,668.4599183998071,0.08934920001775026,0.19734499999321997,6.0305965999141335,674.5601502999198,674.5601502999198,674.5601502999198,0.08748819981701672,0.19756839983165264,680.260038399836,680.4600289999507,6.030617999844253,6.130662199808285,686.4600405998062,12.030633899848908,686.5599993998185,686.5599993998185,686.5934675999451,686.5934675999451,0.030737499706447124,0.13061769981868565,up,1.1406718001235276,687.7934009998571,8.559995330870152e-05,0.09766730014234781,,693.8103130999953,693.8103130999953,0.024789399933069944,0.11437570000998676,1.0,3.223879599943757,,,,,,,,,,674.4600870998111,674.4600870998111,679,Moral,2024-09-24_16h21.13.884,MoralCondition_v2,2022.2.5,29.992975647482726,
12,0,12,0,1,0,1,0,,,,,,,,,,,,,,,,,,,,,,,,,,,,,,,,,,,,,,,,,,,,,,,,,,,,,,697.076674999902,697.076674999902,0.008095799945294857,0.09736889996565878,1.0,4.3236855999566615,,,,,,,,,,,,679,Moral,2024-09-24_16h21.13.884,MoralCondition_v2,2022.2.5,29.992975647482726,
12,0,12,0,2,0,2,0,,,,,,,,,,,,,,,,,,,,,,,,,,,,,,,,,,,,,,,,,,,,,,,,,,,,,,701.443335399963,701.443335399963,0.008461300050839782,0.09718739986419678,2.0,3.723065600031987,,,,,,,,,,,,679,Moral,2024-09-24_16h21.13.884,MoralCondition_v2,2022.2.5,29.992975647482726,
12,0,12,0,3,0,3,0,,,,,,,,,,,,,,,,,,,,,,,,,,,,,,,,,,,,,,,,,,,,,,,,,,,,,,705.2099456998985,705.2099456998985,0.005989300087094307,0.09911109996028244,1.0,1.4271593000739813,,,,,,,,,,,,679,Moral,2024-09-24_16h21.13.884,MoralCondition_v2,2022.2.5,29.992975647482726,
12,0,12,0,4,0,4,0,,,,,,,,,,,,,,,,,,,,,,,,,,,,,,,,,,,,,,,,,,,,,,,,,,,,,,706.69354379992,706.69354379992,0.008140400052070618,0.11427629995159805,2.0,1.707014499930665,,,,,,,,,,,,679,Moral,2024-09-24_16h21.13.884,MoralCondition_v2,2022.2.5,29.992975647482726,
12,0,12,0,5,0,5,0,,,,,,,,,,,,,,,,,,,,,,,,,,,,,,,,,,,,,,,,,,,,,,,,,,,,,,708.4265722997952,708.4265722997952,0.006545699900016189,0.09906779997982085,2.0,1.327013999922201,,,,,,,,,,,,679,Moral,2024-09-24_16h21.13.884,MoralCondition_v2,2022.2.5,29.992975647482726,
12,0,12,0,6,0,6,0,,,,,,,,,,,,,,,,,,,,,,,,,,,,,,,,,,,,,,,,,,,,,,,,,,,,,,709.7932039999869,709.7932039999869,0.006528399884700775,0.0993474000133574,4.0,3.5603612000122666,,,,,,,,,,,,679,Moral,2024-09-24_16h21.13.884,MoralCondition_v2,2022.2.5,29.992975647482726,
12,0,12,0,,,,,,,,,,,,,,,,,,,,,,,,,,,,,,,,,,,,,,,,,,,,,,,,,,,,,,,,,,,,,,,,713.3932991998736,713.3932991998736,0.0013423999771475792,0.09779189992696047,7.0,2.664093499770388,,,,,,679,Moral,2024-09-24_16h21.13.884,MoralCondition_v2,2022.2.5,29.992975647482726,
13,0,13,0,0,0,0,0,,,,,,,,,,,,,,,,,,,,,716.0935689997859,0.00029540015384554863,0.09766119997948408,722.0932093998417,6.0309435001108795,722.2599622998387,722.2599622998387,0.06551439990289509,0.16435820003971457,6.030748799908906,728.3934086998925,728.3934086998925,728.3934086998925,0.08488979982212186,0.1977196999359876,734.0931380998809,734.293161700014,6.0309034998063,6.13088299985975,740.2932146999519,12.031015699962154,740.3931201999076,740.3931201999076,740.4265007998329,740.4265007998329,0.031008399790152907,0.13087359978817403,down,1.2594214000273496,741.7431900999509,6.400002166628838e-05,0.09790530009195209,747.7599159998354,747.7599159998354,747.7599159998354,0.01111950003542006,0.11444810009561479,6.0,5.471272999886423,,,,,,,,,,728.2431762998458,728.2431762998458,679,Moral,2024-09-24_16h21.13.884,MoralCondition_v2,2022.2.5,29.992975647482726,
13,0,13,0,1,0,1,0,,,,,,,,,,,,,,,,,,,,,,,,,,,,,,,,,,,,,,,,,,,,,,,,,,,,,,753.2596575999632,753.2596575999632,0.00649130018427968,0.09928399999625981,7.0,1.793583899969235,,,,,,,,,,,,679,Moral,2024-09-24_16h21.13.884,MoralCondition_v2,2022.2.5,29.992975647482726,
13,0,13,0,2,0,2,0,,,,,,,,,,,,,,,,,,,,,,,,,,,,,,,,,,,,,,,,,,,,,,,,,,,,,,755.109911999898,755.109911999898,0.008588899858295918,0.1138718998990953,7.0,0.8063648999668658,,,,,,,,,,,,679,Moral,2024-09-24_16h21.13.884,MoralCondition_v2,2022.2.5,29.992975647482726,
13,0,13,0,3,0,3,0,,,,,,,,,,,,,,,,,,,,,,,,,,,,,,,,,,,,,,,,,,,,,,,,,,,,,,755.9430186999962,755.9430186999962,0.006982299964874983,0.09934949991293252,7.0,0.9598563001491129,,,,,,,,,,,,679,Moral,2024-09-24_16h21.13.884,MoralCondition_v2,2022.2.5,29.992975647482726,
13,0,13,0,4,0,4,0,,,,,,,,,,,,,,,,,,,,,,,,,,,,,,,,,,,,,,,,,,,,,,,,,,,,,,756.9600272998214,756.9600272998214,0.008268999867141247,0.11452970001846552,7.0,2.1737889000214636,,,,,,,,,,,,679,Moral,2024-09-24_16h21.13.884,MoralCondition_v2,2022.2.5,29.992975647482726,
13,0,13,0,5,0,5,0,,,,,,,,,,,,,,,,,,,,,,,,,,,,,,,,,,,,,,,,,,,,,,,,,,,,,,759.1596266999841,759.1596266999841,0.0075113000348210335,0.09765250002965331,1.0,1.691738999914378,,,,,,,,,,,,679,Moral,2024-09-24_16h21.13.884,MoralCondition_v2,2022.2.5,29.992975647482726,
13,0,13,0,6,0,6,0,,,,,,,,,,,,,,,,,,,,,,,,,,,,,,,,,,,,,,,,,,,,,,,,,,,,,,760.9098189999349,760.9098189999349,0.008941100211814046,0.11471090000122786,1.0,1.106928399996832,,,,,,,,,,,,679,Moral,2024-09-24_16h21.13.884,MoralCondition_v2,2022.2.5,29.992975647482726,
13,0,13,0,,,,,,,,,,,,,,,,,,,,,,,,,,,,,,,,,,,,,,,,,,,,,,,,,,,,,,,,,,,,,,,,762.0431766998954,762.0431766998954,0.002261199988424778,0.09770009992644191,1.0,1.763293500058353,,,,,,679,Moral,2024-09-24_16h21.13.884,MoralCondition_v2,2022.2.5,29.992975647482726,
14,0,14,0,0,0,0,0,,,,,,,,,,,,,,,,,,,,,763.8432708999608,0.0002761001233011484,0.09762999997474253,769.8596839997917,6.014265700010583,770.0264162998646,770.0264162998646,0.06846229988150299,0.1810236000455916,6.014262999873608,776.1263840999454,776.1263840999454,776.1263840999454,0.06898119975812733,0.18095879978500307,781.826299799839,782.0263196998276,6.014265899779275,6.114166499814019,788.0264072997961,12.014349999837577,788.1264494999778,788.1264494999778,788.1596034998074,788.1596034998074,0.01456189970485866,0.11415099981240928,up,3.574233900057152,791.792994099902,6.120000034570694e-05,0.0978368001524359,797.8095440999605,797.8095440999605,797.8095440999605,0.009698700159788132,0.1144886000547558,2.0,2.505667099962011,,,,,,,,,,776.0263272998855,776.0263272998855,679,Moral,2024-09-24_16h21.13.884,MoralCondition_v2,2022.2.5,29.992975647482726,
14,0,14,0,1,0,1,0,,,,,,,,,,,,,,,,,,,,,,,,,,,,,,,,,,,,,,,,,,,,,,,,,,,,,,800.3427879000083,800.3427879000083,0.007088200189173222,0.09784080018289387,4.0,2.0250810000579804,,,,,,,,,,,,679,Moral,2024-09-24_16h21.13.884,MoralCondition_v2,2022.2.5,29.992975647482726,
14,0,14,0,2,0,2,0,,,,,,,,,,,,,,,,,,,,,,,,,,,,,,,,,,,,,,,,,,,,,,,,,,,,,,802.4095272999257,802.4095272999257,0.006625500041991472,0.09910039999522269,1.0,1.3601920001674443,,,,,,,,,,,,679,Moral,2024-09-24_16h21.13.884,MoralCondition_v2,2022.2.5,29.992975647482726,
14,0,14,0,3,0,3,0,,,,,,,,,,,,,,,,,,,,,,,,,,,,,,,,,,,,,,,,,,,,,,,,,,,,,,803.8096027998254,803.8096027998254,0.006610000040382147,0.09908440010622144,2.0,2.393462600186467,,,,,,,,,,,,679,Moral,2024-09-24_16h21.13.884,MoralCondition_v2,2022.2.5,29.992975647482726,
14,0,14,0,4,0,4,0,,,,,,,,,,,,,,,,,,,,,,,,,,,,,,,,,,,,,,,,,,,,,,,,,,,,,,806.2429156999569,806.2429156999569,0.0066206001210957766,0.0974876000545919,2.0,1.9251685000490397,,,,,,,,,,,,679,Moral,2024-09-24_16h21.13.884,MoralCondition_v2,2022.2.5,29.992975647482726,
14,0,14,0,5,0,5,0,,,,,,,,,,,,,,,,,,,,,,,,,,,,,,,,,,,,,,,,,,,,,,,,,,,,,,808.2096231998876,808.2096231998876,0.007518700091168284,0.09801630000583827,1.0,1.1914977000560611,,,,,,,,,,,,679,Moral,2024-09-24_16h21.13.884,MoralCondition_v2,2022.2.5,29.992975647482726,
14,0,14,0,6,0,6,0,,,,,,,,,,,,,,,,,,,,,,,,,,,,,,,,,,,,,,,,,,,,,,,,,,,,,,809.4427704999689,809.4427704999689,0.007286899955943227,0.09833949990570545,2.0,1.6253498999867588,,,,,,,,,,,,679,Moral,2024-09-24_16h21.13.884,MoralCondition_v2,2022.2.5,29.992975647482726,
14,0,14,0,,,,,,,,,,,,,,,,,,,,,,,,,,,,,,,,,,,,,,,,,,,,,,,,,,,,,,,,,,,,,,,,811.1095123998821,811.1095123998821,0.001216299831867218,0.09787459997460246,7.0,2.764708299888298,,,,,,679,Moral,2024-09-24_16h21.13.884,MoralCondition_v2,2022.2.5,29.992975647482726,
15,0,15,0,0,0,0,0,,,,,,,,,,,,,,,,,,,,,813.9095524998847,0.00039180018939077854,0.09776729997247458,819.909612499876,6.031246799975634,820.0927670998499,820.0927670998499,0.06763399997726083,0.18110139993950725,6.014540799893439,826.1761886999011,826.1761886999011,826.1761886999011,0.06429269979707897,0.16454479983076453,831.8761125998572,832.1094704999123,6.0310918998438865,6.131298299878836,838.1098034998868,12.03143039997667,838.1761323998217,838.1761323998217,838.2427466998342,838.2427466998342,0.031211199704557657,0.13083439972251654,up,0.6755115000996739,838.9760590000078,4.309997893869877e-05,0.09811999998055398,,844.9925440999214,844.9925440999214,0.025495899841189384,0.11463109985925257,2.0,2.590047299861908,,,,,,,,,,826.0930440998636,826.0930440998636,679,Moral,2024-09-24_16h21.13.884,MoralCondition_v2,2022.2.5,29.992975647482726,
15,0,15,0,1,0,1,0,,,,,,,,,,,,,,,,,,,,,,,,,,,,,,,,,,,,,,,,,,,,,,,,,,,,,,847.6260960998479,847.6260960998479,0.007503499975427985,0.09762030001729727,1.0,1.3909922998864204,,,,,,,,,,,,679,Moral,2024-09-24_16h21.13.884,MoralCondition_v2,2022.2.5,29.992975647482726,
15,0,15,0,2,0,2,0,,,,,,,,,,,,,,,,,,,,,,,,,,,,,,,,,,,,,,,,,,,,,,,,,,,,,,849.0594511998352,849.0594511998352,0.006531199906021357,0.09922680002637208,2.0,1.5936985998414457,,,,,,,,,,,,679,Moral,2024-09-24_16h21.13.884,MoralCondition_v2,2022.2.5,29.992975647482726,
15,0,15,0,3,0,3,0,,,,,,,,,,,,,,,,,,,,,,,,,,,,,,,,,,,,,,,,,,,,,,,,,,,,,,850.6928034999873,850.6928034999873,0.0061442002188414335,0.09891040017828345,4.0,1.9936098998878151,,,,,,,,,,,,679,Moral,2024-09-24_16h21.13.884,MoralCondition_v2,2022.2.5,29.992975647482726,
15,0,15,0,4,0,4,0,,,,,,,,,,,,,,,,,,,,,,,,,,,,,,,,,,,,,,,,,,,,,,,,,,,,,,852.7260603997856,852.7260603997856,0.00662160012871027,0.09921879996545613,2.0,1.7933704999741167,,,,,,,,,,,,679,Moral,2024-09-24_16h21.13.884,MoralCondition_v2,2022.2.5,29.992975647482726,
15,0,15,0,5,0,5,0,,,,,,,,,,,,,,,,,,,,,,,,,,,,,,,,,,,,,,,,,,,,,,,,,,,,,,854.5594228999689,854.5594228999689,0.007504099979996681,0.09809029987081885,2.0,1.2914271000772715,,,,,,,,,,,,679,Moral,2024-09-24_16h21.13.884,MoralCondition_v2,2022.2.5,29.992975647482726,
15,0,15,0,6,0,6,0,,,,,,,,,,,,,,,,,,,,,,,,,,,,,,,,,,,,,,,,,,,,,,,,,,,,,,855.8927251999266,855.8927251999266,0.009532100055366755,0.09819369995966554,1.0,1.0899178001563996,,,,,,,,,,,,679,Moral,2024-09-24_16h21.13.884,MoralCondition_v2,2022.2.5,29.992975647482726,
15,0,15,0,,,,,,,,,,,,,,,,,,,,,,,,,,,,,,,,,,,,,,,,,,,,,,,,,,,,,,,,,,,,,,,,857.0261160999071,857.0261160999071,0.0014684998895972967,0.0975388998631388,7.0,4.1972595998086035,,,,,,679,Moral,2024-09-24_16h21.13.884,MoralCondition_v2,2022.2.5,29.992975647482726,
16,0,16,0,0,0,0,0,,,,,,,,,,,,,,,,,,,,,861.2594641000032,0.00014219991862773895,0.0991801000200212,867.2760184998624,6.015803399961442,867.4428878999315,867.4428878999315,0.06951739988289773,0.18259530002251267,6.0158077999949455,873.5259177999105,873.5259177999105,873.5259177999105,0.06643059989437461,0.16580989980138838,879.2259485998657,879.425981399836,5.999273599823937,6.099195299902931,885.4259213998448,11.99914319976233,885.5258853998967,885.5258853998967,885.5592196998186,885.5592196998186,-8.330028504133224e-05,0.09907829971052706,up,1.3908411997836083,886.9925871999003,4.740012809634209e-05,0.09787639998830855,,893.0259124999866,893.0259124999866,0.026583800092339516,0.13128189998678863,3.0,3.7055104000028223,,,,,,,,12.09912999975495,,873.4426165998448,873.4426165998448,679,Moral,2024-09-24_16h21.13.884,MoralCondition_v2,2022.2.5,29.992975647482726,
16,0,16,0,1,0,1,0,,,,,,,,,,,,,,,,,,,,,,,,,,,,,,,,,,,,,,,,,,,,,,,,,,,,,,896.7592241999228,896.7592241999228,0.007558899931609631,0.09776640008203685,3.0,1.5924630002118647,,,,,,,,,,,,679,Moral,2024-09-24_16h21.13.884,MoralCondition_v2,2022.2.5,29.992975647482726,
16,0,16,0,2,0,2,0,,,,,,,,,,,,,,,,,,,,,,,,,,,,,,,,,,,,,,,,,,,,,,,,,,,,,,898.3925705999136,898.3925705999136,0.0064119999296963215,0.0986629999242723,3.0,1.4928991000633687,,,,,,,,,,,,679,Moral,2024-09-24_16h21.13.884,MoralCondition_v2,2022.2.5,29.992975647482726,
16,0,16,0,3,0,3,0,,,,,,,,,,,,,,,,,,,,,,,,,,,,,,,,,,,,,,,,,,,,,,,,,,,,,,899.9426420999225,899.9426420999225,0.007895800052210689,0.11407539993524551,1.0,1.340588300023228,,,,,,,,,,,,679,Moral,2024-09-24_16h21.13.884,MoralCondition_v2,2022.2.5,29.992975647482726,
16,0,16,0,4,0,4,0,,,,,,,,,,,,,,,,,,,,,,,,,,,,,,,,,,,,,,,,,,,,,,,,,,,,,,901.325735299848,901.325735299848,0.00842590001411736,0.11399990017525852,4.0,1.806616900023073,,,,,,,,,,,,679,Moral,2024-09-24_16h21.13.884,MoralCondition_v2,2022.2.5,29.992975647482726,
16,0,16,0,5,0,5,0,,,,,,,,,,,,,,,,,,,,,,,,,,,,,,,,,,,,,,,,,,,,,,,,,,,,,,903.159158699913,903.159158699913,0.007800399791449308,0.09886539983563125,1.0,1.4255221001803875,,,,,,,,,,,,679,Moral,2024-09-24_16h21.13.884,MoralCondition_v2,2022.2.5,29.992975647482726,
16,0,16,0,6,0,6,0,,,,,,,,,,,,,,,,,,,,,,,,,,,,,,,,,,,,,,,,,,,,,,,,,,,,,,904.6258127999026,904.6258127999026,0.008757499977946281,0.09754540002904832,3.0,1.6561282998882234,,,,,,,,,,,,679,Moral,2024-09-24_16h21.13.884,MoralCondition_v2,2022.2.5,29.992975647482726,
16,0,16,0,,,,,,,,,,,,,,,,,,,,,,,,,,,,,,,,,,,,,,,,,,,,,,,,,,,,,,,,,,,,,,,,906.3259175999556,906.3259175999556,0.001427799928933382,0.09782189992256463,7.0,3.6313167000189424,,,,,,679,Moral,2024-09-24_16h21.13.884,MoralCondition_v2,2022.2.5,29.992975647482726,
17,0,17,0,0,0,0,0,,,,,,,,,,,,,,,,,,,,,909.9926848998293,0.00013739988207817078,0.09930359991267323,915.9924076998141,5.999118600040674,916.1592488000169,916.1592488000169,0.05335819977335632,0.16577209997922182,5.999126899987459,922.2590935998596,922.2590935998596,922.2590935998596,0.0519788998644799,0.16610499983653426,927.9590812998358,928.1924128998071,5.999103099806234,6.099070399766788,934.1923864998389,11.999056099681184,934.2590141999535,934.2590141999535,934.2923940999899,934.2923940999899,-0.00010700034908950329,0.0990108996629715,up,0.850214899983257,935.1923513999209,4.930002614855766e-05,0.09794689994305372,,941.2094045998529,941.2094045998529,0.025712399976328015,0.11456379992887378,4.0,2.8235827998723835,,,,,,,6.099116099765524,12.09909569984302,6.099283599993214,922.1590704999398,922.1590704999398,679,Moral,2024-09-24_16h21.13.884,MoralCondition_v2,2022.2.5,29.992975647482726,
17,0,17,0,1,0,1,0,,,,,,,,,,,,,,,,,,,,,,,,,,,,,,,,,,,,,,,,,,,,,,,,,,,,,,944.0756122998428,944.0756122998428,0.0067408999893814325,0.09917940013110638,2.0,1.2265827998053282,,,,,,,,,,,,679,Moral,2024-09-24_16h21.13.884,MoralCondition_v2,2022.2.5,29.992975647482726,
17,0,17,0,2,0,2,0,,,,,,,,,,,,,,,,,,,,,,,,,,,,,,,,,,,,,,,,,,,,,,,,,,,,,,945.3423395999707,945.3423395999707,0.005703700007870793,0.09903919999487698,3.0,1.4941316000185907,,,,,,,,,,,,679,Moral,2024-09-24_16h21.13.884,MoralCondition_v2,2022.2.5,29.992975647482726,
17,0,17,0,3,0,3,0,,,,,,,,,,,,,,,,,,,,,,,,,,,,,,,,,,,,,,,,,,,,,,,,,,,,,,946.8757539999206,946.8757539999206,0.007778999861329794,0.09773299982771277,3.0,0.7242913001682609,,,,,,,,,,,,679,Moral,2024-09-24_16h21.13.884,MoralCondition_v2,2022.2.5,29.992975647482726,
17,0,17,0,4,0,4,0,,,,,,,,,,,,,,,,,,,,,,,,,,,,,,,,,,,,,,,,,,,,,,,,,,,,,,947.6421221999917,947.6421221999917,0.006859600078314543,0.0991764001082629,3.0,1.1265465000178665,,,,,,,,,,,,679,Moral,2024-09-24_16h21.13.884,MoralCondition_v2,2022.2.5,29.992975647482726,
17,0,17,0,5,0,5,0,,,,,,,,,,,,,,,,,,,,,,,,,,,,,,,,,,,,,,,,,,,,,,,,,,,,,,948.8089785999618,948.8089785999618,0.008780499920248985,0.09774639992974699,1.0,2.389854600187391,,,,,,,,,,,,679,Moral,2024-09-24_16h21.13.884,MoralCondition_v2,2022.2.5,29.992975647482726,
17,0,17,0,6,0,6,0,,,,,,,,,,,,,,,,,,,,,,,,,,,,,,,,,,,,,,,,,,,,,,,,,,,,,,951.2423771999311,951.2423771999311,0.007030799984931946,0.0992227999959141,1.0,0.9933478001039475,,,,,,,,,,,,679,Moral,2024-09-24_16h21.13.884,MoralCondition_v2,2022.2.5,29.992975647482726,
17,0,17,0,,,,,,,,,,,,,,,,,,,,,,,,,,,,,,,,,,,,,,,,,,,,,,,,,,,,,,,,,,,,,,,,952.2755185998976,952.2755185998976,0.0009117000736296177,0.09877200005576015,7.0,1.9988510999828577,,,,,,679,Moral,2024-09-24_16h21.13.884,MoralCondition_v2,2022.2.5,29.992975647482726,
18,0,18,0,0,0,0,0,,,,,,,,,,,,,,,,,,,,,954.3091714999173,0.00013299984857439995,0.09932949999347329,960.309158399934,5.999300699913874,960.4754690998234,960.4754690998234,0.053849499905481935,0.1658875998109579,5.9993494998198,966.5754778999835,966.5754778999835,966.5754778999835,0.05660879984498024,0.16590529982931912,972.2755835999269,972.475551799871,5.999249199638143,6.099203999852762,978.4755743998103,11.999260499840602,978.5756747999694,978.5756747999694,978.6090431998018,978.6090431998018,0.00041189976036548615,0.0992364997509867,up,0.8053013000171632,979.4755235998891,5.240016616880894e-05,0.09801890002563596,,985.5091044998262,985.5091044998262,0.025813900167122483,0.13136580004356802,3.0,5.573193400166929,,,,,,,6.099253199761733,12.099452599650249,6.0993899998720735,966.4755635999609,966.4755635999609,679,Moral,2024-09-24_16h21.13.884,MoralCondition_v2,2022.2.5,29.992975647482726,
18,0,18,0,1,0,1,0,,,,,,,,,,,,,,,,,,,,,,,,,,,,,,,,,,,,,,,,,,,,,,,,,,,,,,991.1088390999939,991.1088390999939,0.006554899970069528,0.09928079997189343,3.0,1.6270453999750316,,,,,,,,,,,,679,Moral,2024-09-24_16h21.13.884,MoralCondition_v2,2022.2.5,29.992975647482726,
18,0,18,0,2,0,2,0,,,,,,,,,,,,,,,,,,,,,,,,,,,,,,,,,,,,,,,,,,,,,,,,,,,,,,992.7754903999157,992.7754903999157,0.007522700121626258,0.0977350000757724,1.0,1.5913490001112223,,,,,,,,,,,,679,Moral,2024-09-24_16h21.13.884,MoralCondition_v2,2022.2.5,29.992975647482726,
18,0,18,0,3,0,3,0,,,,,,,,,,,,,,,,,,,,,,,,,,,,,,,,,,,,,,,,,,,,,,,,,,,,,,994.4087900000159,994.4087900000159,0.007133800070732832,0.09826140012592077,2.0,1.6253139001782984,,,,,,,,,,,,679,Moral,2024-09-24_16h21.13.884,MoralCondition_v2,2022.2.5,29.992975647482726,
18,0,18,0,4,0,4,0,,,,,,,,,,,,,,,,,,,,,,,,,,,,,,,,,,,,,,,,,,,,,,,,,,,,,,996.0752887998242,996.0752887998242,0.007794699864462018,0.09796689986251295,2.0,1.7242995998822153,,,,,,,,,,,,679,Moral,2024-09-24_16h21.13.884,MoralCondition_v2,2022.2.5,29.992975647482726,
18,0,18,0,5,0,5,0,,,,,,,,,,,,,,,,,,,,,,,,,,,,,,,,,,,,,,,,,,,,,,,,,,,,,,997.8421631997917,997.8421631997917,0.00753120006993413,0.09785889997147024,1.0,1.2246917998418212,,,,,,,,,,,,679,Moral,2024-09-24_16h21.13.884,MoralCondition_v2,2022.2.5,29.992975647482726,
18,0,18,0,6,0,6,0,,,,,,,,,,,,,,,,,,,,,,,,,,,,,,,,,,,,,,,,,,,,,,,,,,,,,,999.1089309998788,999.1089309998788,0.006537500070407987,0.09936899994499981,4.0,1.7604675001930445,,,,,,,,,,,,679,Moral,2024-09-24_16h21.13.884,MoralCondition_v2,2022.2.5,29.992975647482726,
18,0,18,0,,,,,,,,,,,,,,,,,,,,,,,,,,,,,,,,,,,,,,,,,,,,,,,,,,,,,,,,,,,,,,,,1000.9087712999899,1000.9087712999899,0.0014851000159978867,0.09787150006741285,7.0,1.997704700101167,,,,,,679,Moral,2024-09-24_16h21.13.884,MoralCondition_v2,2022.2.5,29.992975647482726,
19,0,19,0,0,0,0,0,,,,,,,,,,,,,,,,,,,,,1002.9421214999165,0.00040040002204477787,0.09718929999507964,1008.9420958999544,6.030513299861923,1009.1421178998426,1009.1421178998426,0.08450089977122843,0.19716969970613718,6.030475999927148,1015.2421336998232,1015.2421336998232,1015.2421336998232,0.08677949965931475,0.19732249970547855,1020.9420667998493,1021.1420004998799,6.030430499697104,6.1304202997125685,1027.1420336999,12.030456399777904,1027.2420204998925,1027.2420204998925,1027.2753436998464,1027.2753436998464,0.030633699614554644,0.13038809970021248,down,0.8754046000540257,1028.2085483998526,4.9099791795015335e-05,0.09779929998330772,,1034.225184299983,1034.225184299983,0.025692399824038148,0.11437759990803897,1.0,2.423089300049469,,,,,,,,,,1015.1420277999714,1015.1420277999714,679,Moral,2024-09-24_16h21.13.884,MoralCondition_v2,2022.2.5,29.992975647482726,
19,0,19,0,1,0,1,0,,,,,,,,,,,,,,,,,,,,,,,,,,,,,,,,,,,,,,,,,,,,,,,,,,,,,,1036.6920615998097,1036.6920615998097,0.007477999897673726,0.09783530002459884,4.0,4.758153500035405,,,,,,,,,,,,679,Moral,2024-09-24_16h21.13.884,MoralCondition_v2,2022.2.5,29.992975647482726,
19,0,19,0,2,0,2,0,,,,,,,,,,,,,,,,,,,,,,,,,,,,,,,,,,,,,,,,,,,,,,,,,,,,,,1041.491828699829,1041.491828699829,0.006338000064715743,0.09877040004357696,7.0,2.36009220010601,,,,,,,,,,,,679,Moral,2024-09-24_16h21.13.884,MoralCondition_v2,2022.2.5,29.992975647482726,
19,0,19,0,3,0,3,0,,,,,,,,,,,,,,,,,,,,,,,,,,,,,,,,,,,,,,,,,,,,,,,,,,,,,,1043.908944599796,1043.908944599796,0.008788299979642034,0.11437590001150966,6.0,2.0732728999573737,,,,,,,,,,,,679,Moral,2024-09-24_16h21.13.884,MoralCondition_v2,2022.2.5,29.992975647482726,
19,0,19,0,4,0,4,0,,,,,,,,,,,,,,,,,,,,,,,,,,,,,,,,,,,,,,,,,,,,,,,,,,,,,,1046.0085733998567,1046.0085733998567,0.009415500098839402,0.09719150001183152,7.0,1.188726499909535,,,,,,,,,,,,679,Moral,2024-09-24_16h21.13.884,MoralCondition_v2,2022.2.5,29.992975647482726,
19,0,19,0,5,0,5,0,,,,,,,,,,,,,,,,,,,,,,,,,,,,,,,,,,,,,,,,,,,,,,,,,,,,,,1047.2417857998516,1047.2417857998516,0.006510700099170208,0.09944100002758205,6.0,1.7270557000301778,,,,,,,,,,,,679,Moral,2024-09-24_16h21.13.884,MoralCondition_v2,2022.2.5,29.992975647482726,
19,0,19,0,6,0,6,0,,,,,,,,,,,,,,,,,,,,,,,,,,,,,,,,,,,,,,,,,,,,,,,,,,,,,,1049.0253602999728,1049.0253602999728,0.008051499957218766,0.114365000044927,1.0,1.3073096999432892,,,,,,,,,,,,679,Moral,2024-09-24_16h21.13.884,MoralCondition_v2,2022.2.5,29.992975647482726,
19,0,19,0,,,,,,,,,,,,,,,,,,,,,,,,,,,,,,,,,,,,,,,,,,,,,,,,,,,,,,,,,,,,,,,,1050.358736399794,1050.358736399794,0.0006824999582022429,0.09930739994160831,1.0,1.4662295000161976,,,,,,679,Moral,2024-09-24_16h21.13.884,MoralCondition_v2,2022.2.5,29.992975647482726,
