loop.thisRepN,loop.thisTrialN,loop.thisN,loop.thisIndex,evaluate_all_emotions.thisRepN,evaluate_all_emotions.thisTrialN,evaluate_all_emotions.thisN,evaluate_all_emotions.thisIndex,sync_beep_1.started,p_port.started,p_port.stopped,sync_beep_1.stopped,sync_beep_2.started,sync_beep_2.stopped,sync_beep_3.started,sync_beep_3.stopped,sync_beep_4.started,sync_beep_4.stopped,baseline.started,p_port_2.started,p_port_2.stopped,baseline.stopped,p_port_3.started,Game_Start_Text.started,p_port_4.started,p_port_4.stopped,key_resp.started,key_resp.keys,key_resp.rt,fixation_cross.started,p_port_5.started,p_port_5.stopped,fixation_cross.stopped,p_port_6.started,player_image_intro.started,player_name_intro.started,p_port_7.started,p_port_7.stopped,p_port_8.started,p_port_8.stopped,player_image_offer.started,player_name_offer.started,proposed_split.started,p_port_9.started,p_port_9.stopped,proposed_split.stopped,accept_reject.started,p_port_15.started,p_port_15.stopped,accept_reject.stopped,p_port_10.started,arrow_instructions.started,offer_choice.started,p_port_11.started,p_port_11.stopped,offer_choice.keys,offer_choice.rt,Instructions_Affinity_Score.started,p_port_12.started,p_port_12.stopped,Instructions_Affinity_Score.stopped,Emotion_Image.started,AffinityScore.started,p_port_13.started,p_port_13.stopped,AffinityScore.response,AffinityScore.rt,Instruction.started,Moral_Disgust_Score.started,p_port_14.started,p_port_14.stopped,Moral_Disgust_Score.response,Moral_Disgust_Score.rt,player_image_offer.stopped,player_name_offer.stopped,p_port_10.stopped,player_image_intro.stopped,player_name_intro.stopped,participant,session,date,expName,psychopyVersion,frameRate,
,,,,,,,,12.114222499076277,0.0008537000976502895,0.10677020018920302,12.430192700121552,12.713373619876801,13.030142500065267,13.313423319999128,13.630399500019848,13.91336532011628,14.246835600119084,14.246835600119084,0.00447099981829524,0.1069696000777185,29.2635786999017,15.02361229993403,29.34683409985155,0.007058499846607447,0.10690370015799999,29.81346149975434,space,1.767144000157714,,,,,,,,,,,,,,,,,,,,,,,,,,,,,,,,,,,,,,,,,,,,,,,,,,6833,Moral,2025-02-11_12h23.56.921,MoralCondition_v2,2022.2.5,30.01717582600342,
0,0,0,0,0,0,0,0,,,,,,,,,,,,,,,,,,,,,,31.630032000131905,0.0005302000790834427,0.09899850003421307,37.63013690011576,6.032336100004613,37.86338039999828,37.86338039999828,0.10296760033816099,0.23232350032776594,5.999164500273764,6.098968700040132,43.96346809994429,43.96346809994429,43.96346809994429,0.09613069985061884,0.23227440007030964,49.66320930002257,49.829886599909514,6.031989300157875,6.132022799924016,55.83006720012054,12.032260400243104,55.963474799878895,55.963474799878895,0.03260979987680912,0.1322364998050034,up,1.360429999884218,57.363394299987704,3.239978104829788e-05,0.09837300004437566,63.38004609989002,63.38004609989002,63.38004609989002,0.010347299743443727,0.11512399977073073,3.0,14.572366499807686,,,,,,,,,,,,6833,Moral,2025-02-11_12h23.56.921,MoralCondition_v2,2022.2.5,30.01717582600342,
0,0,0,0,1,0,1,0,,,,,,,,,,,,,,,,,,,,,,,,,,,,,,,,,,,,,,,,,,,,,,,,,,,,,,77.99701160006225,77.99701160006225,0.01155739976093173,0.11583089968189597,2.0,7.838603400159627,,,,,,,,,,,,6833,Moral,2025-02-11_12h23.56.921,MoralCondition_v2,2022.2.5,30.01717582600342,
0,0,0,0,2,0,2,0,,,,,,,,,,,,,,,,,,,,,,,,,,,,,,,,,,,,,,,,,,,,,,,,,,,,,,85.86341460002586,85.86341460002586,0.008705500047653913,0.09915929986163974,3.0,6.491363400127739,,,,,,,,,,,,6833,Moral,2025-02-11_12h23.56.921,MoralCondition_v2,2022.2.5,30.01717582600342,
0,0,0,0,3,0,3,0,,,,,,,,,,,,,,,,,,,,,,,,,,,,,,,,,,,,,,,,,,,,,,,,,,,,,,92.3967455001548,92.3967455001548,0.010260399896651506,0.09760170010849833,1.0,2.7883937996812165,,,,,,,,,,,,6833,Moral,2025-02-11_12h23.56.921,MoralCondition_v2,2022.2.5,30.01717582600342,
0,0,0,0,4,0,4,0,,,,,,,,,,,,,,,,,,,,,,,,,,,,,,,,,,,,,,,,,,,,,,,,,,,,,,95.24703519977629,95.24703519977629,0.011473599821329117,0.11593399988487363,2.0,2.638652900233865,,,,,,,,,,,,6833,Moral,2025-02-11_12h23.56.921,MoralCondition_v2,2022.2.5,30.01717582600342,
0,0,0,0,5,0,5,0,,,,,,,,,,,,,,,,,,,,,,,,,,,,,,,,,,,,,,,,,,,,,,,,,,,,,,97.93017529975623,97.93017529975623,0.010096699930727482,0.11437210021540523,5.0,2.2385716997087,,,,,,,,,,,,6833,Moral,2025-02-11_12h23.56.921,MoralCondition_v2,2022.2.5,30.01717582600342,
0,0,0,0,6,0,6,0,,,,,,,,,,,,,,,,,,,,,,,,,,,,,,,,,,,,,,,,,,,,,,,,,,,,,,100.21342250006273,100.21342250006273,0.011947699822485447,0.11447690008208156,2.0,5.203764799982309,,,,,,,,,,,,6833,Moral,2025-02-11_12h23.56.921,MoralCondition_v2,2022.2.5,30.01717582600342,
0,0,0,0,,,,,,,,,,,,,,,,,,,,,,,,,,,,,,,,,,,,,,,,,,,,,,,,,,,,,,,,,,,,,,,,105.44656990002841,105.44656990002841,0.000739899929612875,0.09927199967205524,7.0,12.60004370007664,,,,,,6833,Moral,2025-02-11_12h23.56.921,MoralCondition_v2,2022.2.5,30.01717582600342,
1,0,1,0,0,0,0,0,,,,,,,,,,,,,,,,,,,,,,118.07996030012146,0.00013959966599941254,0.09915449982509017,124.09662610013038,6.015687299892306,124.31356439972296,124.31356439972296,0.12706609955057502,0.23246619990095496,5.9990536998957396,6.099164199549705,130.38010319974273,130.38010319974273,130.38010319974273,0.09193329978734255,0.19923129957169294,136.07997389975935,136.27993590012193,5.999026299454272,6.099132899660617,142.27994709974155,11.999011399690062,142.3798867999576,142.3798867999576,-4.3400563299655914e-05,0.09922809945419431,up,1.0554867004975677,143.48011679993942,5.159992724657059e-05,0.09766239998862147,149.48013689974323,149.48013689974323,149.48013689974323,0.008817699737846851,0.09757929993793368,2.0,3.8900381000712514,,,,,,,142.3798867999576,142.3798867999576,12.099009999539703,,,6833,Moral,2025-02-11_12h23.56.921,MoralCondition_v2,2022.2.5,30.01717582600342,
1,0,1,0,1,0,1,0,,,,,,,,,,,,,,,,,,,,,,,,,,,,,,,,,,,,,,,,,,,,,,,,,,,,,,153.43005889980122,153.43005889980122,0.0079797999933362,0.11397349974140525,3.0,2.3739936999045312,,,,,,,,,,,,6833,Moral,2025-02-11_12h23.56.921,MoralCondition_v2,2022.2.5,30.01717582600342,
1,0,1,0,2,0,2,0,,,,,,,,,,,,,,,,,,,,,,,,,,,,,,,,,,,,,,,,,,,,,,,,,,,,,,155.82977299997583,155.82977299997583,0.0071991002187132835,0.0992292002774775,5.0,4.359738800209016,,,,,,,,,,,,6833,Moral,2025-02-11_12h23.56.921,MoralCondition_v2,2022.2.5,30.01717582600342,
1,0,1,0,3,0,3,0,,,,,,,,,,,,,,,,,,,,,,,,,,,,,,,,,,,,,,,,,,,,,,,,,,,,,,160.22986690001562,160.22986690001562,0.007306100334972143,0.09755859989672899,2.0,4.158044800162315,,,,,,,,,,,,6833,Moral,2025-02-11_12h23.56.921,MoralCondition_v2,2022.2.5,30.01717582600342,
1,0,1,0,4,0,4,0,,,,,,,,,,,,,,,,,,,,,,,,,,,,,,,,,,,,,,,,,,,,,,,,,,,,,,164.4298418997787,164.4298418997787,0.006730999797582626,0.099471400026232,2.0,1.393628400284797,,,,,,,,,,,,6833,Moral,2025-02-11_12h23.56.921,MoralCondition_v2,2022.2.5,30.01717582600342,
1,0,1,0,5,0,5,0,,,,,,,,,,,,,,,,,,,,,,,,,,,,,,,,,,,,,,,,,,,,,,,,,,,,,,165.879990699701,165.879990699701,0.008720300160348415,0.11402830015867949,2.0,2.7061725999228656,,,,,,,,,,,,6833,Moral,2025-02-11_12h23.56.921,MoralCondition_v2,2022.2.5,30.01717582600342,
1,0,1,0,6,0,6,0,,,,,,,,,,,,,,,,,,,,,,,,,,,,,,,,,,,,,,,,,,,,,,,,,,,,,,168.6133507997729,168.6133507997729,0.006548899691551924,0.09844629978761077,2.0,2.9262300999835134,,,,,,,,,,,,6833,Moral,2025-02-11_12h23.56.921,MoralCondition_v2,2022.2.5,30.01717582600342,
1,0,1,0,,,,,,,,,,,,,,,,,,,,,,,,,,,,,,,,,,,,,,,,,,,,,,,,,,,,,,,,,,,,,,,,171.57996119977906,171.57996119977906,0.0007243999280035496,0.0992791997268796,6.0,5.3995409002527595,,,,,,6833,Moral,2025-02-11_12h23.56.921,MoralCondition_v2,2022.2.5,30.01717582600342,
2,0,2,0,0,0,0,0,,,,,,,,,,,,,,,,,,,,,,177.01340129971504,0.0003569996915757656,0.0973311997950077,183.01313589978963,6.03067829972133,183.21297809993848,183.21297809993848,0.08985579991713166,0.19731579953804612,6.030628899578005,,189.31326059997082,189.31326059997082,189.31326059997082,0.09495669975876808,0.19732309971004725,195.01321360003203,195.21318130008876,6.030730999540538,6.130743499845266,201.2131024999544,12.030674799811095,201.34644929971546,201.34644929971546,0.03080299962311983,0.1306469994597137,down,0.5050085000693798,201.91309309983626,4.300009459257126e-05,0.09823979996144772,207.93006689986214,207.93006689986214,207.93006689986214,0.010447400156408548,0.11499570030719042,5.0,5.005417199805379,,,,,,,201.31310579972342,201.31310579972342,,189.213379799854,189.213379799854,6833,Moral,2025-02-11_12h23.56.921,MoralCondition_v2,2022.2.5,30.01717582600342,
2,0,2,0,1,0,1,0,,,,,,,,,,,,,,,,,,,,,,,,,,,,,,,,,,,,,,,,,,,,,,,,,,,,,,212.97987410007045,212.97987410007045,0.007979100104421377,0.11420589964836836,3.0,3.5073366002179682,,,,,,,,,,,,6833,Moral,2025-02-11_12h23.56.921,MoralCondition_v2,2022.2.5,30.01717582600342,
2,0,2,0,2,0,2,0,,,,,,,,,,,,,,,,,,,,,,,,,,,,,,,,,,,,,,,,,,,,,,,,,,,,,,216.51329279970378,216.51329279970378,0.008450400084257126,0.0975558003410697,4.0,3.890027899760753,,,,,,,,,,,,6833,Moral,2025-02-11_12h23.56.921,MoralCondition_v2,2022.2.5,30.01717582600342,
2,0,2,0,3,0,3,0,,,,,,,,,,,,,,,,,,,,,,,,,,,,,,,,,,,,,,,,,,,,,,,,,,,,,,220.44637010013685,220.44637010013685,0.006959300022572279,0.09934580000117421,3.0,1.7600940000265837,,,,,,,,,,,,6833,Moral,2025-02-11_12h23.56.921,MoralCondition_v2,2022.2.5,30.01717582600342,
2,0,2,0,4,0,4,0,,,,,,,,,,,,,,,,,,,,,,,,,,,,,,,,,,,,,,,,,,,,,,,,,,,,,,222.24634830001742,222.24634830001742,0.006834500003606081,0.09940849989652634,3.0,2.7605514000169933,,,,,,,,,,,,6833,Moral,2025-02-11_12h23.56.921,MoralCondition_v2,2022.2.5,30.01717582600342,
2,0,2,0,5,0,5,0,,,,,,,,,,,,,,,,,,,,,,,,,,,,,,,,,,,,,,,,,,,,,,,,,,,,,,225.0464495997876,225.0464495997876,0.0076315999031066895,0.09788129990920424,4.0,5.358256800100207,,,,,,,,,,,,6833,Moral,2025-02-11_12h23.56.921,MoralCondition_v2,2022.2.5,30.01717582600342,
2,0,2,0,6,0,6,0,,,,,,,,,,,,,,,,,,,,,,,,,,,,,,,,,,,,,,,,,,,,,,,,,,,,,,230.44636960001662,230.44636960001662,0.006531599909067154,0.09856950026005507,5.0,6.99303019978106,,,,,,,,,,,,6833,Moral,2025-02-11_12h23.56.921,MoralCondition_v2,2022.2.5,30.01717582600342,
2,0,2,0,,,,,,,,,,,,,,,,,,,,,,,,,,,,,,,,,,,,,,,,,,,,,,,,,,,,,,,,,,,,,,,,237.4797284998931,237.4797284998931,0.0007298998534679413,0.09943149983882904,2.0,3.699726900085807,,,,,,6833,Moral,2025-02-11_12h23.56.921,MoralCondition_v2,2022.2.5,30.01717582600342,
3,0,3,0,0,0,0,0,,,,,,,,,,,,,,,,,,,,,,241.21309900004417,0.0004822998307645321,0.09736429993063211,247.22963250009343,6.01382019976154,247.4129987997003,247.4129987997003,0.0825762995518744,0.19721589982509613,6.030435499735177,,253.51300900010392,253.51300900010392,253.51300900010392,0.08522639982402325,0.1973201995715499,259.21292439987883,259.4130986998789,6.0306576997973025,6.1304302997887135,265.41300630010664,12.030601899605244,265.5462505999021,265.5462505999021,0.030608099419623613,0.1304468996822834,up,0.24289550026878715,265.8461790997535,5.2199698984622955e-05,0.09788079978898168,271.86313019972295,271.86313019972295,271.86313019972295,0.00900879967957735,0.11462990008294582,3.0,3.5398343000561,,,,,,,265.51289679994807,265.51289679994807,,253.4129444998689,253.4129444998689,6833,Moral,2025-02-11_12h23.56.921,MoralCondition_v2,2022.2.5,30.01717582600342,
3,0,3,0,1,0,1,0,,,,,,,,,,,,,,,,,,,,,,,,,,,,,,,,,,,,,,,,,,,,,,,,,,,,,,275.42966789985076,275.42966789985076,0.007406699936836958,0.09779939986765385,2.0,9.191880999598652,,,,,,,,,,,,6833,Moral,2025-02-11_12h23.56.921,MoralCondition_v2,2022.2.5,30.01717582600342,
3,0,3,0,2,0,2,0,,,,,,,,,,,,,,,,,,,,,,,,,,,,,,,,,,,,,,,,,,,,,,,,,,,,,,284.66280520008877,284.66280520008877,0.006505999714136124,0.09938399959355593,5.0,2.2937818998470902,,,,,,,,,,,,6833,Moral,2025-02-11_12h23.56.921,MoralCondition_v2,2022.2.5,30.01717582600342,
3,0,3,0,3,0,3,0,,,,,,,,,,,,,,,,,,,,,,,,,,,,,,,,,,,,,,,,,,,,,,,,,,,,,,286.9962844001129,286.9962844001129,0.0072695002891123295,0.09767920011654496,3.0,2.191717500332743,,,,,,,,,,,,6833,Moral,2025-02-11_12h23.56.921,MoralCondition_v2,2022.2.5,30.01717582600342,
3,0,3,0,4,0,4,0,,,,,,,,,,,,,,,,,,,,,,,,,,,,,,,,,,,,,,,,,,,,,,,,,,,,,,289.2294271001592,289.2294271001592,0.007433900143951178,0.09809340024366975,2.0,5.0915212999098,,,,,,,,,,,,6833,Moral,2025-02-11_12h23.56.921,MoralCondition_v2,2022.2.5,30.01717582600342,
3,0,3,0,5,0,5,0,,,,,,,,,,,,,,,,,,,,,,,,,,,,,,,,,,,,,,,,,,,,,,,,,,,,,,294.36283509992063,294.36283509992063,0.006710499990731478,0.09906089957803488,3.0,2.593452800065279,,,,,,,,,,,,6833,Moral,2025-02-11_12h23.56.921,MoralCondition_v2,2022.2.5,30.01717582600342,
3,0,3,0,6,0,6,0,,,,,,,,,,,,,,,,,,,,,,,,,,,,,,,,,,,,,,,,,,,,,,,,,,,,,,296.9960865001194,296.9960865001194,0.005587100051343441,0.09909539995715022,3.0,2.1946786995977163,,,,,,,,,,,,6833,Moral,2025-02-11_12h23.56.921,MoralCondition_v2,2022.2.5,30.01717582600342,
3,0,3,0,,,,,,,,,,,,,,,,,,,,,,,,,,,,,,,,,,,,,,,,,,,,,,,,,,,,,,,,,,,,,,,,299.22973839985207,299.22973839985207,0.0007524997927248478,0.099269799888134,6.0,3.1329652001149952,,,,,,6833,Moral,2025-02-11_12h23.56.921,MoralCondition_v2,2022.2.5,30.01717582600342,
4,0,4,0,0,0,0,0,,,,,,,,,,,,,,,,,,,,,,302.39636710006744,0.00013560010120272636,0.09897659998387098,308.3961227997206,6.032360699959099,308.59625269984826,308.59625269984826,0.09057720005512238,0.19905370008200407,6.032270499970764,,314.6961043998599,314.6961043998599,314.6961043998599,0.09173989994451404,0.19923050003126264,320.39629149995744,320.5960701997392,6.032383199781179,6.132282699923962,326.5962843997404,12.032520500011742,326.72937129996717,326.72937129996717,0.03247800003737211,0.13223059987649322,down,0.2587091000750661,327.02936109993607,4.5800115913152695e-05,0.09778989991173148,333.04623859981075,333.04623859981075,333.04623859981075,0.00912300031632185,0.1145359999500215,5.0,4.139650900382549,,,,,,,326.69607800012454,326.69607800012454,,314.5961001999676,314.5961001999676,6833,Moral,2025-02-11_12h23.56.921,MoralCondition_v2,2022.2.5,30.01717582600342,
4,0,4,0,1,0,1,0,,,,,,,,,,,,,,,,,,,,,,,,,,,,,,,,,,,,,,,,,,,,,,,,,,,,,,337.21272929990664,337.21272929990664,0.007049299776554108,0.09812350012362003,3.0,2.2920238999649882,,,,,,,,,,,,6833,Moral,2025-02-11_12h23.56.921,MoralCondition_v2,2022.2.5,30.01717582600342,
4,0,4,0,2,0,2,0,,,,,,,,,,,,,,,,,,,,,,,,,,,,,,,,,,,,,,,,,,,,,,,,,,,,,,339.54608049988747,339.54608049988747,0.006801300216466188,0.0993341002613306,5.0,3.1601080000400543,,,,,,,,,,,,6833,Moral,2025-02-11_12h23.56.921,MoralCondition_v2,2022.2.5,30.01717582600342,
4,0,4,0,3,0,3,0,,,,,,,,,,,,,,,,,,,,,,,,,,,,,,,,,,,,,,,,,,,,,,,,,,,,,,342.76290459977463,342.76290459977463,0.008070200216025114,0.11395840020850301,3.0,2.206853300333023,,,,,,,,,,,,6833,Moral,2025-02-11_12h23.56.921,MoralCondition_v2,2022.2.5,30.01717582600342,
4,0,4,0,4,0,4,0,,,,,,,,,,,,,,,,,,,,,,,,,,,,,,,,,,,,,,,,,,,,,,,,,,,,,,344.9961764998734,344.9961764998734,0.007493499666452408,0.09814749984070659,5.0,3.291959499940276,,,,,,,,,,,,6833,Moral,2025-02-11_12h23.56.921,MoralCondition_v2,2022.2.5,30.01717582600342,
4,0,4,0,5,0,5,0,,,,,,,,,,,,,,,,,,,,,,,,,,,,,,,,,,,,,,,,,,,,,,,,,,,,,,348.3292090999894,348.3292090999894,0.006879399996250868,0.09730369970202446,3.0,8.091325900051743,,,,,,,,,,,,6833,Moral,2025-02-11_12h23.56.921,MoralCondition_v2,2022.2.5,30.01717582600342,
4,0,4,0,6,0,6,0,,,,,,,,,,,,,,,,,,,,,,,,,,,,,,,,,,,,,,,,,,,,,,,,,,,,,,356.4794943998568,356.4794943998568,0.008048700168728828,0.11430429993197322,5.0,4.1407758998684585,,,,,,,,,,,,6833,Moral,2025-02-11_12h23.56.921,MoralCondition_v2,2022.2.5,30.01717582600342,
4,0,4,0,,,,,,,,,,,,,,,,,,,,,,,,,,,,,,,,,,,,,,,,,,,,,,,,,,,,,,,,,,,,,,,,360.6460428000428,360.6460428000428,0.0012840996496379375,0.0981778996065259,2.0,8.931657299865037,,,,,,6833,Moral,2025-02-11_12h23.56.921,MoralCondition_v2,2022.2.5,30.01717582600342,
5,0,5,0,0,0,0,0,,,,,,,,,,,,,,,,,,,,,,369.61287650000304,0.0003026002086699009,0.09803730016574264,375.629246099852,6.01471049990505,375.8790707997978,375.8790707997978,0.15022299997508526,0.2646999000571668,6.031345999799669,,381.91259279986843,381.91259279986843,381.91259279986843,0.08676199987530708,0.19826419977471232,387.6125904000364,387.8125050999224,6.031344200018793,6.131342899985611,393.8124734000303,12.031307199969888,393.94582979986444,393.94582979986444,0.03143899980932474,0.13163939956575632,up,0.1935657998546958,394.17918440001085,4.279986023902893e-05,0.09712560009211302,,400.1962244999595,400.1962244999595,0.024428300093859434,0.11375080002471805,3.0,2.3570516002364457,,,,,,,393.91244659991935,393.91244659991935,,,,6833,Moral,2025-02-11_12h23.56.921,MoralCondition_v2,2022.2.5,30.01717582600342,
5,0,5,0,1,0,1,0,,,,,,,,,,,,,,,,,,,,,,,,,,,,,,,,,,,,,,,,,,,,,,,,,,,,,,402.61272089974955,402.61272089974955,0.00806119991466403,0.11414629966020584,2.0,4.973675500135869,,,,,,,,,,,,6833,Moral,2025-02-11_12h23.56.921,MoralCondition_v2,2022.2.5,30.01717582600342,
5,0,5,0,2,0,2,0,,,,,,,,,,,,,,,,,,,,,,,,,,,,,,,,,,,,,,,,,,,,,,,,,,,,,,407.6124581997283,407.6124581997283,0.007237600162625313,0.09731739992275834,5.0,1.9912184998393059,,,,,,,,,,,,6833,Moral,2025-02-11_12h23.56.921,MoralCondition_v2,2022.2.5,30.01717582600342,
5,0,5,0,3,0,3,0,,,,,,,,,,,,,,,,,,,,,,,,,,,,,,,,,,,,,,,,,,,,,,,,,,,,,,409.6457988000475,409.6457988000475,0.006784699857234955,0.09937619976699352,3.0,2.6601339001208544,,,,,,,,,,,,6833,Moral,2025-02-11_12h23.56.921,MoralCondition_v2,2022.2.5,30.01717582600342,
5,0,5,0,4,0,4,0,,,,,,,,,,,,,,,,,,,,,,,,,,,,,,,,,,,,,,,,,,,,,,,,,,,,,,412.3457303997129,412.3457303997129,0.006377100013196468,0.09928679978474975,3.0,1.4271770999766886,,,,,,,,,,,,6833,Moral,2025-02-11_12h23.56.921,MoralCondition_v2,2022.2.5,30.01717582600342,
5,0,5,0,5,0,5,0,,,,,,,,,,,,,,,,,,,,,,,,,,,,,,,,,,,,,,,,,,,,,,,,,,,,,,413.8293588999659,413.8293588999659,0.007747799623757601,0.11426509963348508,3.0,2.407579699996859,,,,,,,,,,,,6833,Moral,2025-02-11_12h23.56.921,MoralCondition_v2,2022.2.5,30.01717582600342,
5,0,5,0,6,0,6,0,,,,,,,,,,,,,,,,,,,,,,,,,,,,,,,,,,,,,,,,,,,,,,,,,,,,,,416.26243209978566,416.26243209978566,0.0073242997750639915,0.09786679968237877,3.0,1.9249399998225272,,,,,,,,,,,,6833,Moral,2025-02-11_12h23.56.921,MoralCondition_v2,2022.2.5,30.01717582600342,
5,0,5,0,,,,,,,,,,,,,,,,,,,,,,,,,,,,,,,,,,,,,,,,,,,,,,,,,,,,,,,,,,,,,,,,418.22920239996165,418.22920239996165,0.0012938999570906162,0.09764860011637211,6.0,2.6975801000371575,,,,,,6833,Moral,2025-02-11_12h23.56.921,MoralCondition_v2,2022.2.5,30.01717582600342,
6,0,6,0,0,0,0,0,,,,,,,,,,,,,,,,,,,,,,420.96258229995146,0.00027449987828731537,0.09808609960600734,426.96239419979975,6.03127899998799,427.14571820013225,427.14571820013225,0.07539659971371293,0.1811936995945871,6.014731199480593,,433.24571419972926,433.24571419972926,433.24571419972926,0.07689799973741174,0.1814568997360766,438.94565719971433,439.1456852997653,6.014569299761206,6.11446929955855,445.1456512999721,12.014531299471855,445.2789392997511,445.2789392997511,0.01467559952288866,0.11448589945212007,down,0.4454411999322474,445.7790006999858,3.6899931728839874e-05,0.09792760014533997,451.7786868000403,451.7786868000403,451.7786868000403,0.010118099860846996,0.09802660020068288,3.0,4.188726199790835,,,,,,,445.245563399978,445.245563399978,,433.12893089978024,433.12893089978024,6833,Moral,2025-02-11_12h23.56.921,MoralCondition_v2,2022.2.5,30.01717582600342,
6,0,6,0,1,0,1,0,,,,,,,,,,,,,,,,,,,,,,,,,,,,,,,,,,,,,,,,,,,,,,,,,,,,,,456.01226609991863,456.01226609991863,0.007186200004070997,0.09768690029159188,2.0,1.7584314998239279,,,,,,,,,,,,6833,Moral,2025-02-11_12h23.56.921,MoralCondition_v2,2022.2.5,30.01717582600342,
6,0,6,0,2,0,2,0,,,,,,,,,,,,,,,,,,,,,,,,,,,,,,,,,,,,,,,,,,,,,,,,,,,,,,457.82908269995824,457.82908269995824,0.007712199818342924,0.11452970001846552,5.0,6.974192300345749,,,,,,,,,,,,6833,Moral,2025-02-11_12h23.56.921,MoralCondition_v2,2022.2.5,30.01717582600342,
6,0,6,0,3,0,3,0,,,,,,,,,,,,,,,,,,,,,,,,,,,,,,,,,,,,,,,,,,,,,,,,,,,,,,464.8287098999135,464.8287098999135,0.009637200273573399,0.09710720041766763,3.0,2.288483700249344,,,,,,,,,,,,6833,Moral,2025-02-11_12h23.56.921,MoralCondition_v2,2022.2.5,30.01717582600342,
6,0,6,0,4,0,4,0,,,,,,,,,,,,,,,,,,,,,,,,,,,,,,,,,,,,,,,,,,,,,,,,,,,,,,467.16228420007974,467.16228420007974,0.006739899981766939,0.0981770004145801,5.0,3.826000399887562,,,,,,,,,,,,6833,Moral,2025-02-11_12h23.56.921,MoralCondition_v2,2022.2.5,30.01717582600342,
6,0,6,0,5,0,5,0,,,,,,,,,,,,,,,,,,,,,,,,,,,,,,,,,,,,,,,,,,,,,,,,,,,,,,471.02889700001106,471.02889700001106,0.007252099923789501,0.09778519999235868,3.0,2.25833179987967,,,,,,,,,,,,6833,Moral,2025-02-11_12h23.56.921,MoralCondition_v2,2022.2.5,30.01717582600342,
6,0,6,0,6,0,6,0,,,,,,,,,,,,,,,,,,,,,,,,,,,,,,,,,,,,,,,,,,,,,,,,,,,,,,473.32869429979473,473.32869429979473,0.006223499774932861,0.09890239965170622,5.0,2.0272462996654212,,,,,,,,,,,,6833,Moral,2025-02-11_12h23.56.921,MoralCondition_v2,2022.2.5,30.01717582600342,
6,0,6,0,,,,,,,,,,,,,,,,,,,,,,,,,,,,,,,,,,,,,,,,,,,,,,,,,,,,,,,,,,,,,,,,475.39561210013926,475.39561210013926,0.0012439996935427189,0.09800999984145164,2.0,3.464476900175214,,,,,,6833,Moral,2025-02-11_12h23.56.921,MoralCondition_v2,2022.2.5,30.01717582600342,
7,0,7,0,0,0,0,0,,,,,,,,,,,,,,,,,,,,,,478.89555899985135,0.00013219984248280525,0.09918999997898936,484.9121487000957,6.015825999900699,485.078994799871,485.078994799871,0.07041709963232279,0.18263609986752272,6.015689899679273,,491.1789903999306,491.1789903999306,491.1789903999306,0.06791189964860678,0.1823931997641921,496.87885669991374,497.0787975001149,6.01572179980576,6.115657799877226,503.07874300004914,12.015666999854147,503.2120503000915,503.2120503000915,0.015843399334698915,0.11561579955741763,down,0.6240972001105547,503.87873269990087,4.469975829124451e-05,0.09791819984093308,509.8784817000851,509.8784817000851,509.8784817000851,0.007725799921900034,0.09768039966002107,5.0,3.691335200332105,,,,,,,503.1787390001118,503.1787390001118,,491.07879259996116,491.07879259996116,6833,Moral,2025-02-11_12h23.56.921,MoralCondition_v2,2022.2.5,30.01717582600342,
7,0,7,0,1,0,1,0,,,,,,,,,,,,,,,,,,,,,,,,,,,,,,,,,,,,,,,,,,,,,,,,,,,,,,513.6122445999645,513.6122445999645,0.008896499872207642,0.09767409972846508,3.0,5.056271499954164,,,,,,,,,,,,6833,Moral,2025-02-11_12h23.56.921,MoralCondition_v2,2022.2.5,30.01717582600342,
7,0,7,0,2,0,2,0,,,,,,,,,,,,,,,,,,,,,,,,,,,,,,,,,,,,,,,,,,,,,,,,,,,,,,518.7121771001257,518.7121771001257,0.007693099789321423,0.09790519997477531,5.0,4.791557900141925,,,,,,,,,,,,6833,Moral,2025-02-11_12h23.56.921,MoralCondition_v2,2022.2.5,30.01717582600342,
7,0,7,0,3,0,3,0,,,,,,,,,,,,,,,,,,,,,,,,,,,,,,,,,,,,,,,,,,,,,,,,,,,,,,523.5623658997938,523.5623658997938,0.010121400002390146,0.11424650019034743,5.0,3.8383547998964787,,,,,,,,,,,,6833,Moral,2025-02-11_12h23.56.921,MoralCondition_v2,2022.2.5,30.01717582600342,
7,0,7,0,4,0,4,0,,,,,,,,,,,,,,,,,,,,,,,,,,,,,,,,,,,,,,,,,,,,,,,,,,,,,,527.4285689000972,527.4285689000972,0.006640200037509203,0.09927009977400303,4.0,4.126856099814177,,,,,,,,,,,,6833,Moral,2025-02-11_12h23.56.921,MoralCondition_v2,2022.2.5,30.01717582600342,
7,0,7,0,5,0,5,0,,,,,,,,,,,,,,,,,,,,,,,,,,,,,,,,,,,,,,,,,,,,,,,,,,,,,,531.5953051997349,531.5953051997349,0.007712500169873238,0.09813540009781718,3.0,4.857881000265479,,,,,,,,,,,,6833,Moral,2025-02-11_12h23.56.921,MoralCondition_v2,2022.2.5,30.01717582600342,
7,0,7,0,6,0,6,0,,,,,,,,,,,,,,,,,,,,,,,,,,,,,,,,,,,,,,,,,,,,,,,,,,,,,,536.4953403999098,536.4953403999098,0.006623600143939257,0.09948440035805106,3.0,5.727104499936104,,,,,,,,,,,,6833,Moral,2025-02-11_12h23.56.921,MoralCondition_v2,2022.2.5,30.01717582600342,
7,0,7,0,,,,,,,,,,,,,,,,,,,,,,,,,,,,,,,,,,,,,,,,,,,,,,,,,,,,,,,,,,,,,,,,542.2621745001525,542.2621745001525,0.0016215997748076916,0.09792019985616207,2.0,5.264208000153303,,,,,,6833,Moral,2025-02-11_12h23.56.921,MoralCondition_v2,2022.2.5,30.01717582600342,
8,0,8,0,0,0,0,0,,,,,,,,,,,,,,,,,,,,,,547.5621299999766,0.00028559984639286995,0.09823430003598332,553.5619128998369,6.031375899910927,553.7454492999241,553.7454492999241,0.07541499985381961,0.18132919957861304,6.01466149976477,,559.845281300135,559.845281300135,559.845281300135,0.07192689971998334,0.18138559954240918,565.5451608998701,565.7453863001429,6.01484979968518,6.114667399786413,571.7451975997537,12.014674699865282,571.8784531997517,571.8784531997517,0.014759099576622248,0.11454879958182573,down,0.2129918998107314,572.1453899997286,4.300009459257126e-05,0.09800060000270605,,578.178461600095,578.178461600095,0.02574610011652112,0.1314401999115944,3.0,4.906528100371361,,,,,,,571.845120199956,571.845120199956,,559.745205800049,559.745205800049,6833,Moral,2025-02-11_12h23.56.921,MoralCondition_v2,2022.2.5,30.01717582600342,
8,0,8,0,1,0,1,0,,,,,,,,,,,,,,,,,,,,,,,,,,,,,,,,,,,,,,,,,,,,,,,,,,,,,,583.1283363997936,583.1283363997936,0.008866399992257357,0.11393200000748038,3.0,6.4725334998220205,,,,,,,,,,,,6833,Moral,2025-02-11_12h23.56.921,MoralCondition_v2,2022.2.5,30.01717582600342,
8,0,8,0,2,0,2,0,,,,,,,,,,,,,,,,,,,,,,,,,,,,,,,,,,,,,,,,,,,,,,,,,,,,,,589.6283956998959,589.6283956998959,0.006393699906766415,0.09913520002737641,5.0,3.7605556999333203,,,,,,,,,,,,6833,Moral,2025-02-11_12h23.56.921,MoralCondition_v2,2022.2.5,30.01717582600342,
8,0,8,0,3,0,3,0,,,,,,,,,,,,,,,,,,,,,,,,,,,,,,,,,,,,,,,,,,,,,,,,,,,,,,593.428375700023,593.428375700023,0.008766100276261568,0.09738650033250451,5.0,1.7228685999289155,,,,,,,,,,,,6833,Moral,2025-02-11_12h23.56.921,MoralCondition_v2,2022.2.5,30.01717582600342,
8,0,8,0,4,0,4,0,,,,,,,,,,,,,,,,,,,,,,,,,,,,,,,,,,,,,,,,,,,,,,,,,,,,,,595.2118780999444,595.2118780999444,0.008450600318610668,0.11438140040263534,4.0,1.8405461004003882,,,,,,,,,,,,6833,Moral,2025-02-11_12h23.56.921,MoralCondition_v2,2022.2.5,30.01717582600342,
8,0,8,0,5,0,5,0,,,,,,,,,,,,,,,,,,,,,,,,,,,,,,,,,,,,,,,,,,,,,,,,,,,,,,597.0781626999378,597.0781626999378,0.007562299724668264,0.09766179975122213,3.0,3.0242467001080513,,,,,,,,,,,,6833,Moral,2025-02-11_12h23.56.921,MoralCondition_v2,2022.2.5,30.01717582600342,
8,0,8,0,6,0,6,0,,,,,,,,,,,,,,,,,,,,,,,,,,,,,,,,,,,,,,,,,,,,,,,,,,,,,,600.1450831997208,600.1450831997208,0.006973099894821644,0.09853990003466606,5.0,2.092411099933088,,,,,,,,,,,,6833,Moral,2025-02-11_12h23.56.921,MoralCondition_v2,2022.2.5,30.01717582600342,
8,0,8,0,,,,,,,,,,,,,,,,,,,,,,,,,,,,,,,,,,,,,,,,,,,,,,,,,,,,,,,,,,,,,,,,602.2781885997392,602.2781885997392,0.0014367001131176949,0.09772010007873178,2.0,2.930884400382638,,,,,,6833,Moral,2025-02-11_12h23.56.921,MoralCondition_v2,2022.2.5,30.01717582600342,
9,0,9,0,0,0,0,0,,,,,,,,,,,,,,,,,,,,,,605.2452122997493,0.00030170008540153503,0.09777300013229251,611.2449316000566,6.0310591999441385,611.4449896998703,611.4449896998703,0.08434790000319481,0.1977400998584926,6.031042700167745,,617.5450164000504,617.5450164000504,617.5450164000504,0.08310109982267022,0.19774199975654483,623.2446766998619,623.4448794000782,6.031009200029075,6.131022199988365,629.4448746000417,12.031027699820697,629.5781383998692,629.5781383998692,0.031145199667662382,0.1309830998070538,down,0.3058136999607086,629.9448493998498,5.610007792711258e-05,0.0982605000026524,635.945080100093,635.945080100093,635.945080100093,0.009159800130873919,0.0979929999448359,5.0,6.323195099830627,,,,,,,629.544861599803,629.544861599803,,617.4449823000468,617.4449823000468,6833,Moral,2025-02-11_12h23.56.921,MoralCondition_v2,2022.2.5,30.01717582600342,
9,0,9,0,1,0,1,0,,,,,,,,,,,,,,,,,,,,,,,,,,,,,,,,,,,,,,,,,,,,,,,,,,,,,,642.3281868998893,642.3281868998893,0.007951099891215563,0.11396990017965436,5.0,1.740325199905783,,,,,,,,,,,,6833,Moral,2025-02-11_12h23.56.921,MoralCondition_v2,2022.2.5,30.01717582600342,
9,0,9,0,2,0,2,0,,,,,,,,,,,,,,,,,,,,,,,,,,,,,,,,,,,,,,,,,,,,,,,,,,,,,,644.094673300162,644.094673300162,0.0065876999869942665,0.09918579971417785,5.0,13.093586800154299,,,,,,,,,,,,6833,Moral,2025-02-11_12h23.56.921,MoralCondition_v2,2022.2.5,30.01717582600342,
9,0,9,0,3,0,3,0,,,,,,,,,,,,,,,,,,,,,,,,,,,,,,,,,,,,,,,,,,,,,,,,,,,,,,657.2278569997288,657.2278569997288,0.007900599855929613,0.0976380999200046,5.0,12.590663400013,,,,,,,,,,,,6833,Moral,2025-02-11_12h23.56.921,MoralCondition_v2,2022.2.5,30.01717582600342,
9,0,9,0,4,0,4,0,,,,,,,,,,,,,,,,,,,,,,,,,,,,,,,,,,,,,,,,,,,,,,,,,,,,,,669.861447500065,669.861447500065,0.007605399936437607,0.09771319990977645,2.0,3.8908969000913203,,,,,,,,,,,,6833,Moral,2025-02-11_12h23.56.921,MoralCondition_v2,2022.2.5,30.01717582600342,
9,0,9,0,5,0,5,0,,,,,,,,,,,,,,,,,,,,,,,,,,,,,,,,,,,,,,,,,,,,,,,,,,,,,,673.8113028998487,673.8113028998487,0.007665600161999464,0.11377609986811876,5.0,7.073574600275606,,,,,,,,,,,,6833,Moral,2025-02-11_12h23.56.921,MoralCondition_v2,2022.2.5,30.01717582600342,
9,0,9,0,6,0,6,0,,,,,,,,,,,,,,,,,,,,,,,,,,,,,,,,,,,,,,,,,,,,,,,,,,,,,,680.9112448999658,680.9112448999658,0.006719700060784817,0.09909170027822256,3.0,3.860087600070983,,,,,,,,,,,,6833,Moral,2025-02-11_12h23.56.921,MoralCondition_v2,2022.2.5,30.01717582600342,
9,0,9,0,,,,,,,,,,,,,,,,,,,,,,,,,,,,,,,,,,,,,,,,,,,,,,,,,,,,,,,,,,,,,,,,684.8113262001425,684.8113262001425,0.0013288999907672405,0.09855520026758313,2.0,8.764964499976486,,,,,,6833,Moral,2025-02-11_12h23.56.921,MoralCondition_v2,2022.2.5,30.01717582600342,
10,0,10,0,0,0,0,0,,,,,,,,,,,,,,,,,,,,,,693.6112095997669,0.0002445001155138016,0.0977793000638485,699.627865599934,6.014278800226748,699.7780812000856,699.7780812000856,0.06394340004771948,0.16441130032762885,6.03085510013625,,705.911478199996,705.911478199996,705.911478199996,0.0827454999089241,0.19758439995348454,711.611129200086,711.811170599889,6.0308941998519,6.130847400054336,717.8111482998356,12.03086860012263,717.9444308998063,717.9444308998063,0.031066199764609337,0.13086709985509515,up,11.13903780002147,729.1279806001112,8.099991828203201e-05,0.09808559995144606,735.1444272999652,735.1444272999652,735.1444272999652,0.009436499793082476,0.11486029997467995,5.0,11.273034899961203,,,,,,,717.9111799998209,717.9111799998209,,705.7780464999378,705.7780464999378,6833,Moral,2025-02-11_12h23.56.921,MoralCondition_v2,2022.2.5,30.01717582600342,
10,0,10,0,1,0,1,0,,,,,,,,,,,,,,,,,,,,,,,,,,,,,,,,,,,,,,,,,,,,,,,,,,,,,,746.4443581998348,746.4443581998348,0.0075552999041974545,0.09772010007873178,1.0,2.5580016002058983,,,,,,,,,,,,6833,Moral,2025-02-11_12h23.56.921,MoralCondition_v2,2022.2.5,30.01717582600342,
10,0,10,0,2,0,2,0,,,,,,,,,,,,,,,,,,,,,,,,,,,,,,,,,,,,,,,,,,,,,,,,,,,,,,749.0442276997492,749.0442276997492,0.006933900061994791,0.09915350005030632,1.0,1.9266054001636803,,,,,,,,,,,,6833,Moral,2025-02-11_12h23.56.921,MoralCondition_v2,2022.2.5,30.01717582600342,
10,0,10,0,3,0,3,0,,,,,,,,,,,,,,,,,,,,,,,,,,,,,,,,,,,,,,,,,,,,,,,,,,,,,,751.010898699984,751.010898699984,0.007240599952638149,0.09788409993052483,3.0,4.125082700047642,,,,,,,,,,,,6833,Moral,2025-02-11_12h23.56.921,MoralCondition_v2,2022.2.5,30.01717582600342,
10,0,10,0,4,0,4,0,,,,,,,,,,,,,,,,,,,,,,,,,,,,,,,,,,,,,,,,,,,,,,,,,,,,,,755.1774842999876,755.1774842999876,0.007707200013101101,0.09773029992356896,5.0,3.4243934000842273,,,,,,,,,,,,6833,Moral,2025-02-11_12h23.56.921,MoralCondition_v2,2022.2.5,30.01717582600342,
10,0,10,0,5,0,5,0,,,,,,,,,,,,,,,,,,,,,,,,,,,,,,,,,,,,,,,,,,,,,,,,,,,,,,758.6443806998432,758.6443806998432,0.007346500176936388,0.0978288003243506,2.0,3.1248044003732502,,,,,,,,,,,,6833,Moral,2025-02-11_12h23.56.921,MoralCondition_v2,2022.2.5,30.01717582600342,
10,0,10,0,6,0,6,0,,,,,,,,,,,,,,,,,,,,,,,,,,,,,,,,,,,,,,,,,,,,,,,,,,,,,,761.8275672998279,761.8275672998279,0.011567099951207638,0.1136289001442492,2.0,1.5698665999807417,,,,,,,,,,,,6833,Moral,2025-02-11_12h23.56.921,MoralCondition_v2,2022.2.5,30.01717582600342,
10,0,10,0,,,,,,,,,,,,,,,,,,,,,,,,,,,,,,,,,,,,,,,,,,,,,,,,,,,,,,,,,,,,,,,,763.4277739999816,763.4277739999816,0.001269300002604723,0.09792219987139106,6.0,1.8977826000191271,,,,,,6833,Moral,2025-02-11_12h23.56.921,MoralCondition_v2,2022.2.5,30.01717582600342,
11,0,11,0,0,0,0,0,,,,,,,,,,,,,,,,,,,,,,765.3611814999022,0.0001529003493487835,0.09949890011921525,771.3775480999611,6.015803100075573,771.5442570000887,771.5442570000887,0.07548330025747418,0.18272260017693043,6.01592170028016,,777.644184499979,777.644184499979,777.644184499979,0.07330980012193322,0.18268710002303123,783.3447579997592,783.5441902996972,6.015814200043678,6.115761199966073,789.5442355000414,12.015911399852484,789.6776092001237,789.6776092001237,0.01584659982472658,0.11567969992756844,up,0.3337866999208927,790.0608219001442,4.319986328482628e-05,0.0979149998165667,,796.0943541997112,796.0943541997112,0.025187999941408634,0.13129519997164607,3.0,4.373855599667877,,,,,,,789.6273163999431,789.6273163999431,,777.5441708997823,777.5441708997823,6833,Moral,2025-02-11_12h23.56.921,MoralCondition_v2,2022.2.5,30.01717582600342,
11,0,11,0,1,0,1,0,,,,,,,,,,,,,,,,,,,,,,,,,,,,,,,,,,,,,,,,,,,,,,,,,,,,,,800.4940976998769,800.4940976998769,0.006604800000786781,0.09908670000731945,1.0,1.6934054996818304,,,,,,,,,,,,6833,Moral,2025-02-11_12h23.56.921,MoralCondition_v2,2022.2.5,30.01717582600342,
11,0,11,0,2,0,2,0,,,,,,,,,,,,,,,,,,,,,,,,,,,,,,,,,,,,,,,,,,,,,,,,,,,,,,802.2273054998368,802.2273054998368,0.007479999680072069,0.0978031000122428,5.0,1.8913957001641393,,,,,,,,,,,,6833,Moral,2025-02-11_12h23.56.921,MoralCondition_v2,2022.2.5,30.01717582600342,
11,0,11,0,3,0,3,0,,,,,,,,,,,,,,,,,,,,,,,,,,,,,,,,,,,,,,,,,,,,,,,,,,,,,,804.1605281000957,804.1605281000957,0.0082290000282228,0.09789599990472198,2.0,2.157530300319195,,,,,,,,,,,,6833,Moral,2025-02-11_12h23.56.921,MoralCondition_v2,2022.2.5,30.01717582600342,
11,0,11,0,4,0,4,0,,,,,,,,,,,,,,,,,,,,,,,,,,,,,,,,,,,,,,,,,,,,,,,,,,,,,,806.3607342997566,806.3607342997566,0.007720399647951126,0.0980358999222517,3.0,1.624810399953276,,,,,,,,,,,,6833,Moral,2025-02-11_12h23.56.921,MoralCondition_v2,2022.2.5,30.01717582600342,
11,0,11,0,5,0,5,0,,,,,,,,,,,,,,,,,,,,,,,,,,,,,,,,,,,,,,,,,,,,,,,,,,,,,,808.0272574997507,808.0272574997507,0.0064536998979747295,0.09940750012174249,5.0,1.6606458998285234,,,,,,,,,,,,6833,Moral,2025-02-11_12h23.56.921,MoralCondition_v2,2022.2.5,30.01717582600342,
11,0,11,0,6,0,6,0,,,,,,,,,,,,,,,,,,,,,,,,,,,,,,,,,,,,,,,,,,,,,,,,,,,,,,809.7274412997067,809.7274412997067,0.00771909998729825,0.0977394999936223,1.0,1.391263000201434,,,,,,,,,,,,6833,Moral,2025-02-11_12h23.56.921,MoralCondition_v2,2022.2.5,30.01717582600342,
11,0,11,0,,,,,,,,,,,,,,,,,,,,,,,,,,,,,,,,,,,,,,,,,,,,,,,,,,,,,,,,,,,,,,,,811.1605952000245,811.1605952000245,0.0006940998136997223,0.09904529992491007,6.0,1.732940699905157,,,,,,6833,Moral,2025-02-11_12h23.56.921,MoralCondition_v2,2022.2.5,30.01717582600342,
12,0,12,0,0,0,0,0,,,,,,,,,,,,,,,,,,,,,,812.9277435000986,0.00015959981828927994,0.0992354997433722,818.94405179983,6.015819699969143,819.0938280997798,819.0938280997798,0.06744359992444515,0.16589549975469708,6.032321999780834,,825.2106956997886,825.2106956997886,825.2106956997886,0.08382159983739257,0.18239979958161712,830.910631599836,831.1106135998853,6.01563509972766,6.115590099710971,837.1105766999535,12.015590499620885,837.2441235999577,837.2441235999577,0.01594259962439537,0.11555139953270555,up,0.3357596998102963,837.6440514000133,5.189981311559677e-05,0.09803659981116652,,843.6771614998579,843.6771614998579,0.025974399875849485,0.1313449996523559,1.0,3.306618300266564,,,,,,,837.2107995999977,837.2107995999977,,825.0939488997683,825.0939488997683,6833,Moral,2025-02-11_12h23.56.921,MoralCondition_v2,2022.2.5,30.01717582600342,
12,0,12,0,1,0,1,0,,,,,,,,,,,,,,,,,,,,,,,,,,,,,,,,,,,,,,,,,,,,,,,,,,,,,,847.0104666999541,847.0104666999541,0.00715490011498332,0.09941070014610887,5.0,2.4931385000236332,,,,,,,,,,,,6833,Moral,2025-02-11_12h23.56.921,MoralCondition_v2,2022.2.5,30.01717582600342,
12,0,12,0,2,0,2,0,,,,,,,,,,,,,,,,,,,,,,,,,,,,,,,,,,,,,,,,,,,,,,,,,,,,,,849.543826600071,849.543826600071,0.006708499975502491,0.09935140004381537,4.0,4.093778300099075,,,,,,,,,,,,6833,Moral,2025-02-11_12h23.56.921,MoralCondition_v2,2022.2.5,30.01717582600342,
12,0,12,0,3,0,3,0,,,,,,,,,,,,,,,,,,,,,,,,,,,,,,,,,,,,,,,,,,,,,,,,,,,,,,853.6940648998134,853.6940648998134,0.008187200408428907,0.11442580027505755,3.0,2.5740128001198173,,,,,,,,,,,,6833,Moral,2025-02-11_12h23.56.921,MoralCondition_v2,2022.2.5,30.01717582600342,
12,0,12,0,4,0,4,0,,,,,,,,,,,,,,,,,,,,,,,,,,,,,,,,,,,,,,,,,,,,,,,,,,,,,,856.2939343000762,856.2939343000762,0.006656100042164326,0.09939639968797565,1.0,1.66031159972772,,,,,,,,,,,,6833,Moral,2025-02-11_12h23.56.921,MoralCondition_v2,2022.2.5,30.01717582600342,
12,0,12,0,5,0,5,0,,,,,,,,,,,,,,,,,,,,,,,,,,,,,,,,,,,,,,,,,,,,,,,,,,,,,,857.9936335999519,857.9936335999519,0.006495599634945393,0.0991453998722136,3.0,4.460322899743915,,,,,,,,,,,,6833,Moral,2025-02-11_12h23.56.921,MoralCondition_v2,2022.2.5,30.01717582600342,
12,0,12,0,6,0,6,0,,,,,,,,,,,,,,,,,,,,,,,,,,,,,,,,,,,,,,,,,,,,,,,,,,,,,,862.4938822998665,862.4938822998665,0.007727200165390968,0.09760629991069436,4.0,2.5912886997684836,,,,,,,,,,,,6833,Moral,2025-02-11_12h23.56.921,MoralCondition_v2,2022.2.5,30.01717582600342,
12,0,12,0,,,,,,,,,,,,,,,,,,,,,,,,,,,,,,,,,,,,,,,,,,,,,,,,,,,,,,,,,,,,,,,,865.1272213999182,865.1272213999182,0.0016336999833583832,0.09764089994132519,6.0,2.0304062999784946,,,,,,6833,Moral,2025-02-11_12h23.56.921,MoralCondition_v2,2022.2.5,30.01717582600342,
13,0,13,0,0,0,0,0,,,,,,,,,,,,,,,,,,,,,,867.1941065997817,0.00035530002787709236,0.09759580017998815,873.1939853997901,6.031188299879432,873.3936773999594,873.3936773999594,0.08857350004836917,0.1974019999615848,6.031011700164527,,879.4935968997888,879.4935968997888,879.4935968997888,0.08553119981661439,0.19779230002313852,885.1938497000374,885.3937136000022,6.030880500096828,6.130816899705678,891.3936612000689,12.030834899749607,891.5270452001132,891.5270452001132,0.0309621999040246,0.1307900999672711,down,14.948348000179976,906.5102483998053,5.110027268528938e-05,0.09782690042629838,,912.5267420997843,912.5267420997843,0.027774000074714422,0.11442160001024604,1.0,2.5877072997391224,,,,,,,891.4936349000782,891.4936349000782,,879.3937274999917,879.3937274999917,6833,Moral,2025-02-11_12h23.56.921,MoralCondition_v2,2022.2.5,30.01717582600342,
13,0,13,0,1,0,1,0,,,,,,,,,,,,,,,,,,,,,,,,,,,,,,,,,,,,,,,,,,,,,,,,,,,,,,915.1602523000911,915.1602523000911,0.006601699627935886,0.0991410999558866,5.0,6.126924999989569,,,,,,,,,,,,6833,Moral,2025-02-11_12h23.56.921,MoralCondition_v2,2022.2.5,30.01717582600342,
13,0,13,0,2,0,2,0,,,,,,,,,,,,,,,,,,,,,,,,,,,,,,,,,,,,,,,,,,,,,,,,,,,,,,921.3269253997132,921.3269253997132,0.007151199970394373,0.09805009979754686,4.0,4.125177700072527,,,,,,,,,,,,6833,Moral,2025-02-11_12h23.56.921,MoralCondition_v2,2022.2.5,30.01717582600342,
13,0,13,0,3,0,3,0,,,,,,,,,,,,,,,,,,,,,,,,,,,,,,,,,,,,,,,,,,,,,,,,,,,,,,925.4935539001599,925.4935539001599,0.006611200049519539,0.09915390005335212,6.0,2.4269042997621,,,,,,,,,,,,6833,Moral,2025-02-11_12h23.56.921,MoralCondition_v2,2022.2.5,30.01717582600342,
13,0,13,0,4,0,4,0,,,,,,,,,,,,,,,,,,,,,,,,,,,,,,,,,,,,,,,,,,,,,,,,,,,,,,927.9601237000898,927.9601237000898,0.006536399945616722,0.0991235002875328,2.0,2.493658499792218,,,,,,,,,,,,6833,Moral,2025-02-11_12h23.56.921,MoralCondition_v2,2022.2.5,30.01717582600342,
13,0,13,0,5,0,5,0,,,,,,,,,,,,,,,,,,,,,,,,,,,,,,,,,,,,,,,,,,,,,,,,,,,,,,930.510416300036,930.510416300036,0.007757899817079306,0.1144252996891737,5.0,2.4075698000378907,,,,,,,,,,,,6833,Moral,2025-02-11_12h23.56.921,MoralCondition_v2,2022.2.5,30.01717582600342,
13,0,13,0,6,0,6,0,,,,,,,,,,,,,,,,,,,,,,,,,,,,,,,,,,,,,,,,,,,,,,,,,,,,,,932.9434412000701,932.9434412000701,0.007665999699383974,0.09809039998799562,5.0,4.691231499891728,,,,,,,,,,,,6833,Moral,2025-02-11_12h23.56.921,MoralCondition_v2,2022.2.5,30.01717582600342,
13,0,13,0,,,,,,,,,,,,,,,,,,,,,,,,,,,,,,,,,,,,,,,,,,,,,,,,,,,,,,,,,,,,,,,,937.676695600152,937.676695600152,0.0017011999152600765,0.09763439977541566,2.0,2.3972610998898745,,,,,,6833,Moral,2025-02-11_12h23.56.921,MoralCondition_v2,2022.2.5,30.01717582600342,
14,0,14,0,0,0,0,0,,,,,,,,,,,,,,,,,,,,,,940.1099438997917,0.00029850006103515625,0.09734780015423894,946.11017310014,6.030824100133032,946.2935346998274,946.2935346998274,0.0753842000849545,0.181073899846524,6.030496099963784,,952.4100452000275,952.4100452000275,952.4100452000275,0.08872890006750822,0.1971505000256002,958.1100125997327,958.310019500088,6.03065579989925,6.1305879997089505,964.309981000144,12.030640800017864,964.4433379000984,964.4433379000984,0.030784299597144127,0.13057549996301532,down,0.4157093004323542,964.909981300123,3.4899916499853134e-05,0.09835259988904,970.9098451999016,970.9098451999016,970.9098451999016,0.0067714001052081585,0.09823000011965632,2.0,2.225784699898213,,,,,,,964.40999309998,964.40999309998,,952.2932064998895,952.2932064998895,6833,Moral,2025-02-11_12h23.56.921,MoralCondition_v2,2022.2.5,30.01717582600342,
14,0,14,0,1,0,1,0,,,,,,,,,,,,,,,,,,,,,,,,,,,,,,,,,,,,,,,,,,,,,,,,,,,,,,973.1765796998516,973.1765796998516,0.006294399965554476,0.09918490005657077,5.0,3.3940057000145316,,,,,,,,,,,,6833,Moral,2025-02-11_12h23.56.921,MoralCondition_v2,2022.2.5,30.01717582600342,
14,0,14,0,2,0,2,0,,,,,,,,,,,,,,,,,,,,,,,,,,,,,,,,,,,,,,,,,,,,,,,,,,,,,,976.6099573001266,976.6099573001266,0.0067414999939501286,0.09934750013053417,6.0,3.3268736000172794,,,,,,,,,,,,6833,Moral,2025-02-11_12h23.56.921,MoralCondition_v2,2022.2.5,30.01717582600342,
14,0,14,0,3,0,3,0,,,,,,,,,,,,,,,,,,,,,,,,,,,,,,,,,,,,,,,,,,,,,,,,,,,,,,979.9935837998055,979.9935837998055,0.008012999780476093,0.11424669995903969,2.0,1.707424699794501,,,,,,,,,,,,6833,Moral,2025-02-11_12h23.56.921,MoralCondition_v2,2022.2.5,30.01717582600342,
14,0,14,0,4,0,4,0,,,,,,,,,,,,,,,,,,,,,,,,,,,,,,,,,,,,,,,,,,,,,,,,,,,,,,981.7264489997178,981.7264489997178,0.007096900139003992,0.09923249995335937,5.0,2.959784099832177,,,,,,,,,,,,6833,Moral,2025-02-11_12h23.56.921,MoralCondition_v2,2022.2.5,30.01717582600342,
14,0,14,0,5,0,5,0,,,,,,,,,,,,,,,,,,,,,,,,,,,,,,,,,,,,,,,,,,,,,,,,,,,,,,984.7265924001113,984.7265924001113,0.007190699689090252,0.09807369997724891,6.0,1.3584079998545349,,,,,,,,,,,,6833,Moral,2025-02-11_12h23.56.921,MoralCondition_v2,2022.2.5,30.01717582600342,
14,0,14,0,6,0,6,0,,,,,,,,,,,,,,,,,,,,,,,,,,,,,,,,,,,,,,,,,,,,,,,,,,,,,,986.126533600036,986.126533600036,0.006907099857926369,0.0994132999330759,5.0,1.1601611003279686,,,,,,,,,,,,6833,Moral,2025-02-11_12h23.56.921,MoralCondition_v2,2022.2.5,30.01717582600342,
14,0,14,0,,,,,,,,,,,,,,,,,,,,,,,,,,,,,,,,,,,,,,,,,,,,,,,,,,,,,,,,,,,,,,,,987.3264762000181,987.3264762000181,0.0005753999575972557,0.09910889994353056,6.0,1.5998146999627352,,,,,,6833,Moral,2025-02-11_12h23.56.921,MoralCondition_v2,2022.2.5,30.01717582600342,
15,0,15,0,0,0,0,0,,,,,,,,,,,,,,,,,,,,,,988.9602040997706,0.00013320008292794228,0.09908939991146326,994.976508599706,6.015725300181657,995.1434754999354,995.1434754999354,0.07140569994226098,0.18257239973172545,6.0156652997247875,,1001.2433714997023,1001.2433714997023,1001.2433714997023,0.06865789974108338,0.182379599660635,1006.9430988999084,1007.14317080006,6.015737799927592,6.115909399930388,1013.1430693999864,12.015652899630368,1013.2764530000277,1013.2764530000277,0.0158975999802351,0.11558589991182089,up,0.303292800206691,1013.6431283000857,4.3999869376420975e-05,0.09808109980076551,,1019.6600818997249,1019.6600818997249,0.02505100006237626,0.11454339977353811,2.0,4.423952599987388,,,,,,,1013.2431383999065,1013.2431383999065,,1001.1431165998802,1001.1431165998802,6833,Moral,2025-02-11_12h23.56.921,MoralCondition_v2,2022.2.5,30.01717582600342,
15,0,15,0,1,0,1,0,,,,,,,,,,,,,,,,,,,,,,,,,,,,,,,,,,,,,,,,,,,,,,,,,,,,,,1024.1262687998824,1024.1262687998824,0.00627950020134449,0.0985643002204597,2.0,1.8933212999254465,,,,,,,,,,,,6833,Moral,2025-02-11_12h23.56.921,MoralCondition_v2,2022.2.5,30.01717582600342,
15,0,15,0,2,0,2,0,,,,,,,,,,,,,,,,,,,,,,,,,,,,,,,,,,,,,,,,,,,,,,,,,,,,,,1026.0595796001144,1026.0595796001144,0.00763060012832284,0.09776350017637014,5.0,1.8578666001558304,,,,,,,,,,,,6833,Moral,2025-02-11_12h23.56.921,MoralCondition_v2,2022.2.5,30.01717582600342,
15,0,15,0,3,0,3,0,,,,,,,,,,,,,,,,,,,,,,,,,,,,,,,,,,,,,,,,,,,,,,,,,,,,,,1027.9597080000676,1027.9597080000676,0.006945199798792601,0.09944080002605915,1.0,1.5600792998448014,,,,,,,,,,,,6833,Moral,2025-02-11_12h23.56.921,MoralCondition_v2,2022.2.5,30.01717582600342,
15,0,15,0,4,0,4,0,,,,,,,,,,,,,,,,,,,,,,,,,,,,,,,,,,,,,,,,,,,,,,,,,,,,,,1029.5595928998664,1029.5595928998664,0.00718849990516901,0.09807300008833408,3.0,1.4587195003405213,,,,,,,,,,,,6833,Moral,2025-02-11_12h23.56.921,MoralCondition_v2,2022.2.5,30.01717582600342,
15,0,15,0,5,0,5,0,,,,,,,,,,,,,,,,,,,,,,,,,,,,,,,,,,,,,,,,,,,,,,,,,,,,,,1031.059590399731,1031.059590399731,0.008032099809497595,0.09716879995539784,1.0,1.8236221000552177,,,,,,,,,,,,6833,Moral,2025-02-11_12h23.56.921,MoralCondition_v2,2022.2.5,30.01717582600342,
15,0,15,0,6,0,6,0,,,,,,,,,,,,,,,,,,,,,,,,,,,,,,,,,,,,,,,,,,,,,,,,,,,,,,1032.926285999827,1032.926285999827,0.006516600027680397,0.09908479964360595,5.0,2.2603131998330355,,,,,,,,,,,,6833,Moral,2025-02-11_12h23.56.921,MoralCondition_v2,2022.2.5,30.01717582600342,
15,0,15,0,,,,,,,,,,,,,,,,,,,,,,,,,,,,,,,,,,,,,,,,,,,,,,,,,,,,,,,,,,,,,,,,1035.226515499875,1035.226515499875,0.0013501001521945,0.0976268001832068,6.0,3.097697100136429,,,,,,6833,Moral,2025-02-11_12h23.56.921,MoralCondition_v2,2022.2.5,30.01717582600342,
16,0,16,0,0,0,0,0,,,,,,,,,,,,,,,,,,,,,,1038.3598837000318,0.0002655000425875187,0.0976537000387907,1044.3763087997213,6.014220000244677,1044.542901000008,1044.542901000008,0.07489839987829328,0.18113190028816462,6.014192600268871,,1050.642930299975,1050.642930299975,1050.642930299975,0.07477129995822906,0.1811576997861266,1056.3428998999298,1056.5428594998084,6.014204000122845,6.114188199862838,1062.5428476999514,12.014187700115144,1062.6761730997823,1062.6761730997823,0.014419099781662226,0.11411749990656972,down,0.19906300026923418,1062.9095286997035,5.0900038331747055e-05,0.09759900020435452,,1068.9259949000552,1068.9259949000552,0.026267200242727995,0.11424020025879145,1.0,6.289137599989772,,,,,,,1062.6428796998225,1062.6428796998225,,1050.5428963997401,1050.5428963997401,6833,Moral,2025-02-11_12h23.56.921,MoralCondition_v2,2022.2.5,30.01717582600342,
16,0,16,0,1,0,1,0,,,,,,,,,,,,,,,,,,,,,,,,,,,,,,,,,,,,,,,,,,,,,,,,,,,,,,1075.2763954000548,1075.2763954000548,0.009093599859625101,0.11402249988168478,2.0,1.5392029997892678,,,,,,,,,,,,6833,Moral,2025-02-11_12h23.56.921,MoralCondition_v2,2022.2.5,30.01717582600342,
16,0,16,0,2,0,2,0,,,,,,,,,,,,,,,,,,,,,,,,,,,,,,,,,,,,,,,,,,,,,,,,,,,,,,1076.8425952000543,1076.8425952000543,0.00826269993558526,0.09814479993656278,5.0,3.4579214002005756,,,,,,,,,,,,6833,Moral,2025-02-11_12h23.56.921,MoralCondition_v2,2022.2.5,30.01717582600342,
16,0,16,0,3,0,3,0,,,,,,,,,,,,,,,,,,,,,,,,,,,,,,,,,,,,,,,,,,,,,,,,,,,,,,1080.3597487998195,1080.3597487998195,0.009054900147020817,0.1144989999011159,4.0,3.572892100084573,,,,,,,,,,,,6833,Moral,2025-02-11_12h23.56.921,MoralCondition_v2,2022.2.5,30.01717582600342,
16,0,16,0,4,0,4,0,,,,,,,,,,,,,,,,,,,,,,,,,,,,,,,,,,,,,,,,,,,,,,,,,,,,,,1083.959435499739,1083.959435499739,0.006593000143766403,0.09932509995996952,5.0,2.560398600064218,,,,,,,,,,,,6833,Moral,2025-02-11_12h23.56.921,MoralCondition_v2,2022.2.5,30.01717582600342,
16,0,16,0,5,0,5,0,,,,,,,,,,,,,,,,,,,,,,,,,,,,,,,,,,,,,,,,,,,,,,,,,,,,,,1086.5594003000297,1086.5594003000297,0.0067981998436152935,0.09909439971670508,7.0,1.8607079000212252,,,,,,,,,,,,6833,Moral,2025-02-11_12h23.56.921,MoralCondition_v2,2022.2.5,30.01717582600342,
16,0,16,0,6,0,6,0,,,,,,,,,,,,,,,,,,,,,,,,,,,,,,,,,,,,,,,,,,,,,,,,,,,,,,1088.4593861997128,1088.4593861997128,0.006238900125026703,0.09883010014891624,6.0,1.9268370000645518,,,,,,,,,,,,6833,Moral,2025-02-11_12h23.56.921,MoralCondition_v2,2022.2.5,30.01717582600342,
16,0,16,0,,,,,,,,,,,,,,,,,,,,,,,,,,,,,,,,,,,,,,,,,,,,,,,,,,,,,,,,,,,,,,,,1090.4261921998113,1090.4261921998113,0.0012869001366198063,0.09771309979259968,1.0,2.464275899808854,,,,,,6833,Moral,2025-02-11_12h23.56.921,MoralCondition_v2,2022.2.5,30.01717582600342,
17,0,17,0,0,0,0,0,,,,,,,,,,,,,,,,,,,,,,1092.9262024997734,0.0001431000418961048,0.09919580025598407,1098.942652899772,6.015767400152981,1099.1094868998043,1099.1094868998043,0.06902860011905432,0.1826069001108408,6.015746099874377,,1105.2094485000707,1105.2094485000707,1105.2094485000707,0.07320179976522923,0.182748899795115,1110.9092127000913,1111.1092917998321,6.0157698998227715,6.1157078999094665,1117.1092841997743,12.015768399927765,1117.2427348000929,1117.2427348000929,0.015644799917936325,0.11566409980878234,up,0.2263768999837339,1117.5092159998603,1.730024814605713e-05,0.0992768001742661,,1123.542759399861,1123.542759399861,0.02739469986408949,0.13259730022400618,1.0,1.873032399918884,,,,,,,1117.1925149997696,1117.1925149997696,,1105.1092702001333,1105.1092702001333,6833,Moral,2025-02-11_12h23.56.921,MoralCondition_v2,2022.2.5,30.01717582600342,
17,0,17,0,1,0,1,0,,,,,,,,,,,,,,,,,,,,,,,,,,,,,,,,,,,,,,,,,,,,,,,,,,,,,,1125.4423666000366,1125.4423666000366,0.009418699890375137,0.09724629996344447,2.0,2.0220174002461135,,,,,,,,,,,,6833,Moral,2025-02-11_12h23.56.921,MoralCondition_v2,2022.2.5,30.01717582600342,
17,0,17,0,2,0,2,0,,,,,,,,,,,,,,,,,,,,,,,,,,,,,,,,,,,,,,,,,,,,,,,,,,,,,,1127.525905000046,1127.525905000046,0.007942500058561563,0.1139495000243187,5.0,3.24060310004279,,,,,,,,,,,,6833,Moral,2025-02-11_12h23.56.921,MoralCondition_v2,2022.2.5,30.01717582600342,
17,0,17,0,3,0,3,0,,,,,,,,,,,,,,,,,,,,,,,,,,,,,,,,,,,,,,,,,,,,,,,,,,,,,,1130.7926095998846,1130.7926095998846,0.006605200003832579,0.09948349976912141,6.0,2.127122599631548,,,,,,,,,,,,6833,Moral,2025-02-11_12h23.56.921,MoralCondition_v2,2022.2.5,30.01717582600342,
17,0,17,0,4,0,4,0,,,,,,,,,,,,,,,,,,,,,,,,,,,,,,,,,,,,,,,,,,,,,,,,,,,,,,1132.9762741001323,1132.9762741001323,0.009565200190991163,0.11571220029145479,3.0,2.8073366000317037,,,,,,,,,,,,6833,Moral,2025-02-11_12h23.56.921,MoralCondition_v2,2022.2.5,30.01717582600342,
17,0,17,0,5,0,5,0,,,,,,,,,,,,,,,,,,,,,,,,,,,,,,,,,,,,,,,,,,,,,,,,,,,,,,1135.8092366000637,1135.8092366000637,0.007683899719268084,0.09909969987347722,3.0,4.125668999738991,,,,,,,,,,,,6833,Moral,2025-02-11_12h23.56.921,MoralCondition_v2,2022.2.5,30.01717582600342,
17,0,17,0,6,0,6,0,,,,,,,,,,,,,,,,,,,,,,,,,,,,,,,,,,,,,,,,,,,,,,,,,,,,,,1139.9757428001612,1139.9757428001612,0.008053699973970652,0.09743750002235174,1.0,1.5586995999328792,,,,,,,,,,,,6833,Moral,2025-02-11_12h23.56.921,MoralCondition_v2,2022.2.5,30.01717582600342,
17,0,17,0,,,,,,,,,,,,,,,,,,,,,,,,,,,,,,,,,,,,,,,,,,,,,,,,,,,,,,,,,,,,,,,,1141.575658499729,1141.575658499729,0.0011521996930241585,0.09815509989857674,6.0,1.8648563004098833,,,,,,6833,Moral,2025-02-11_12h23.56.921,MoralCondition_v2,2022.2.5,30.01717582600342,
18,0,18,0,0,0,0,0,,,,,,,,,,,,,,,,,,,,,,1143.4761271998286,0.00026539992541074753,0.09799059992656112,1149.4758989000693,6.031403600238264,1149.659039599821,1149.659039599821,0.06948120007291436,0.18120749993249774,6.014606600161642,,1155.7591387997381,1155.7591387997381,1155.7591387997381,0.07365710008889437,0.1813990999944508,1161.4590708999895,1161.659059099853,6.014566800091416,6.114520499948412,1167.6590521000326,12.014597699977458,1167.7923461999744,1167.7923461999744,0.014675799757242203,0.11448009964078665,down,0.21939999982714653,1168.059201899916,5.2199698984622955e-05,0.09767950000241399,1174.075596000068,1174.075596000068,1174.075596000068,0.010946499649435282,0.11429299972951412,6.0,3.004345300141722,,,,,,,1167.7590028000996,1167.7590028000996,,1155.658997300081,1155.658997300081,6833,Moral,2025-02-11_12h23.56.921,MoralCondition_v2,2022.2.5,30.01717582600342,
18,0,18,0,1,0,1,0,,,,,,,,,,,,,,,,,,,,,,,,,,,,,,,,,,,,,,,,,,,,,,,,,,,,,,1177.1090299999341,1177.1090299999341,0.008333399891853333,0.09743239963427186,5.0,1.9901175000704825,,,,,,,,,,,,6833,Moral,2025-02-11_12h23.56.921,MoralCondition_v2,2022.2.5,30.01717582600342,
18,0,18,0,2,0,2,0,,,,,,,,,,,,,,,,,,,,,,,,,,,,,,,,,,,,,,,,,,,,,,,,,,,,,,1179.1422116998583,1179.1422116998583,0.007260999642312527,0.0979313999414444,5.0,2.8252441002987325,,,,,,,,,,,,6833,Moral,2025-02-11_12h23.56.921,MoralCondition_v2,2022.2.5,30.01717582600342,
18,0,18,0,3,0,3,0,,,,,,,,,,,,,,,,,,,,,,,,,,,,,,,,,,,,,,,,,,,,,,,,,,,,,,1182.0088609000668,1182.0088609000668,0.008923100307583809,0.09911520034074783,5.0,4.657847400289029,,,,,,,,,,,,6833,Moral,2025-02-11_12h23.56.921,MoralCondition_v2,2022.2.5,30.01717582600342,
18,0,18,0,4,0,4,0,,,,,,,,,,,,,,,,,,,,,,,,,,,,,,,,,,,,,,,,,,,,,,,,,,,,,,1186.7089522001334,1186.7089522001334,0.006772399879992008,0.09917999990284443,2.0,1.6280857999809086,,,,,,,,,,,,6833,Moral,2025-02-11_12h23.56.921,MoralCondition_v2,2022.2.5,30.01717582600342,
18,0,18,0,5,0,5,0,,,,,,,,,,,,,,,,,,,,,,,,,,,,,,,,,,,,,,,,,,,,,,,,,,,,,,1188.3756642998196,1188.3756642998196,0.007559900172054768,0.09813999990001321,5.0,1.991777699906379,,,,,,,,,,,,6833,Moral,2025-02-11_12h23.56.921,MoralCondition_v2,2022.2.5,30.01717582600342,
18,0,18,0,6,0,6,0,,,,,,,,,,,,,,,,,,,,,,,,,,,,,,,,,,,,,,,,,,,,,,,,,,,,,,1190.425557800103,1190.425557800103,0.010968300048261881,0.11486690025776625,2.0,3.371891299728304,,,,,,,,,,,,6833,Moral,2025-02-11_12h23.56.921,MoralCondition_v2,2022.2.5,30.01717582600342,
18,0,18,0,,,,,,,,,,,,,,,,,,,,,,,,,,,,,,,,,,,,,,,,,,,,,,,,,,,,,,,,,,,,,,,,1193.8255062000826,1193.8255062000826,0.0006870999932289124,0.09923719987273216,2.0,2.833078000228852,,,,,,6833,Moral,2025-02-11_12h23.56.921,MoralCondition_v2,2022.2.5,30.01717582600342,
19,0,19,0,0,0,0,0,,,,,,,,,,,,,,,,,,,,,,1196.6923548998311,0.00025349995121359825,0.09823670005425811,1202.6922035999596,6.031575700268149,1202.8924038000405,1202.8924038000405,0.09330759989097714,0.19837650004774332,6.031466300133616,,1208.9921413999982,1208.9921413999982,1208.9921413999982,0.09126369981095195,0.19833379983901978,1214.6921258997172,1214.8921194998547,6.031514099799097,6.131473199930042,1220.8922334997915,12.031607799697667,1221.0254405001178,1221.0254405001178,0.03163009975105524,0.13144349958747625,down,0.9697356000542641,1222.0587691999972,4.989979788661003e-05,0.09786459989845753,1228.0755250998773,1228.0755250998773,1228.0755250998773,0.009095799643546343,0.11466659978032112,5.0,2.406353599857539,,,,,,,1220.9920739997178,1220.9920739997178,,1208.8921614000574,1208.8921614000574,6833,Moral,2025-02-11_12h23.56.921,MoralCondition_v2,2022.2.5,30.01717582600342,
19,0,19,0,1,0,1,0,,,,,,,,,,,,,,,,,,,,,,,,,,,,,,,,,,,,,,,,,,,,,,,,,,,,,,1230.5086789997295,1230.5086789997295,0.007540099788457155,0.09766880003735423,6.0,2.557686099782586,,,,,,,,,,,,6833,Moral,2025-02-11_12h23.56.921,MoralCondition_v2,2022.2.5,30.01717582600342,
19,0,19,0,2,0,2,0,,,,,,,,,,,,,,,,,,,,,,,,,,,,,,,,,,,,,,,,,,,,,,,,,,,,,,1233.108586799819,1233.108586799819,0.007191000040620565,0.09752810001373291,5.0,3.458172199781984,,,,,,,,,,,,6833,Moral,2025-02-11_12h23.56.921,MoralCondition_v2,2022.2.5,30.01717582600342,
19,0,19,0,3,0,3,0,,,,,,,,,,,,,,,,,,,,,,,,,,,,,,,,,,,,,,,,,,,,,,,,,,,,,,1236.625543499831,1236.625543499831,0.007799800019711256,0.11452730000019073,3.0,1.5409253002144396,,,,,,,,,,,,6833,Moral,2025-02-11_12h23.56.921,MoralCondition_v2,2022.2.5,30.01717582600342,
19,0,19,0,4,0,4,0,,,,,,,,,,,,,,,,,,,,,,,,,,,,,,,,,,,,,,,,,,,,,,,,,,,,,,1238.1920671998523,1238.1920671998523,0.006491099949926138,0.09921899996697903,3.0,3.2938793003559113,,,,,,,,,,,,6833,Moral,2025-02-11_12h23.56.921,MoralCondition_v2,2022.2.5,30.01717582600342,
19,0,19,0,5,0,5,0,,,,,,,,,,,,,,,,,,,,,,,,,,,,,,,,,,,,,,,,,,,,,,,,,,,,,,1241.5251783998683,1241.5251783998683,0.006931200157850981,0.09946990013122559,1.0,4.360079100355506,,,,,,,,,,,,6833,Moral,2025-02-11_12h23.56.921,MoralCondition_v2,2022.2.5,30.01717582600342,
19,0,19,0,6,0,6,0,,,,,,,,,,,,,,,,,,,,,,,,,,,,,,,,,,,,,,,,,,,,,,,,,,,,,,1245.9422535998747,1245.9422535998747,0.008437899872660637,0.11423909990116954,6.0,1.9401161996647716,,,,,,,,,,,,6833,Moral,2025-02-11_12h23.56.921,MoralCondition_v2,2022.2.5,30.01717582600342,
19,0,19,0,,,,,,,,,,,,,,,,,,,,,,,,,,,,,,,,,,,,,,,,,,,,,,,,,,,,,,,,,,,,,,,,1247.9085665000603,1247.9085665000603,0.0004942999221384525,0.09939910005778074,2.0,3.8334071999415755,,,,,,6833,Moral,2025-02-11_12h23.56.921,MoralCondition_v2,2022.2.5,30.01717582600342,
