loop.thisRepN,loop.thisTrialN,loop.thisN,loop.thisIndex,evaluate_all_emotions.thisRepN,evaluate_all_emotions.thisTrialN,evaluate_all_emotions.thisN,evaluate_all_emotions.thisIndex,sync_beep_1.started,p_port.started,p_port.stopped,sync_beep_1.stopped,sync_beep_2.started,sync_beep_2.stopped,sync_beep_3.started,sync_beep_3.stopped,sync_beep_4.started,baseline.started,p_port_2.started,p_port_2.stopped,baseline.stopped,p_port_3.started,Game_Start_Text.started,p_port_4.started,p_port_4.stopped,key_resp.started,key_resp.keys,key_resp.rt,fixation_cross.started,p_port_5.started,p_port_5.stopped,fixation_cross.stopped,p_port_6.started,player_image_intro.started,player_name_intro.started,p_port_7.started,p_port_7.stopped,p_port_8.started,player_image_offer.started,player_name_offer.started,proposed_split.started,p_port_9.started,p_port_9.stopped,proposed_split.stopped,accept_reject.started,p_port_15.started,p_port_15.stopped,accept_reject.stopped,p_port_10.started,arrow_instructions.started,offer_choice.started,p_port_11.started,p_port_11.stopped,offer_choice.keys,offer_choice.rt,Instructions_Affinity_Score.started,p_port_12.started,p_port_12.stopped,Instructions_Affinity_Score.stopped,Emotion_Image.started,AffinityScore.started,p_port_13.started,p_port_13.stopped,AffinityScore.response,AffinityScore.rt,Instruction.started,Moral_Disgust_Score.started,p_port_14.started,p_port_14.stopped,Moral_Disgust_Score.response,Moral_Disgust_Score.rt,player_image_offer.stopped,player_name_offer.stopped,p_port_6.stopped,player_image_intro.stopped,player_name_intro.stopped,p_port_8.stopped,p_port_10.stopped,participant,session,date,expName,psychopyVersion,frameRate,
,,,,,,,,18.145497039426118,0.0008656000718474388,0.11659190012142062,18.46240619989112,18.712350479792804,19.01230249973014,19.329045679885894,19.645921799819916,19.912358379922807,20.24564869981259,0.0026477999053895473,0.10003309976309538,35.24573879968375,15.000019299797714,35.3457185998559,0.00018399953842163086,0.10012219985947013,35.81239689979702,space,9.361552900169045,,,,,,,,,,,,,,,,,,,,,,,,,,,,,,,,,,,,,,,,,,,,,,,,,,,7150,Moral,2024-10-18_11h05.31.894,MoralCondition_v2,2022.2.5,29.975551935142008,
0,0,0,0,0,0,0,0,,,,,,,,,,,,,,,,,,,,,45.22905460000038,0.017291299998760223,0.11496959999203682,51.22907130001113,6.014973999932408,51.545708399731666,51.545708399731666,0.19607080006971955,0.3320297999307513,6.03161760000512,57.54571929993108,57.54571929993108,57.54571929993108,0.09583280002698302,0.23160179983824492,63.245455499738455,63.41236720001325,6.031715900171548,6.131611099932343,69.41236720001325,12.031621300149709,69.54569040006027,69.54569040006027,0.03190260007977486,0.13155769975855947,down,2.0281974002718925,71.61237879982218,4.8199668526649475e-05,0.09589549992233515,77.62950229970738,77.62950229970738,77.62950229970738,0.014920099638402462,0.1123454999178648,1.0,5.332252100110054,,,,,,,,,,,,,,7150,Moral,2024-10-18_11h05.31.894,MoralCondition_v2,2022.2.5,29.975551935142008,
0,0,0,0,1,0,1,0,,,,,,,,,,,,,,,,,,,,,,,,,,,,,,,,,,,,,,,,,,,,,,,,,,,,83.01250940002501,83.01250940002501,0.010970900300890207,0.11410280037671328,4.0,3.9042027997784317,,,,,,,,,,,,,,7150,Moral,2024-10-18_11h05.31.894,MoralCondition_v2,2022.2.5,29.975551935142008,
0,0,0,0,2,0,2,0,,,,,,,,,,,,,,,,,,,,,,,,,,,,,,,,,,,,,,,,,,,,,,,,,,,,86.96266099996865,86.96266099996865,0.01147699961438775,0.11409519985318184,1.0,2.7037969999946654,,,,,,,,,,,,,,7150,Moral,2024-10-18_11h05.31.894,MoralCondition_v2,2022.2.5,29.975551935142008,
0,0,0,0,3,0,3,0,,,,,,,,,,,,,,,,,,,,,,,,,,,,,,,,,,,,,,,,,,,,,,,,,,,,89.69575059972703,89.69575059972703,0.010039899963885546,0.09778769966214895,1.0,1.9554085000418127,,,,,,,,,,,,,,7150,Moral,2024-10-18_11h05.31.894,MoralCondition_v2,2022.2.5,29.975551935142008,
0,0,0,0,4,0,4,0,,,,,,,,,,,,,,,,,,,,,,,,,,,,,,,,,,,,,,,,,,,,,,,,,,,,91.6956269997172,91.6956269997172,0.01017000013962388,0.09764009993523359,1.0,1.5217033000662923,,,,,,,,,,,,,,7150,Moral,2024-10-18_11h05.31.894,MoralCondition_v2,2022.2.5,29.975551935142008,
0,0,0,0,5,0,5,0,,,,,,,,,,,,,,,,,,,,,,,,,,,,,,,,,,,,,,,,,,,,,,,,,,,,93.26229419978335,93.26229419978335,0.007664000149816275,0.09915899997577071,1.0,1.0259684999473393,,,,,,,,,,,,,,7150,Moral,2024-10-18_11h05.31.894,MoralCondition_v2,2022.2.5,29.975551935142008,
0,0,0,0,6,0,6,0,,,,,,,,,,,,,,,,,,,,,,,,,,,,,,,,,,,,,,,,,,,,,,,,,,,,94.32903439970687,94.32903439970687,0.008670900017023087,0.0993278999812901,1.0,0.7583307004533708,,,,,,,,,,,,,,7150,Moral,2024-10-18_11h05.31.894,MoralCondition_v2,2022.2.5,29.975551935142008,
0,0,0,0,,,,,,,,,,,,,,,,,,,,,,,,,,,,,,,,,,,,,,,,,,,,,,,,,,,,,,,,,,,,,,95.12923120008782,95.12923120008782,0.0007744999602437019,0.09921739995479584,4.0,6.066268800292164,,,,,,,,7150,Moral,2024-10-18_11h05.31.894,MoralCondition_v2,2022.2.5,29.975551935142008,
1,0,1,0,0,0,0,0,,,,,,,,,,,,,,,,,,,,,101.2293214998208,0.00028689997270703316,0.0977859003469348,107.22910219989717,6.031048899982125,107.47905649989843,107.47905649989843,0.14223150024190545,0.24822410009801388,6.014333100058138,113.52925999974832,113.52925999974832,113.52925999974832,0.09003240009769797,0.19795179972425103,119.22907239990309,119.42906039999798,6.031024899799377,6.130957799963653,125.42908609984443,12.031062699854374,125.56242589978501,125.56242589978501,0.03133299993351102,0.13100839965045452,down,1.803175600245595,127.41244219988585,4.2300205677747726e-05,0.0978081002831459,133.41270889993757,133.41270889993757,133.41270889993757,0.009222500026226044,0.09737540036439896,1.0,3.555986300110817,,,,,,,125.52919670008123,125.52919670008123,,,,,,7150,Moral,2024-10-18_11h05.31.894,MoralCondition_v2,2022.2.5,29.975551935142008,
1,0,1,0,1,0,1,0,,,,,,,,,,,,,,,,,,,,,,,,,,,,,,,,,,,,,,,,,,,,,,,,,,,,137.01241560000926,137.01241560000926,0.006981199607253075,0.09809019975364208,1.0,1.4590622000396252,,,,,,,,,,,,,,7150,Moral,2024-10-18_11h05.31.894,MoralCondition_v2,2022.2.5,29.975551935142008,
1,0,1,0,2,0,2,0,,,,,,,,,,,,,,,,,,,,,,,,,,,,,,,,,,,,,,,,,,,,,,,,,,,,138.5124035999179,138.5124035999179,0.006942899897694588,0.09830600023269653,1.0,1.4254796002060175,,,,,,,,,,,,,,7150,Moral,2024-10-18_11h05.31.894,MoralCondition_v2,2022.2.5,29.975551935142008,
1,0,1,0,3,0,3,0,,,,,,,,,,,,,,,,,,,,,,,,,,,,,,,,,,,,,,,,,,,,,,,,,,,,139.9791739997454,139.9791739997454,0.00681010028347373,0.09916450036689639,1.0,1.7933343001641333,,,,,,,,,,,,,,7150,Moral,2024-10-18_11h05.31.894,MoralCondition_v2,2022.2.5,29.975551935142008,
1,0,1,0,4,0,4,0,,,,,,,,,,,,,,,,,,,,,,,,,,,,,,,,,,,,,,,,,,,,,,,,,,,,141.81240249983966,141.81240249983966,0.0072592999786138535,0.09791040001437068,1.0,0.8584181000478566,,,,,,,,,,,,,,7150,Moral,2024-10-18_11h05.31.894,MoralCondition_v2,2022.2.5,29.975551935142008,
1,0,1,0,5,0,5,0,,,,,,,,,,,,,,,,,,,,,,,,,,,,,,,,,,,,,,,,,,,,,,,,,,,,142.71233499981463,142.71233499981463,0.007416199892759323,0.09797709994018078,4.0,2.8248380003497005,,,,,,,,,,,,,,7150,Moral,2024-10-18_11h05.31.894,MoralCondition_v2,2022.2.5,29.975551935142008,
1,0,1,0,6,0,6,0,,,,,,,,,,,,,,,,,,,,,,,,,,,,,,,,,,,,,,,,,,,,,,,,,,,,145.57899949979037,145.57899949979037,0.007631499785929918,0.09771530004218221,1.0,1.7577665001153946,,,,,,,,,,,,,,7150,Moral,2024-10-18_11h05.31.894,MoralCondition_v2,2022.2.5,29.975551935142008,
1,0,1,0,,,,,,,,,,,,,,,,,,,,,,,,,,,,,,,,,,,,,,,,,,,,,,,,,,,,,,,,,,,,,,147.37907079979777,147.37907079979777,0.000725800171494484,0.09921659994870424,4.0,5.19971329998225,,,,,,,,7150,Moral,2024-10-18_11h05.31.894,MoralCondition_v2,2022.2.5,29.975551935142008,
2,0,2,0,0,0,0,0,,,,,,,,,,,,,,,,,,,,,152.61248679971322,0.0003933999687433243,0.09782749973237514,158.59559859987348,6.0140247996896505,158.89579209964722,158.89579209964722,0.16174499969929457,0.28086249995976686,6.014274399727583,164.91234889999032,164.91234889999032,164.91234889999032,0.10234579956158996,0.1975813996978104,170.6124914996326,170.81243290007114,6.030955899506807,6.1309170997701585,176.81249050004408,12.03107909951359,176.9457946997136,176.9457946997136,0.03110979963093996,0.13105229940265417,up,1.363790700212121,178.34585159970447,5.159992724657059e-05,0.097424800042063,184.362414999865,184.362414999865,184.362414999865,0.009846500121057034,0.11414390010759234,1.0,2.505788099952042,,,,,,,176.9124373998493,176.9124373998493,,,,,,7150,Moral,2024-10-18_11h05.31.894,MoralCondition_v2,2022.2.5,29.975551935142008,
2,0,2,0,1,0,1,0,,,,,,,,,,,,,,,,,,,,,,,,,,,,,,,,,,,,,,,,,,,,,,,,,,,,186.91253129998222,186.91253129998222,0.010056400205940008,0.11452710023149848,4.0,2.7721043997444212,,,,,,,,,,,,,,7150,Moral,2024-10-18_11h05.31.894,MoralCondition_v2,2022.2.5,29.975551935142008,
2,0,2,0,2,0,2,0,,,,,,,,,,,,,,,,,,,,,,,,,,,,,,,,,,,,,,,,,,,,,,,,,,,,189.71240289974958,189.71240289974958,0.007009000051766634,0.09912419971078634,1.0,1.6932455003261566,,,,,,,,,,,,,,7150,Moral,2024-10-18_11h05.31.894,MoralCondition_v2,2022.2.5,29.975551935142008,
2,0,2,0,3,0,3,0,,,,,,,,,,,,,,,,,,,,,,,,,,,,,,,,,,,,,,,,,,,,,,,,,,,,191.44582160003483,191.44582160003483,0.00674330024048686,0.09895560005679727,1.0,1.826976400334388,,,,,,,,,,,,,,7150,Moral,2024-10-18_11h05.31.894,MoralCondition_v2,2022.2.5,29.975551935142008,
2,0,2,0,4,0,4,0,,,,,,,,,,,,,,,,,,,,,,,,,,,,,,,,,,,,,,,,,,,,,,,,,,,,193.31239249976352,193.31239249976352,0.00691380025818944,0.09912300016731024,1.0,1.926633999682963,,,,,,,,,,,,,,7150,Moral,2024-10-18_11h05.31.894,MoralCondition_v2,2022.2.5,29.975551935142008,
2,0,2,0,5,0,5,0,,,,,,,,,,,,,,,,,,,,,,,,,,,,,,,,,,,,,,,,,,,,,,,,,,,,195.27917389990762,195.27917389990762,0.00736460043117404,0.09764020005241036,1.0,1.991186199709773,,,,,,,,,,,,,,7150,Moral,2024-10-18_11h05.31.894,MoralCondition_v2,2022.2.5,29.975551935142008,
2,0,2,0,6,0,6,0,,,,,,,,,,,,,,,,,,,,,,,,,,,,,,,,,,,,,,,,,,,,,,,,,,,,197.31252279970795,197.31252279970795,0.006009299773722887,0.09878259990364313,1.0,0.827165599912405,,,,,,,,,,,,,,7150,Moral,2024-10-18_11h05.31.894,MoralCondition_v2,2022.2.5,29.975551935142008,
2,0,2,0,,,,,,,,,,,,,,,,,,,,,,,,,,,,,,,,,,,,,,,,,,,,,,,,,,,,,,,,,,,,,,198.17912589991465,198.17912589991465,0.0007345997728407383,0.09913259977474809,4.0,3.499543299898505,,,,,,,,7150,Moral,2024-10-18_11h05.31.894,MoralCondition_v2,2022.2.5,29.975551935142008,
3,0,3,0,0,0,0,0,,,,,,,,,,,,,,,,,,,,,201.7126879999414,0.0001583998091518879,0.09900490008294582,207.71265839971602,5.999192199669778,207.8790171998553,207.8790171998553,0.058784499764442444,0.16612059995532036,5.999203099869192,213.97904969984666,213.97904969984666,213.97904969984666,0.051781199872493744,0.166090099606663,219.67915629968047,219.87918929988518,5.99925659969449,6.0991636998951435,225.87913700006902,11.999197299592197,226.01249630004168,226.01249630004168,0.0001651993952691555,0.09928399976342916,up,0.8087108000181615,226.86250639986247,4.880037158727646e-05,0.09774590004235506,,232.8791477996856,232.8791477996856,0.02550500025972724,0.11426480021327734,1.0,2.4566273000091314,,,,,,,225.97916659992188,225.97916659992188,6.099084499757737,213.87928379978985,213.87928379978985,6.099294199608266,12.09927269956097,7150,Moral,2024-10-18_11h05.31.894,MoralCondition_v2,2022.2.5,29.975551935142008,
3,0,3,0,1,0,1,0,,,,,,,,,,,,,,,,,,,,,,,,,,,,,,,,,,,,,,,,,,,,,,,,,,,,235.37910709995776,235.37910709995776,0.00771210016682744,0.09917780011892319,4.0,2.3258977998048067,,,,,,,,,,,,,,7150,Moral,2024-10-18_11h05.31.894,MoralCondition_v2,2022.2.5,29.975551935142008,
3,0,3,0,2,0,2,0,,,,,,,,,,,,,,,,,,,,,,,,,,,,,,,,,,,,,,,,,,,,,,,,,,,,237.7458532997407,237.7458532997407,0.007026600185781717,0.09928660001605749,1.0,1.5602302001789212,,,,,,,,,,,,,,7150,Moral,2024-10-18_11h05.31.894,MoralCondition_v2,2022.2.5,29.975551935142008,
3,0,3,0,3,0,3,0,,,,,,,,,,,,,,,,,,,,,,,,,,,,,,,,,,,,,,,,,,,,,,,,,,,,239.34612279990688,239.34612279990688,0.0078596998937428,0.09741249959915876,1.0,0.5574059998616576,,,,,,,,,,,,,,7150,Moral,2024-10-18_11h05.31.894,MoralCondition_v2,2022.2.5,29.975551935142008,
3,0,3,0,4,0,4,0,,,,,,,,,,,,,,,,,,,,,,,,,,,,,,,,,,,,,,,,,,,,,,,,,,,,239.94584239972755,239.94584239972755,0.0070223999209702015,0.09799049980938435,1.0,0.7250840999186039,,,,,,,,,,,,,,7150,Moral,2024-10-18_11h05.31.894,MoralCondition_v2,2022.2.5,29.975551935142008,
3,0,3,0,5,0,5,0,,,,,,,,,,,,,,,,,,,,,,,,,,,,,,,,,,,,,,,,,,,,,,,,,,,,240.71236309967935,240.71236309967935,0.006980800069868565,0.09681029990315437,1.0,0.7242804998531938,,,,,,,,,,,,,,7150,Moral,2024-10-18_11h05.31.894,MoralCondition_v2,2022.2.5,29.975551935142008,
3,0,3,0,6,0,6,0,,,,,,,,,,,,,,,,,,,,,,,,,,,,,,,,,,,,,,,,,,,,,,,,,,,,241.47929439973086,241.47929439973086,0.007156800013035536,0.09781510010361671,1.0,0.9584149997681379,,,,,,,,,,,,,,7150,Moral,2024-10-18_11h05.31.894,MoralCondition_v2,2022.2.5,29.975551935142008,
3,0,3,0,,,,,,,,,,,,,,,,,,,,,,,,,,,,,,,,,,,,,,,,,,,,,,,,,,,,,,,,,,,,,,242.47911980003119,242.47911980003119,0.0007380000315606594,0.09905350022017956,4.0,1.9996730000711977,,,,,,,,7150,Moral,2024-10-18_11h05.31.894,MoralCondition_v2,2022.2.5,29.975551935142008,
4,0,4,0,0,0,0,0,,,,,,,,,,,,,,,,,,,,,244.51264699967578,0.00028609996661543846,0.09777650004252791,250.51254059979692,6.031155999749899,250.71239539980888,250.71239539980888,0.09864619979634881,0.19772409973666072,6.0311461999081075,256.81249619973823,256.81249619973823,256.81249619973823,0.08484779950231314,0.1979296999052167,262.51265450008214,262.7125204000622,6.031112399883568,6.131086099892855,268.7125826999545,12.031174299772829,268.84583760006353,268.84583760006353,0.031239399686455727,0.13175079971551895,up,0.9837029003538191,269.8625093996525,4.959991201758385e-05,0.09727989975363016,,275.87909099971876,275.87909099971876,0.026067599654197693,0.11395999975502491,1.0,2.755379000212997,,,,,,,268.8125052996911,268.8125052996911,,256.7125003999099,256.7125003999099,,,7150,Moral,2024-10-18_11h05.31.894,MoralCondition_v2,2022.2.5,29.975551935142008,
4,0,4,0,1,0,1,0,,,,,,,,,,,,,,,,,,,,,,,,,,,,,,,,,,,,,,,,,,,,,,,,,,,,278.6791469999589,278.6791469999589,0.006329800002276897,0.09877290017902851,1.0,0.6934719998389482,,,,,,,,,,,,,,7150,Moral,2024-10-18_11h05.31.894,MoralCondition_v2,2022.2.5,29.975551935142008,
4,0,4,0,2,0,2,0,,,,,,,,,,,,,,,,,,,,,,,,,,,,,,,,,,,,,,,,,,,,,,,,,,,,279.41260769963264,279.41260769963264,0.008005400188267231,0.09763680025935173,1.0,0.6572345001623034,,,,,,,,,,,,,,7150,Moral,2024-10-18_11h05.31.894,MoralCondition_v2,2022.2.5,29.975551935142008,
4,0,4,0,3,0,3,0,,,,,,,,,,,,,,,,,,,,,,,,,,,,,,,,,,,,,,,,,,,,,,,,,,,,280.1126745999791,280.1126745999791,0.007538700010627508,0.09788369992747903,1.0,1.4244980998337269,,,,,,,,,,,,,,7150,Moral,2024-10-18_11h05.31.894,MoralCondition_v2,2022.2.5,29.975551935142008,
4,0,4,0,4,0,4,0,,,,,,,,,,,,,,,,,,,,,,,,,,,,,,,,,,,,,,,,,,,,,,,,,,,,281.57903809985146,281.57903809985146,0.006540399976074696,0.09939900040626526,4.0,1.4936339003033936,,,,,,,,,,,,,,7150,Moral,2024-10-18_11h05.31.894,MoralCondition_v2,2022.2.5,29.975551935142008,
4,0,4,0,5,0,5,0,,,,,,,,,,,,,,,,,,,,,,,,,,,,,,,,,,,,,,,,,,,,,,,,,,,,283.11238499963656,283.11238499963656,0.007537199649959803,0.09768630005419254,1.0,1.7912619998678565,,,,,,,,,,,,,,7150,Moral,2024-10-18_11h05.31.894,MoralCondition_v2,2022.2.5,29.975551935142008,
4,0,4,0,6,0,6,0,,,,,,,,,,,,,,,,,,,,,,,,,,,,,,,,,,,,,,,,,,,,,,,,,,,,284.9628025996499,284.9628025996499,0.007774500176310539,0.11435550032183528,1.0,1.5074620000086725,,,,,,,,,,,,,,7150,Moral,2024-10-18_11h05.31.894,MoralCondition_v2,2022.2.5,29.975551935142008,
4,0,4,0,,,,,,,,,,,,,,,,,,,,,,,,,,,,,,,,,,,,,,,,,,,,,,,,,,,,,,,,,,,,,,286.4956980999559,286.4956980999559,0.0015643998049199581,0.09719959972426295,4.0,2.0303051001392305,,,,,,,,7150,Moral,2024-10-18_11h05.31.894,MoralCondition_v2,2022.2.5,29.975551935142008,
5,0,5,0,0,0,0,0,,,,,,,,,,,,,,,,,,,,,288.5627564997412,0.00019930023699998856,0.09872179990634322,294.562713699881,6.032175099942833,294.7624919996597,294.7624919996597,0.09131370019167662,0.19857880007475615,6.031878900248557,300.86254159966484,300.86254159966484,300.86254159966484,0.0848560999147594,0.198826199863106,306.56255599996075,306.7625518999994,6.031932599842548,6.132022799924016,312.76253359997645,12.031911499798298,312.89583180006593,312.89583180006593,0.032113200053572655,0.13200700003653765,up,0.949558800086379,313.8791942000389,3.9400067180395126e-05,0.09776940010488033,319.8960966998711,319.8960966998711,319.8960966998711,0.00931889982894063,0.11451249988749623,1.0,2.5728329000994563,,,,,,,312.86252219974995,312.86252219974995,,300.7625241000205,300.7625241000205,,,7150,Moral,2024-10-18_11h05.31.894,MoralCondition_v2,2022.2.5,29.975551935142008,
5,0,5,0,1,0,1,0,,,,,,,,,,,,,,,,,,,,,,,,,,,,,,,,,,,,,,,,,,,,,,,,,,,,322.5127460998483,322.5127460998483,0.007564000319689512,0.11417790036648512,1.0,0.8074301001615822,,,,,,,,,,,,,,7150,Moral,2024-10-18_11h05.31.894,MoralCondition_v2,2022.2.5,29.975551935142008,
5,0,5,0,2,0,2,0,,,,,,,,,,,,,,,,,,,,,,,,,,,,,,,,,,,,,,,,,,,,,,,,,,,,323.3459557997994,323.3459557997994,0.007786300033330917,0.09809880005195737,1.0,0.5580020998604596,,,,,,,,,,,,,,7150,Moral,2024-10-18_11h05.31.894,MoralCondition_v2,2022.2.5,29.975551935142008,
5,0,5,0,3,0,3,0,,,,,,,,,,,,,,,,,,,,,,,,,,,,,,,,,,,,,,,,,,,,,,,,,,,,323.9461236996576,323.9461236996576,0.007538699544966221,0.09738289983943105,1.0,1.3579326001927257,,,,,,,,,,,,,,7150,Moral,2024-10-18_11h05.31.894,MoralCondition_v2,2022.2.5,29.975551935142008,
5,0,5,0,4,0,4,0,,,,,,,,,,,,,,,,,,,,,,,,,,,,,,,,,,,,,,,,,,,,,,,,,,,,325.3457287000492,325.3457287000492,0.006902599707245827,0.09907809970900416,1.0,0.6932705002836883,,,,,,,,,,,,,,7150,Moral,2024-10-18_11h05.31.894,MoralCondition_v2,2022.2.5,29.975551935142008,
5,0,5,0,5,0,5,0,,,,,,,,,,,,,,,,,,,,,,,,,,,,,,,,,,,,,,,,,,,,,,,,,,,,326.0791807998903,326.0791807998903,0.007039899937808514,0.09822120005264878,4.0,1.558842500206083,,,,,,,,,,,,,,7150,Moral,2024-10-18_11h05.31.894,MoralCondition_v2,2022.2.5,29.975551935142008,
5,0,5,0,6,0,6,0,,,,,,,,,,,,,,,,,,,,,,,,,,,,,,,,,,,,,,,,,,,,,,,,,,,,327.67916539963335,327.67916539963335,0.006473499815911055,0.0992206996306777,1.0,0.9602443999610841,,,,,,,,,,,,,,7150,Moral,2024-10-18_11h05.31.894,MoralCondition_v2,2022.2.5,29.975551935142008,
5,0,5,0,,,,,,,,,,,,,,,,,,,,,,,,,,,,,,,,,,,,,,,,,,,,,,,,,,,,,,,,,,,,,,328.679197399877,328.679197399877,0.0007947999984025955,0.09960160031914711,4.0,2.6329561001621187,,,,,,,,7150,Moral,2024-10-18_11h05.31.894,MoralCondition_v2,2022.2.5,29.975551935142008,
6,0,6,0,0,0,0,0,,,,,,,,,,,,,,,,,,,,,331.3460201998241,0.00013489974662661552,0.09925779979676008,337.3458711998537,5.999187799636275,337.5125082000159,337.5125082000159,0.06703529972583055,0.16616089968010783,5.999241799581796,343.6125567997806,343.6125567997806,343.6125567997806,0.054636099841445684,0.16620769957080483,349.31254329998046,349.51256789965555,5.999275199603289,6.099212099798024,355.5124293998815,11.99907309981063,355.64589249994606,355.64589249994606,0.00021479930728673935,0.09917339961975813,down,3.143752200063318,358.8292024997063,4.879990592598915e-05,0.09763990016654134,364.82935989974067,364.82935989974067,364.82935989974067,0.009222500026226044,0.09744960023090243,1.0,2.255981100257486,,,,,,,355.6126627996564,355.6126627996564,6.099082599859685,343.51255659991875,343.51255659991875,6.099273499567062,12.09938699984923,7150,Moral,2024-10-18_11h05.31.894,MoralCondition_v2,2022.2.5,29.975551935142008,
6,0,6,0,1,0,1,0,,,,,,,,,,,,,,,,,,,,,,,,,,,,,,,,,,,,,,,,,,,,,,,,,,,,367.1290533998981,367.1290533998981,0.007412699982523918,0.09787449985742569,4.0,2.091752199921757,,,,,,,,,,,,,,7150,Moral,2024-10-18_11h05.31.894,MoralCondition_v2,2022.2.5,29.975551935142008,
6,0,6,0,2,0,2,0,,,,,,,,,,,,,,,,,,,,,,,,,,,,,,,,,,,,,,,,,,,,,,,,,,,,369.26242240006104,369.26242240006104,0.007195999845862389,0.09787040017545223,1.0,0.9921364998444915,,,,,,,,,,,,,,7150,Moral,2024-10-18_11h05.31.894,MoralCondition_v2,2022.2.5,29.975551935142008,
6,0,6,0,3,0,3,0,,,,,,,,,,,,,,,,,,,,,,,,,,,,,,,,,,,,,,,,,,,,,,,,,,,,370.31288230000064,370.31288230000064,0.007876900024712086,0.11413670005276799,1.0,0.5073061999864876,,,,,,,,,,,,,,7150,Moral,2024-10-18_11h05.31.894,MoralCondition_v2,2022.2.5,29.975551935142008,
6,0,6,0,4,0,4,0,,,,,,,,,,,,,,,,,,,,,,,,,,,,,,,,,,,,,,,,,,,,,,,,,,,,370.8458908996545,370.8458908996545,0.00696370005607605,0.0980702000670135,1.0,0.6921316999942064,,,,,,,,,,,,,,7150,Moral,2024-10-18_11h05.31.894,MoralCondition_v2,2022.2.5,29.975551935142008,
6,0,6,0,5,0,5,0,,,,,,,,,,,,,,,,,,,,,,,,,,,,,,,,,,,,,,,,,,,,,,,,,,,,371.5791400000453,371.5791400000453,0.009376199916005135,0.09810939989984035,1.0,0.7563225999474525,,,,,,,,,,,,,,7150,Moral,2024-10-18_11h05.31.894,MoralCondition_v2,2022.2.5,29.975551935142008,
6,0,6,0,6,0,6,0,,,,,,,,,,,,,,,,,,,,,,,,,,,,,,,,,,,,,,,,,,,,,,,,,,,,372.3792260000482,372.3792260000482,0.008027200121432543,0.0976927001029253,1.0,0.9573526000604033,,,,,,,,,,,,,,7150,Moral,2024-10-18_11h05.31.894,MoralCondition_v2,2022.2.5,29.975551935142008,
6,0,6,0,,,,,,,,,,,,,,,,,,,,,,,,,,,,,,,,,,,,,,,,,,,,,,,,,,,,,,,,,,,,,,373.3793762996793,373.3793762996793,0.0007238998077809811,0.09932099981233478,4.0,2.8668184000998735,,,,,,,,7150,Moral,2024-10-18_11h05.31.894,MoralCondition_v2,2022.2.5,29.975551935142008,
7,0,7,0,0,0,0,0,,,,,,,,,,,,,,,,,,,,,376.2792877997272,0.000139700248837471,0.09908070042729378,382.27910849964246,6.015718700364232,382.4959118999541,382.4959118999541,0.11329880030825734,0.2159752999432385,6.015819600317627,388.57909169979393,388.57909169979393,388.57909169979393,0.09778109984472394,0.19913189997896552,394.27926849992946,394.4457678999752,5.999052099883556,6.0990766999311745,400.4458129997365,11.999037600122392,400.57922259997576,400.57922259997576,0.0001467997208237648,0.09894010005518794,down,1.6186808999627829,402.2460294999182,6.0599762946367264e-05,0.09764300007373095,408.2457702998072,408.2457702998072,408.2457702998072,0.010094199795275927,0.09767379984259605,1.0,2.6886291997507215,,,,,,,400.57922259997576,400.57922259997576,6.099014200270176,,,,12.099067499861121,7150,Moral,2024-10-18_11h05.31.894,MoralCondition_v2,2022.2.5,29.975551935142008,
7,0,7,0,1,0,1,0,,,,,,,,,,,,,,,,,,,,,,,,,,,,,,,,,,,,,,,,,,,,,,,,,,,,410.9792871000245,410.9792871000245,0.006611200049519539,0.0994351003319025,1.0,0.7270307997241616,,,,,,,,,,,,,,7150,Moral,2024-10-18_11h05.31.894,MoralCondition_v2,2022.2.5,29.975551935142008,
7,0,7,0,2,0,2,0,,,,,,,,,,,,,,,,,,,,,,,,,,,,,,,,,,,,,,,,,,,,,,,,,,,,411.7460121996701,411.7460121996701,0.006878900341689587,0.0991056002676487,1.0,0.6933985999785364,,,,,,,,,,,,,,7150,Moral,2024-10-18_11h05.31.894,MoralCondition_v2,2022.2.5,29.975551935142008,
7,0,7,0,3,0,3,0,,,,,,,,,,,,,,,,,,,,,,,,,,,,,,,,,,,,,,,,,,,,,,,,,,,,412.4961158996448,412.4961158996448,0.008605800103396177,0.1142060998827219,4.0,1.4733726000413299,,,,,,,,,,,,,,7150,Moral,2024-10-18_11h05.31.894,MoralCondition_v2,2022.2.5,29.975551935142008,
7,0,7,0,4,0,4,0,,,,,,,,,,,,,,,,,,,,,,,,,,,,,,,,,,,,,,,,,,,,,,,,,,,,413.99573779990897,413.99573779990897,0.008334700018167496,0.09932570019736886,1.0,1.2920420998707414,,,,,,,,,,,,,,7150,Moral,2024-10-18_11h05.31.894,MoralCondition_v2,2022.2.5,29.975551935142008,
7,0,7,0,5,0,5,0,,,,,,,,,,,,,,,,,,,,,,,,,,,,,,,,,,,,,,,,,,,,,,,,,,,,415.3290570997633,415.3290570997633,0.00742849987000227,0.09786880016326904,1.0,1.091420799959451,,,,,,,,,,,,,,7150,Moral,2024-10-18_11h05.31.894,MoralCondition_v2,2022.2.5,29.975551935142008,
7,0,7,0,6,0,6,0,,,,,,,,,,,,,,,,,,,,,,,,,,,,,,,,,,,,,,,,,,,,,,,,,,,,416.46256469981745,416.46256469981745,0.006988499779254198,0.09817110002040863,1.0,0.8587202001363039,,,,,,,,,,,,,,7150,Moral,2024-10-18_11h05.31.894,MoralCondition_v2,2022.2.5,29.975551935142008,
7,0,7,0,,,,,,,,,,,,,,,,,,,,,,,,,,,,,,,,,,,,,,,,,,,,,,,,,,,,,,,,,,,,,,417.3626794000156,417.3626794000156,0.0017500999383628368,0.09743520012125373,4.0,1.5305351000279188,,,,,,,,7150,Moral,2024-10-18_11h05.31.894,MoralCondition_v2,2022.2.5,29.975551935142008,
8,0,8,0,0,0,0,0,,,,,,,,,,,,,,,,,,,,,418.92941290000454,0.00013870000839233398,0.09954650001600385,424.9460020000115,6.015787600073963,425.1126899998635,425.1126899998635,0.08136780001223087,0.18258829973638058,6.015841099899262,431.212655399926,431.212655399926,431.212655399926,0.0755729996599257,0.18243109993636608,436.91253579966724,437.1126937000081,6.015969599597156,6.115769099909812,443.1125729996711,12.015861799940467,443.24586869962513,443.24586869962513,0.015972699504345655,0.11578069953247905,up,1.4476185999810696,444.7458836999722,4.4899992644786835e-05,0.09786069998517632,,450.76239349972457,450.76239349972457,0.024950199760496616,0.11480759968981147,1.0,2.2238908000290394,,,,,,,443.21253859996796,443.21253859996796,,431.11253979988396,431.11253979988396,,,7150,Moral,2024-10-18_11h05.31.894,MoralCondition_v2,2022.2.5,29.975551935142008,
8,0,8,0,1,0,1,0,,,,,,,,,,,,,,,,,,,,,,,,,,,,,,,,,,,,,,,,,,,,,,,,,,,,453.029129399918,453.029129399918,0.006965099833905697,0.09878059988841414,1.0,0.7928817998617887,,,,,,,,,,,,,,7150,Moral,2024-10-18_11h05.31.894,MoralCondition_v2,2022.2.5,29.975551935142008,
8,0,8,0,2,0,2,0,,,,,,,,,,,,,,,,,,,,,,,,,,,,,,,,,,,,,,,,,,,,,,,,,,,,453.86262519983575,453.86262519983575,0.008749800268560648,0.0976065001450479,1.0,0.6899112001992762,,,,,,,,,,,,,,7150,Moral,2024-10-18_11h05.31.894,MoralCondition_v2,2022.2.5,29.975551935142008,
8,0,8,0,3,0,3,0,,,,,,,,,,,,,,,,,,,,,,,,,,,,,,,,,,,,,,,,,,,,,,,,,,,,454.5958031998016,454.5958031998016,0.007263199891895056,0.0976034002378583,1.0,0.7916783997789025,,,,,,,,,,,,,,7150,Moral,2024-10-18_11h05.31.894,MoralCondition_v2,2022.2.5,29.975551935142008,
8,0,8,0,4,0,4,0,,,,,,,,,,,,,,,,,,,,,,,,,,,,,,,,,,,,,,,,,,,,,,,,,,,,455.42912449967116,455.42912449967116,0.0093728001229465,0.09946860000491142,1.0,0.7912785997614264,,,,,,,,,,,,,,7150,Moral,2024-10-18_11h05.31.894,MoralCondition_v2,2022.2.5,29.975551935142008,
8,0,8,0,5,0,5,0,,,,,,,,,,,,,,,,,,,,,,,,,,,,,,,,,,,,,,,,,,,,,,,,,,,,456.2624622997828,456.2624622997828,0.006714300252497196,0.09912599995732307,1.0,0.7601864002645016,,,,,,,,,,,,,,7150,Moral,2024-10-18_11h05.31.894,MoralCondition_v2,2022.2.5,29.975551935142008,
8,0,8,0,6,0,6,0,,,,,,,,,,,,,,,,,,,,,,,,,,,,,,,,,,,,,,,,,,,,,,,,,,,,457.0624592998065,457.0624592998065,0.006825500167906284,0.09908950002864003,4.0,1.2934145997278392,,,,,,,,,,,,,,7150,Moral,2024-10-18_11h05.31.894,MoralCondition_v2,2022.2.5,29.975551935142008,
8,0,8,0,,,,,,,,,,,,,,,,,,,,,,,,,,,,,,,,,,,,,,,,,,,,,,,,,,,,,,,,,,,,,,458.3960850997828,458.3960850997828,0.0016895998269319534,0.09783659968525171,4.0,1.5974281998351216,,,,,,,,7150,Moral,2024-10-18_11h05.31.894,MoralCondition_v2,2022.2.5,29.975551935142008,
9,0,9,0,0,0,0,0,,,,,,,,,,,,,,,,,,,,,460.02928919997066,0.00037850020453333855,0.09850559988990426,466.02919679973274,6.0318146999925375,466.21266249986365,466.21266249986365,0.07253909995779395,0.18197620008140802,6.0150668998248875,472.31254199985415,472.31254199985415,472.31254199985415,0.06751179974526167,0.1819173996336758,478.0125170997344,478.2124361996539,6.014942899812013,6.115061099641025,484.2126243999228,12.015196499880403,484.34611639985815,484.34611639985815,0.015540699940174818,0.11511309957131743,up,1.0510871005244553,485.4458288997412,5.570007488131523e-05,0.09806949971243739,491.46266789967194,491.46266789967194,491.46266789967194,0.010859099682420492,0.11464039981365204,1.0,2.2710540001280606,,,,,,,484.31282139988616,484.31282139988616,,472.19570579985157,472.19570579985157,,,7150,Moral,2024-10-18_11h05.31.894,MoralCondition_v2,2022.2.5,29.975551935142008,
9,0,9,0,1,0,1,0,,,,,,,,,,,,,,,,,,,,,,,,,,,,,,,,,,,,,,,,,,,,,,,,,,,,493.76252339966595,493.76252339966595,0.006111700087785721,0.09886590018868446,1.0,0.8271412998437881,,,,,,,,,,,,,,7150,Moral,2024-10-18_11h05.31.894,MoralCondition_v2,2022.2.5,29.975551935142008,
9,0,9,0,2,0,2,0,,,,,,,,,,,,,,,,,,,,,,,,,,,,,,,,,,,,,,,,,,,,,,,,,,,,494.6292685996741,494.6292685996741,0.007362700067460537,0.09874830022454262,1.0,0.5922989998944104,,,,,,,,,,,,,,7150,Moral,2024-10-18_11h05.31.894,MoralCondition_v2,2022.2.5,29.975551935142008,
9,0,9,0,3,0,3,0,,,,,,,,,,,,,,,,,,,,,,,,,,,,,,,,,,,,,,,,,,,,,,,,,,,,495.26273019984365,495.26273019984365,0.008230799809098244,0.09744939999654889,1.0,0.6569973002187908,,,,,,,,,,,,,,7150,Moral,2024-10-18_11h05.31.894,MoralCondition_v2,2022.2.5,29.975551935142008,
9,0,9,0,4,0,4,0,,,,,,,,,,,,,,,,,,,,,,,,,,,,,,,,,,,,,,,,,,,,,,,,,,,,495.9626118000597,495.9626118000597,0.005625699646770954,0.09934569988399744,4.0,1.3279404998756945,,,,,,,,,,,,,,7150,Moral,2024-10-18_11h05.31.894,MoralCondition_v2,2022.2.5,29.975551935142008,
9,0,9,0,5,0,5,0,,,,,,,,,,,,,,,,,,,,,,,,,,,,,,,,,,,,,,,,,,,,,,,,,,,,497.32901360001415,497.32901360001415,0.007384500000625849,0.0978015000000596,1.0,1.391370799858123,,,,,,,,,,,,,,7150,Moral,2024-10-18_11h05.31.894,MoralCondition_v2,2022.2.5,29.975551935142008,
9,0,9,0,6,0,6,0,,,,,,,,,,,,,,,,,,,,,,,,,,,,,,,,,,,,,,,,,,,,,,,,,,,,498.76268409984186,498.76268409984186,0.00711299991235137,0.09790090005844831,1.0,0.6585196000523865,,,,,,,,,,,,,,7150,Moral,2024-10-18_11h05.31.894,MoralCondition_v2,2022.2.5,29.975551935142008,
9,0,9,0,,,,,,,,,,,,,,,,,,,,,,,,,,,,,,,,,,,,,,,,,,,,,,,,,,,,,,,,,,,,,,499.46243579965085,499.46243579965085,0.0007315999828279018,0.09904590016230941,4.0,1.5997073999606073,,,,,,,,7150,Moral,2024-10-18_11h05.31.894,MoralCondition_v2,2022.2.5,29.975551935142008,
10,0,10,0,0,0,0,0,,,,,,,,,,,,,,,,,,,,,501.09611799987033,0.000328300055116415,0.09810650022700429,507.079025299754,6.0144958002492785,507.2625561999157,507.2625561999157,0.052992500364780426,0.16489440016448498,6.031382400076836,513.3959626997821,513.3959626997821,513.3959626997821,0.08676490001380444,0.19796170014888048,519.0958845997229,519.296066599898,6.031556600239128,6.131285300012678,525.2958987997845,12.031379499938339,525.4293807996437,525.4293807996437,0.03153289994224906,0.13144609984010458,down,0.8960981001146138,526.379168999847,4.269974306225777e-05,0.09794239979237318,532.3959637996741,532.3959637996741,532.3959637996741,0.009934499859809875,0.11467169970273972,1.0,1.8391718999482691,,,,,,,525.3959528999403,525.3959528999403,6.098008600063622,513.2625029999763,513.2625029999763,,,7150,Moral,2024-10-18_11h05.31.894,MoralCondition_v2,2022.2.5,29.975551935142008,
10,0,10,0,1,0,1,0,,,,,,,,,,,,,,,,,,,,,,,,,,,,,,,,,,,,,,,,,,,,,,,,,,,,534.2624271996319,534.2624271996319,0.006839000154286623,0.09905129997059703,1.0,0.49332060012966394,,,,,,,,,,,,,,7150,Moral,2024-10-18_11h05.31.894,MoralCondition_v2,2022.2.5,29.975551935142008,
10,0,10,0,2,0,2,0,,,,,,,,,,,,,,,,,,,,,,,,,,,,,,,,,,,,,,,,,,,,,,,,,,,,534.8127405997366,534.8127405997366,0.008347299881279469,0.11396909970790148,4.0,1.3399875997565687,,,,,,,,,,,,,,7150,Moral,2024-10-18_11h05.31.894,MoralCondition_v2,2022.2.5,29.975551935142008,
10,0,10,0,3,0,3,0,,,,,,,,,,,,,,,,,,,,,,,,,,,,,,,,,,,,,,,,,,,,,,,,,,,,536.1790738999844,536.1790738999844,0.0065552000887691975,0.09932060027495027,1.0,1.0603023003786802,,,,,,,,,,,,,,7150,Moral,2024-10-18_11h05.31.894,MoralCondition_v2,2022.2.5,29.975551935142008,
10,0,10,0,4,0,4,0,,,,,,,,,,,,,,,,,,,,,,,,,,,,,,,,,,,,,,,,,,,,,,,,,,,,537.2790426998399,537.2790426998399,0.00661169970408082,0.09874079981818795,1.0,0.4929818999953568,,,,,,,,,,,,,,7150,Moral,2024-10-18_11h05.31.894,MoralCondition_v2,2022.2.5,29.975551935142008,
10,0,10,0,5,0,5,0,,,,,,,,,,,,,,,,,,,,,,,,,,,,,,,,,,,,,,,,,,,,,,,,,,,,537.8124440996908,537.8124440996908,0.007897700183093548,0.09752159984782338,1.0,0.8239563996903598,,,,,,,,,,,,,,7150,Moral,2024-10-18_11h05.31.894,MoralCondition_v2,2022.2.5,29.975551935142008,
10,0,10,0,6,0,6,0,,,,,,,,,,,,,,,,,,,,,,,,,,,,,,,,,,,,,,,,,,,,,,,,,,,,538.6790125998668,538.6790125998668,0.008276800159364939,0.09910620003938675,1.0,0.6919573997147381,,,,,,,,,,,,,,7150,Moral,2024-10-18_11h05.31.894,MoralCondition_v2,2022.2.5,29.975551935142008,
10,0,10,0,,,,,,,,,,,,,,,,,,,,,,,,,,,,,,,,,,,,,,,,,,,,,,,,,,,,,,,,,,,,,,539.4127219999209,539.4127219999209,0.001743299886584282,0.09718600008636713,4.0,1.330010199919343,,,,,,,,7150,Moral,2024-10-18_11h05.31.894,MoralCondition_v2,2022.2.5,29.975551935142008,
11,0,11,0,0,0,0,0,,,,,,,,,,,,,,,,,,,,,540.7794333999045,0.0001379000023007393,0.09923200029879808,546.7791649997234,5.999286700040102,546.979217399843,546.979217399843,0.0852093999274075,0.19943469995632768,5.999231200199574,553.045866899658,553.045866899658,553.045866899658,0.06144709978252649,0.16581929987296462,558.7458180999383,558.9457944999449,5.999464000109583,6.099147600121796,564.9457859997638,11.999200500082225,565.0791198997758,565.0791198997758,2.310005947947502e-05,0.09918119991198182,up,0.5586751000955701,565.695750599727,1.4200340956449509e-05,0.09941410040482879,,571.7124453000724,571.7124453000724,0.02409300021827221,0.11613910039886832,4.0,2.0598124996758997,,,,,,,565.0457643000409,565.0457643000409,6.0991976000368595,553.045866899658,553.045866899658,6.099214000161737,12.099180299788713,7150,Moral,2024-10-18_11h05.31.894,MoralCondition_v2,2022.2.5,29.975551935142008,
11,0,11,0,1,0,1,0,,,,,,,,,,,,,,,,,,,,,,,,,,,,,,,,,,,,,,,,,,,,,,,,,,,,573.829311599955,573.829311599955,0.007939700037240982,0.11433540005236864,1.0,1.474151000380516,,,,,,,,,,,,,,7150,Moral,2024-10-18_11h05.31.894,MoralCondition_v2,2022.2.5,29.975551935142008,
11,0,11,0,2,0,2,0,,,,,,,,,,,,,,,,,,,,,,,,,,,,,,,,,,,,,,,,,,,,,,,,,,,,575.3292548996396,575.3292548996396,0.0064606997184455395,0.09908950002864003,1.0,0.6270138002000749,,,,,,,,,,,,,,7150,Moral,2024-10-18_11h05.31.894,MoralCondition_v2,2022.2.5,29.975551935142008,
11,0,11,0,3,0,3,0,,,,,,,,,,,,,,,,,,,,,,,,,,,,,,,,,,,,,,,,,,,,,,,,,,,,575.9959354000166,575.9959354000166,0.006409899797290564,0.09935839986428618,1.0,0.6270999000407755,,,,,,,,,,,,,,7150,Moral,2024-10-18_11h05.31.894,MoralCondition_v2,2022.2.5,29.975551935142008,
11,0,11,0,4,0,4,0,,,,,,,,,,,,,,,,,,,,,,,,,,,,,,,,,,,,,,,,,,,,,,,,,,,,576.6793216997758,576.6793216997758,0.00898500019684434,0.11425970029085875,1.0,0.573301600292325,,,,,,,,,,,,,,7150,Moral,2024-10-18_11h05.31.894,MoralCondition_v2,2022.2.5,29.975551935142008,
11,0,11,0,5,0,5,0,,,,,,,,,,,,,,,,,,,,,,,,,,,,,,,,,,,,,,,,,,,,,,,,,,,,577.2790751000866,577.2790751000866,0.0066374000161886215,0.09919130010530353,1.0,0.9268506001681089,,,,,,,,,,,,,,7150,Moral,2024-10-18_11h05.31.894,MoralCondition_v2,2022.2.5,29.975551935142008,
11,0,11,0,6,0,6,0,,,,,,,,,,,,,,,,,,,,,,,,,,,,,,,,,,,,,,,,,,,,,,,,,,,,578.2457662997767,578.2457662997767,0.007072300184518099,0.09945360012352467,1.0,1.793294900096953,,,,,,,,,,,,,,7150,Moral,2024-10-18_11h05.31.894,MoralCondition_v2,2022.2.5,29.975551935142008,
11,0,11,0,,,,,,,,,,,,,,,,,,,,,,,,,,,,,,,,,,,,,,,,,,,,,,,,,,,,,,,,,,,,,,580.0792715996504,580.0792715996504,0.0007349001243710518,0.09915729984641075,4.0,1.632840999867767,,,,,,,,7150,Moral,2024-10-18_11h05.31.894,MoralCondition_v2,2022.2.5,29.975551935142008,
12,0,12,0,0,0,0,0,,,,,,,,,,,,,,,,,,,,,581.7458996996284,0.00015990016981959343,0.09917620010674,587.7289774999954,5.999011000152677,587.8957040999085,587.8957040999085,0.047634999733418226,0.14934779983013868,6.015769700054079,594.0290389996953,594.0290389996953,594.0290389996953,0.07830139994621277,0.18267339980229735,599.7290650997311,599.9290895997547,6.015845799818635,6.115884299855679,605.9290649998002,12.015821899753064,606.0624013999477,606.0624013999477,0.015957399737089872,0.11577739985659719,up,0.9034494999796152,607.012397099752,4.110019654035568e-05,0.09803149988874793,613.0126164997928,613.0126164997928,613.0126164997928,0.008923899848014116,0.09815480001270771,1.0,2.0900493999943137,,,,,,,606.0290520000271,606.0290520000271,6.082417100202292,593.8957508997992,593.8957508997992,,,7150,Moral,2024-10-18_11h05.31.894,MoralCondition_v2,2022.2.5,29.975551935142008,
12,0,12,0,1,0,1,0,,,,,,,,,,,,,,,,,,,,,,,,,,,,,,,,,,,,,,,,,,,,,,,,,,,,615.1457245997153,615.1457245997153,0.006506199948489666,0.09941140003502369,1.0,0.6273146001622081,,,,,,,,,,,,,,7150,Moral,2024-10-18_11h05.31.894,MoralCondition_v2,2022.2.5,29.975551935142008,
12,0,12,0,2,0,2,0,,,,,,,,,,,,,,,,,,,,,,,,,,,,,,,,,,,,,,,,,,,,,,,,,,,,615.8126230998896,615.8126230998896,0.007426199968904257,0.09735330007970333,1.0,0.5243688998743892,,,,,,,,,,,,,,7150,Moral,2024-10-18_11h05.31.894,MoralCondition_v2,2022.2.5,29.975551935142008,
12,0,12,0,3,0,3,0,,,,,,,,,,,,,,,,,,,,,,,,,,,,,,,,,,,,,,,,,,,,,,,,,,,,616.3791618999094,616.3791618999094,0.00678620021790266,0.09927110001444817,1.0,0.6266473000869155,,,,,,,,,,,,,,7150,Moral,2024-10-18_11h05.31.894,MoralCondition_v2,2022.2.5,29.975551935142008,
12,0,12,0,4,0,4,0,,,,,,,,,,,,,,,,,,,,,,,,,,,,,,,,,,,,,,,,,,,,,,,,,,,,617.062556500081,617.062556500081,0.00834970036521554,0.1145321000367403,1.0,0.7071102000772953,,,,,,,,,,,,,,7150,Moral,2024-10-18_11h05.31.894,MoralCondition_v2,2022.2.5,29.975551935142008,
12,0,12,0,5,0,5,0,,,,,,,,,,,,,,,,,,,,,,,,,,,,,,,,,,,,,,,,,,,,,,,,,,,,617.795875699725,617.795875699725,0.007251400034874678,0.09751150012016296,1.0,0.7248096000403166,,,,,,,,,,,,,,7150,Moral,2024-10-18_11h05.31.894,MoralCondition_v2,2022.2.5,29.975551935142008,
12,0,12,0,6,0,6,0,,,,,,,,,,,,,,,,,,,,,,,,,,,,,,,,,,,,,,,,,,,,,,,,,,,,618.5622346000746,618.5622346000746,0.006767899729311466,0.0992639996111393,4.0,1.4936702996492386,,,,,,,,,,,,,,7150,Moral,2024-10-18_11h05.31.894,MoralCondition_v2,2022.2.5,29.975551935142008,
12,0,12,0,,,,,,,,,,,,,,,,,,,,,,,,,,,,,,,,,,,,,,,,,,,,,,,,,,,,,,,,,,,,,,620.0955913998187,620.0955913998187,0.0019759000279009342,0.0972169996239245,4.0,0.9630423001945019,,,,,,,,7150,Moral,2024-10-18_11h05.31.894,MoralCondition_v2,2022.2.5,29.975551935142008,
13,0,13,0,0,0,0,0,,,,,,,,,,,,,,,,,,,,,621.0959302997217,0.0002988995984196663,0.09743229998275638,627.0957424999215,6.030830899719149,627.2791653997265,627.2791653997265,0.0674691996537149,0.18076519947499037,6.01407039957121,633.3624056000262,633.3624056000262,633.3624056000262,0.06549419974908233,0.16409049974754453,639.0623587998562,639.295664999634,6.030773499514908,6.1307722995989025,645.2956607998349,12.030745899770409,645.4289985997602,645.4289985997602,0.030877799727022648,0.13068879954516888,down,1.1524483999237418,646.6456561996602,4.590023308992386e-05,0.09788630018010736,,652.678967599757,652.678967599757,0.026026600040495396,0.13121879985556006,1.0,2.406200499739498,,,,,,,645.3623130000196,645.3623130000196,,633.2790224999189,633.2790224999189,,,7150,Moral,2024-10-18_11h05.31.894,MoralCondition_v2,2022.2.5,29.975551935142008,
13,0,13,0,1,0,1,0,,,,,,,,,,,,,,,,,,,,,,,,,,,,,,,,,,,,,,,,,,,,,,,,,,,,655.1291417996399,655.1291417996399,0.007516000419855118,0.11401540040969849,1.0,0.5746177998371422,,,,,,,,,,,,,,7150,Moral,2024-10-18_11h05.31.894,MoralCondition_v2,2022.2.5,29.975551935142008,
13,0,13,0,2,0,2,0,,,,,,,,,,,,,,,,,,,,,,,,,,,,,,,,,,,,,,,,,,,,,,,,,,,,655.7290348000824,655.7290348000824,0.008935000281780958,0.09793440019711852,1.0,0.756906199734658,,,,,,,,,,,,,,7150,Moral,2024-10-18_11h05.31.894,MoralCondition_v2,2022.2.5,29.975551935142008,
13,0,13,0,3,0,3,0,,,,,,,,,,,,,,,,,,,,,,,,,,,,,,,,,,,,,,,,,,,,,,,,,,,,656.5290450998582,656.5290450998582,0.007741900160908699,0.09776310017332435,4.0,1.6911925999447703,,,,,,,,,,,,,,7150,Moral,2024-10-18_11h05.31.894,MoralCondition_v2,2022.2.5,29.975551935142008,
13,0,13,0,4,0,4,0,,,,,,,,,,,,,,,,,,,,,,,,,,,,,,,,,,,,,,,,,,,,,,,,,,,,658.2623017998412,658.2623017998412,0.007548999972641468,0.09782660007476807,1.0,1.1910338001325727,,,,,,,,,,,,,,7150,Moral,2024-10-18_11h05.31.894,MoralCondition_v2,2022.2.5,29.975551935142008,
13,0,13,0,5,0,5,0,,,,,,,,,,,,,,,,,,,,,,,,,,,,,,,,,,,,,,,,,,,,,,,,,,,,659.5124877998605,659.5124877998605,0.008529799990355968,0.11428009998053312,1.0,0.7064579003490508,,,,,,,,,,,,,,7150,Moral,2024-10-18_11h05.31.894,MoralCondition_v2,2022.2.5,29.975551935142008,
13,0,13,0,6,0,6,0,,,,,,,,,,,,,,,,,,,,,,,,,,,,,,,,,,,,,,,,,,,,,,,,,,,,660.2625309000723,660.2625309000723,0.0082676000893116,0.11453820019960403,1.0,1.0405783001333475,,,,,,,,,,,,,,7150,Moral,2024-10-18_11h05.31.894,MoralCondition_v2,2022.2.5,29.975551935142008,
13,0,13,0,,,,,,,,,,,,,,,,,,,,,,,,,,,,,,,,,,,,,,,,,,,,,,,,,,,,,,,,,,,,,,661.3290335000493,661.3290335000493,0.0014047999866306782,0.09801740013062954,4.0,1.3642839002422988,,,,,,,,7150,Moral,2024-10-18_11h05.31.894,MoralCondition_v2,2022.2.5,29.975551935142008,
14,0,14,0,0,0,0,0,,,,,,,,,,,,,,,,,,,,,662.7291308999993,0.0001471000723540783,0.09925400000065565,668.7456211997196,6.015850100200623,668.91237549996,668.91237549996,0.06924069998785853,0.18276749970391393,6.015791699755937,675.0123209999874,675.0123209999874,675.0123209999874,0.06883189966902137,0.1824715998955071,680.7122871996835,680.9122285996564,6.015806499868631,6.115823499858379,686.9122406998649,12.015828699804842,687.0456815999933,687.0456815999933,0.01612939964979887,0.1157648996450007,down,1.632523000240326,688.7122664996423,4.3999869376420975e-05,0.09756110003218055,694.7121954998001,694.7121954998001,694.7121954998001,0.009699000045657158,0.09750489983707666,1.0,1.4887226996943355,,,,,,,687.0123952999711,687.0123952999711,,674.9122358998284,674.9122358998284,,,7150,Moral,2024-10-18_11h05.31.894,MoralCondition_v2,2022.2.5,29.975551935142008,
14,0,14,0,1,0,1,0,,,,,,,,,,,,,,,,,,,,,,,,,,,,,,,,,,,,,,,,,,,,,,,,,,,,696.2454082998447,696.2454082998447,0.007603199686855078,0.09769550012424588,1.0,0.6911701001226902,,,,,,,,,,,,,,7150,Moral,2024-10-18_11h05.31.894,MoralCondition_v2,2022.2.5,29.975551935142008,
14,0,14,0,2,0,2,0,,,,,,,,,,,,,,,,,,,,,,,,,,,,,,,,,,,,,,,,,,,,,,,,,,,,696.9958122996613,696.9958122996613,0.007958199828863144,0.1141253998503089,1.0,0.7072028000839055,,,,,,,,,,,,,,7150,Moral,2024-10-18_11h05.31.894,MoralCondition_v2,2022.2.5,29.975551935142008,
14,0,14,0,3,0,3,0,,,,,,,,,,,,,,,,,,,,,,,,,,,,,,,,,,,,,,,,,,,,,,,,,,,,697.7290309998207,697.7290309998207,0.0067182001657783985,0.09914480010047555,1.0,0.7268024999648333,,,,,,,,,,,,,,7150,Moral,2024-10-18_11h05.31.894,MoralCondition_v2,2022.2.5,29.975551935142008,
14,0,14,0,4,0,4,0,,,,,,,,,,,,,,,,,,,,,,,,,,,,,,,,,,,,,,,,,,,,,,,,,,,,698.5123943998478,698.5123943998478,0.009404599666595459,0.11433309968560934,1.0,0.7389349997974932,,,,,,,,,,,,,,7150,Moral,2024-10-18_11h05.31.894,MoralCondition_v2,2022.2.5,29.975551935142008,
14,0,14,0,5,0,5,0,,,,,,,,,,,,,,,,,,,,,,,,,,,,,,,,,,,,,,,,,,,,,,,,,,,,699.278917899821,699.278917899821,0.0071881003677845,0.09805350005626678,4.0,1.3585295001976192,,,,,,,,,,,,,,7150,Moral,2024-10-18_11h05.31.894,MoralCondition_v2,2022.2.5,29.975551935142008,
14,0,14,0,6,0,6,0,,,,,,,,,,,,,,,,,,,,,,,,,,,,,,,,,,,,,,,,,,,,,,,,,,,,700.6954783997498,700.6954783997498,0.009981400333344936,0.11580569995567203,1.0,1.2733685001730919,,,,,,,,,,,,,,7150,Moral,2024-10-18_11h05.31.894,MoralCondition_v2,2022.2.5,29.975551935142008,
14,0,14,0,,,,,,,,,,,,,,,,,,,,,,,,,,,,,,,,,,,,,,,,,,,,,,,,,,,,,,,,,,,,,,701.9954564999789,701.9954564999789,0.0007575000636279583,0.09921939997002482,4.0,1.533110999967903,,,,,,,,7150,Moral,2024-10-18_11h05.31.894,MoralCondition_v2,2022.2.5,29.975551935142008,
15,0,15,0,0,0,0,0,,,,,,,,,,,,,,,,,,,,,703.562194199767,0.0002441997639834881,0.09844930004328489,709.5788660999388,6.015162099618465,709.7456164998002,709.7456164998002,0.07200509961694479,0.18166769994422793,6.015099499840289,715.8454485996626,715.8454485996626,715.8454485996626,0.06887769978493452,0.18174929963424802,721.5454807998613,721.7453707000241,6.014955499675125,6.115062699653208,727.7454289998859,12.015030699782073,727.8787814998068,727.8787814998068,0.015268499497324228,0.11510579939931631,down,1.0869956999085844,729.0121538997628,5.4900068789720535e-05,0.09765119990333915,,735.0457395999692,735.0457395999692,0.025893900077790022,0.13098679995164275,1.0,1.7062657000496984,,,,,,,727.8454726999626,727.8454726999626,,715.7454613000154,715.7454613000154,,,7150,Moral,2024-10-18_11h05.31.894,MoralCondition_v2,2022.2.5,29.975551935142008,
15,0,15,0,1,0,1,0,,,,,,,,,,,,,,,,,,,,,,,,,,,,,,,,,,,,,,,,,,,,,,,,,,,,736.7788688996807,736.7788688996807,0.007785199675709009,0.09762219991534948,1.0,0.7242837999947369,,,,,,,,,,,,,,7150,Moral,2024-10-18_11h05.31.894,MoralCondition_v2,2022.2.5,29.975551935142008,
15,0,15,0,2,0,2,0,,,,,,,,,,,,,,,,,,,,,,,,,,,,,,,,,,,,,,,,,,,,,,,,,,,,737.5454124999233,737.5454124999233,0.007722599897533655,0.09805649984627962,1.0,0.6596178999170661,,,,,,,,,,,,,,7150,Moral,2024-10-18_11h05.31.894,MoralCondition_v2,2022.2.5,29.975551935142008,
15,0,15,0,3,0,3,0,,,,,,,,,,,,,,,,,,,,,,,,,,,,,,,,,,,,,,,,,,,,,,,,,,,,738.2458849996328,738.2458849996328,0.007328800391405821,0.09807200031355023,4.0,1.2583413999527693,,,,,,,,,,,,,,7150,Moral,2024-10-18_11h05.31.894,MoralCondition_v2,2022.2.5,29.975551935142008,
15,0,15,0,4,0,4,0,,,,,,,,,,,,,,,,,,,,,,,,,,,,,,,,,,,,,,,,,,,,,,,,,,,,739.5455526998267,739.5455526998267,0.007024599704891443,0.09857299970462918,1.0,1.5924665997736156,,,,,,,,,,,,,,7150,Moral,2024-10-18_11h05.31.894,MoralCondition_v2,2022.2.5,29.975551935142008,
15,0,15,0,5,0,5,0,,,,,,,,,,,,,,,,,,,,,,,,,,,,,,,,,,,,,,,,,,,,,,,,,,,,741.1787939998321,741.1787939998321,0.006523699965327978,0.0982464998960495,1.0,0.6928735999390483,,,,,,,,,,,,,,7150,Moral,2024-10-18_11h05.31.894,MoralCondition_v2,2022.2.5,29.975551935142008,
15,0,15,0,6,0,6,0,,,,,,,,,,,,,,,,,,,,,,,,,,,,,,,,,,,,,,,,,,,,,,,,,,,,741.9289392996579,741.9289392996579,0.007213599979877472,0.11410450004041195,1.0,1.0078691001981497,,,,,,,,,,,,,,7150,Moral,2024-10-18_11h05.31.894,MoralCondition_v2,2022.2.5,29.975551935142008,
15,0,15,0,,,,,,,,,,,,,,,,,,,,,,,,,,,,,,,,,,,,,,,,,,,,,,,,,,,,,,,,,,,,,,742.9620186998509,742.9620186998509,0.001968500204384327,0.09706780035048723,4.0,7.462934399954975,,,,,,,,7150,Moral,2024-10-18_11h05.31.894,MoralCondition_v2,2022.2.5,29.975551935142008,
16,0,16,0,0,0,0,0,,,,,,,,,,,,,,,,,,,,,750.4624378997833,0.0002512997016310692,0.09789850004017353,756.4622207996435,6.031440299935639,756.6454833997414,756.6454833997414,0.06792009994387627,0.1815016996115446,6.014627099968493,762.7454389999621,762.7454389999621,762.7454389999621,0.0698160994797945,0.1815188997425139,768.4461912997067,768.6455139997415,6.0147403995506465,6.114665699657053,774.6455137999728,12.01476199971512,774.778753799852,774.778753799852,0.014758099801838398,0.11459809960797429,down,1.883295800536871,776.6953799999319,4.740012809634209e-05,0.09712499985471368,782.7120173000731,782.7120173000731,782.7120173000731,0.00826490018516779,0.11390260001644492,1.0,1.773124999832362,,,,,,,774.7453739997,774.7453739997,,762.645411899779,762.645411899779,,,7150,Moral,2024-10-18_11h05.31.894,MoralCondition_v2,2022.2.5,29.975551935142008,
16,0,16,0,1,0,1,0,,,,,,,,,,,,,,,,,,,,,,,,,,,,,,,,,,,,,,,,,,,,,,,,,,,,784.5119292000309,784.5119292000309,0.006356699857860804,0.09922700002789497,1.0,0.8273845002986491,,,,,,,,,,,,,,7150,Moral,2024-10-18_11h05.31.894,MoralCondition_v2,2022.2.5,29.975551935142008,
16,0,16,0,2,0,2,0,,,,,,,,,,,,,,,,,,,,,,,,,,,,,,,,,,,,,,,,,,,,,,,,,,,,785.3785635000095,785.3785635000095,0.007398099638521671,0.09723880002275109,4.0,1.4913709997199476,,,,,,,,,,,,,,7150,Moral,2024-10-18_11h05.31.894,MoralCondition_v2,2022.2.5,29.975551935142008,
16,0,16,0,3,0,3,0,,,,,,,,,,,,,,,,,,,,,,,,,,,,,,,,,,,,,,,,,,,,,,,,,,,,786.9119597999379,786.9119597999379,0.006692300084978342,0.09934120019897819,1.0,1.1935252002440393,,,,,,,,,,,,,,7150,Moral,2024-10-18_11h05.31.894,MoralCondition_v2,2022.2.5,29.975551935142008,
16,0,16,0,4,0,4,0,,,,,,,,,,,,,,,,,,,,,,,,,,,,,,,,,,,,,,,,,,,,,,,,,,,,788.1453489996493,788.1453489996493,0.007491100113838911,0.09759149979799986,1.0,0.557771900203079,,,,,,,,,,,,,,7150,Moral,2024-10-18_11h05.31.894,MoralCondition_v2,2022.2.5,29.975551935142008,
16,0,16,0,5,0,5,0,,,,,,,,,,,,,,,,,,,,,,,,,,,,,,,,,,,,,,,,,,,,,,,,,,,,788.7452463996597,788.7452463996597,0.006059199571609497,0.09903869964182377,1.0,0.6609650999307632,,,,,,,,,,,,,,7150,Moral,2024-10-18_11h05.31.894,MoralCondition_v2,2022.2.5,29.975551935142008,
16,0,16,0,6,0,6,0,,,,,,,,,,,,,,,,,,,,,,,,,,,,,,,,,,,,,,,,,,,,,,,,,,,,789.4619962000288,789.4619962000288,0.00997109990566969,0.11493859998881817,1.0,0.7392408000305295,,,,,,,,,,,,,,7150,Moral,2024-10-18_11h05.31.894,MoralCondition_v2,2022.2.5,29.975551935142008,
16,0,16,0,,,,,,,,,,,,,,,,,,,,,,,,,,,,,,,,,,,,,,,,,,,,,,,,,,,,,,,,,,,,,,790.2286947998218,790.2286947998218,0.0004992997273802757,0.0993680995889008,4.0,4.033335200045258,,,,,,,,7150,Moral,2024-10-18_11h05.31.894,MoralCondition_v2,2022.2.5,29.975551935142008,
17,0,17,0,0,0,0,0,,,,,,,,,,,,,,,,,,,,,794.2954465998337,0.0001441999338567257,0.09888650011271238,800.2784555996768,6.015582399908453,800.5119991996326,800.5119991996326,0.10957359988242388,0.21575480001047254,6.015661200042814,806.5784239000641,806.5784239000641,806.5784239000641,0.07935159979388118,0.1822703001089394,812.278407599777,812.47845819965,6.015570799820125,6.115516900084913,818.478443,12.015554499812424,818.5950472997501,818.5950472997501,0.015486799646168947,0.09883089968934655,down,2.322094799950719,820.9450586996973,1.7600134015083313e-05,0.08263509999960661,826.9414804000407,826.9414804000407,826.9414804000407,0.012430300004780293,0.0957268001511693,1.0,1.828026999719441,,,,,,,818.5617511998862,818.5617511998862,6.099022299982607,,,,,7150,Moral,2024-10-18_11h05.31.894,MoralCondition_v2,2022.2.5,29.975551935142008,
17,0,17,0,1,0,1,0,,,,,,,,,,,,,,,,,,,,,,,,,,,,,,,,,,,,,,,,,,,,,,,,,,,,828.8117430000566,828.8117430000566,0.005526300054043531,0.09940170031040907,1.0,0.7282874998636544,,,,,,,,,,,,,,7150,Moral,2024-10-18_11h05.31.894,MoralCondition_v2,2022.2.5,29.975551935142008,
17,0,17,0,2,0,2,0,,,,,,,,,,,,,,,,,,,,,,,,,,,,,,,,,,,,,,,,,,,,,,,,,,,,829.5783844999969,829.5783844999969,0.006441299803555012,0.09916039975360036,1.0,0.8937860997393727,,,,,,,,,,,,,,7150,Moral,2024-10-18_11h05.31.894,MoralCondition_v2,2022.2.5,29.975551935142008,
17,0,17,0,3,0,3,0,,,,,,,,,,,,,,,,,,,,,,,,,,,,,,,,,,,,,,,,,,,,,,,,,,,,830.5118130999617,830.5118130999617,0.005771999713033438,0.09902989957481623,4.0,1.5607507000677288,,,,,,,,,,,,,,7150,Moral,2024-10-18_11h05.31.894,MoralCondition_v2,2022.2.5,29.975551935142008,
17,0,17,0,4,0,4,0,,,,,,,,,,,,,,,,,,,,,,,,,,,,,,,,,,,,,,,,,,,,,,,,,,,,832.1117201996967,832.1117201996967,0.006348699796944857,0.09920359961688519,1.0,0.8939780998043716,,,,,,,,,,,,,,7150,Moral,2024-10-18_11h05.31.894,MoralCondition_v2,2022.2.5,29.975551935142008,
17,0,17,0,5,0,5,0,,,,,,,,,,,,,,,,,,,,,,,,,,,,,,,,,,,,,,,,,,,,,,,,,,,,833.0451552998275,833.0451552998275,0.0058756000362336636,0.09929079981520772,1.0,0.5610075001604855,,,,,,,,,,,,,,7150,Moral,2024-10-18_11h05.31.894,MoralCondition_v2,2022.2.5,29.975551935142008,
17,0,17,0,6,0,6,0,,,,,,,,,,,,,,,,,,,,,,,,,,,,,,,,,,,,,,,,,,,,,,,,,,,,833.6452593998984,833.6452593998984,0.007099900394678116,0.09895870042964816,1.0,0.9593199999071658,,,,,,,,,,,,,,7150,Moral,2024-10-18_11h05.31.894,MoralCondition_v2,2022.2.5,29.975551935142008,
17,0,17,0,,,,,,,,,,,,,,,,,,,,,,,,,,,,,,,,,,,,,,,,,,,,,,,,,,,,,,,,,,,,,,834.6450708997436,834.6450708997436,0.0004758997820317745,0.0994316996075213,4.0,2.1332801999524236,,,,,,,,7150,Moral,2024-10-18_11h05.31.894,MoralCondition_v2,2022.2.5,29.975551935142008,
18,0,18,0,0,0,0,0,,,,,,,,,,,,,,,,,,,,,836.811922099907,0.00013910001143813133,0.09905340010300279,842.7949695000425,6.015519700013101,842.9950223998167,842.9950223998167,0.07190740015357733,0.18227529991418123,6.0155126000754535,849.0949917999096,849.0949917999096,849.0949917999096,0.07842430006712675,0.1821884997189045,854.7951606996357,854.9950696998276,6.015645700041205,6.115619899705052,860.9952297997661,12.015874399803579,861.1285476996563,861.1285476996563,0.015812599565833807,0.11584849981591105,down,1.7887860001064837,862.9785404000431,3.7800054997205734e-05,0.0980783998966217,868.9746273998171,868.9746273998171,868.9746273998171,0.004631000105291605,0.09416620014235377,1.0,2.061044500209391,,,,,,,861.0783595000394,861.0783595000394,6.098851900082082,848.978302099742,848.978302099742,,,7150,Moral,2024-10-18_11h05.31.894,MoralCondition_v2,2022.2.5,29.975551935142008,
18,0,18,0,1,0,1,0,,,,,,,,,,,,,,,,,,,,,,,,,,,,,,,,,,,,,,,,,,,,,,,,,,,,871.0783575996757,871.0783575996757,0.007210500072687864,0.09912370005622506,1.0,0.7262651002965868,,,,,,,,,,,,,,7150,Moral,2024-10-18_11h05.31.894,MoralCondition_v2,2022.2.5,29.975551935142008,
18,0,18,0,2,0,2,0,,,,,,,,,,,,,,,,,,,,,,,,,,,,,,,,,,,,,,,,,,,,,,,,,,,,871.8450432000682,871.8450432000682,0.005932200234383345,0.09917999990284443,1.0,0.5943052000366151,,,,,,,,,,,,,,7150,Moral,2024-10-18_11h05.31.894,MoralCondition_v2,2022.2.5,29.975551935142008,
18,0,18,0,3,0,3,0,,,,,,,,,,,,,,,,,,,,,,,,,,,,,,,,,,,,,,,,,,,,,,,,,,,,872.4784234999679,872.4784234999679,0.005449400283396244,0.09924160037189722,1.0,0.5949784000404179,,,,,,,,,,,,,,7150,Moral,2024-10-18_11h05.31.894,MoralCondition_v2,2022.2.5,29.975551935142008,
18,0,18,0,4,0,4,0,,,,,,,,,,,,,,,,,,,,,,,,,,,,,,,,,,,,,,,,,,,,,,,,,,,,873.1117300000042,873.1117300000042,0.0067703998647630215,0.09930339967831969,4.0,1.2267773998901248,,,,,,,,,,,,,,7150,Moral,2024-10-18_11h05.31.894,MoralCondition_v2,2022.2.5,29.975551935142008,
18,0,18,0,5,0,5,0,,,,,,,,,,,,,,,,,,,,,,,,,,,,,,,,,,,,,,,,,,,,,,,,,,,,874.3784106997773,874.3784106997773,0.007389100268483162,0.09920950001105666,1.0,1.2931392001919448,,,,,,,,,,,,,,7150,Moral,2024-10-18_11h05.31.894,MoralCondition_v2,2022.2.5,29.975551935142008,
18,0,18,0,6,0,6,0,,,,,,,,,,,,,,,,,,,,,,,,,,,,,,,,,,,,,,,,,,,,,,,,,,,,875.7117619998753,875.7117619998753,0.007294599898159504,0.09791859984397888,1.0,0.5245654000900686,,,,,,,,,,,,,,7150,Moral,2024-10-18_11h05.31.894,MoralCondition_v2,2022.2.5,29.975551935142008,
18,0,18,0,,,,,,,,,,,,,,,,,,,,,,,,,,,,,,,,,,,,,,,,,,,,,,,,,,,,,,,,,,,,,,876.2782624997199,876.2782624997199,0.0007480001077055931,0.09907320002093911,4.0,1.6994965998455882,,,,,,,,7150,Moral,2024-10-18_11h05.31.894,MoralCondition_v2,2022.2.5,29.975551935142008,
19,0,19,0,0,0,0,0,,,,,,,,,,,,,,,,,,,,,878.0116619998589,0.00018139975145459175,0.0989866997115314,884.0286166998558,6.015965099912137,884.1951850000769,884.1951850000769,0.07048399979248643,0.1828354997560382,6.0158734996803105,890.2950538997538,890.2950538997538,890.2950538997538,0.07050909986719489,0.18261299980804324,895.9951174999587,896.1951294997707,6.015915099531412,6.115902099758387,902.1951896999963,12.01604379946366,902.3284701998346,902.3284701998346,0.016048599500209093,0.11589409969747066,down,2.0777296000160277,904.4618016998284,4.169996827840805e-05,0.09815890016034245,,910.4953589998186,910.4953589998186,0.025186799932271242,0.13143490022048354,4.0,4.7403804999776185,,,,,,,902.2951140999794,902.2951140999794,,890.1952475998551,890.1952475998551,,,7150,Moral,2024-10-18_11h05.31.894,MoralCondition_v2,2022.2.5,29.975551935142008,
19,0,19,0,1,0,1,0,,,,,,,,,,,,,,,,,,,,,,,,,,,,,,,,,,,,,,,,,,,,,,,,,,,,915.2615962000564,915.2615962000564,0.006865500006824732,0.0989496000111103,1.0,1.4265993000008166,,,,,,,,,,,,,,7150,Moral,2024-10-18_11h05.31.894,MoralCondition_v2,2022.2.5,29.975551935142008,
19,0,19,0,2,0,2,0,,,,,,,,,,,,,,,,,,,,,,,,,,,,,,,,,,,,,,,,,,,,,,,,,,,,916.7283724998124,916.7283724998124,0.006686700042337179,0.0991683998145163,1.0,0.7935975003056228,,,,,,,,,,,,,,7150,Moral,2024-10-18_11h05.31.894,MoralCondition_v2,2022.2.5,29.975551935142008,
19,0,19,0,3,0,3,0,,,,,,,,,,,,,,,,,,,,,,,,,,,,,,,,,,,,,,,,,,,,,,,,,,,,917.5618761000223,917.5618761000223,0.007500200066715479,0.09821110032498837,1.0,0.7916550999507308,,,,,,,,,,,,,,7150,Moral,2024-10-18_11h05.31.894,MoralCondition_v2,2022.2.5,29.975551935142008,
19,0,19,0,4,0,4,0,,,,,,,,,,,,,,,,,,,,,,,,,,,,,,,,,,,,,,,,,,,,,,,,,,,,918.3949897000566,918.3949897000566,0.00774569995701313,0.09796380018815398,1.0,0.725562300067395,,,,,,,,,,,,,,7150,Moral,2024-10-18_11h05.31.894,MoralCondition_v2,2022.2.5,29.975551935142008,
19,0,19,0,5,0,5,0,,,,,,,,,,,,,,,,,,,,,,,,,,,,,,,,,,,,,,,,,,,,,,,,,,,,919.1785935000516,919.1785935000516,0.00805910024791956,0.11450100038200617,1.0,0.7073695999570191,,,,,,,,,,,,,,7150,Moral,2024-10-18_11h05.31.894,MoralCondition_v2,2022.2.5,29.975551935142008,
19,0,19,0,6,0,6,0,,,,,,,,,,,,,,,,,,,,,,,,,,,,,,,,,,,,,,,,,,,,,,,,,,,,919.9116199999116,919.9116199999116,0.006934300065040588,0.09907379979267716,1.0,0.8599789999425411,,,,,,,,,,,,,,7150,Moral,2024-10-18_11h05.31.894,MoralCondition_v2,2022.2.5,29.975551935142008,
19,0,19,0,,,,,,,,,,,,,,,,,,,,,,,,,,,,,,,,,,,,,,,,,,,,,,,,,,,,,,,,,,,,,,920.8116156999022,920.8116156999022,0.001075000036507845,0.09833330009132624,4.0,1.2983570001088083,,,,,,,,7150,Moral,2024-10-18_11h05.31.894,MoralCondition_v2,2022.2.5,29.975551935142008,
