loop.thisRepN,loop.thisTrialN,loop.thisN,loop.thisIndex,evaluate_all_emotions.thisRepN,evaluate_all_emotions.thisTrialN,evaluate_all_emotions.thisN,evaluate_all_emotions.thisIndex,sync_beep_1.started,p_port.started,p_port.stopped,sync_beep_1.stopped,sync_beep_2.started,sync_beep_2.stopped,sync_beep_3.started,sync_beep_3.stopped,sync_beep_4.started,sync_beep_4.stopped,baseline.started,p_port_2.started,p_port_2.stopped,baseline.stopped,p_port_3.started,Game_Start_Text.started,p_port_4.started,p_port_4.stopped,key_resp.started,key_resp.keys,key_resp.rt,fixation_cross.started,p_port_5.started,p_port_5.stopped,fixation_cross.stopped,p_port_6.started,player_image_intro.started,player_name_intro.started,p_port_7.started,p_port_7.stopped,p_port_8.started,player_image_offer.started,player_name_offer.started,proposed_split.started,p_port_9.started,p_port_9.stopped,proposed_split.stopped,accept_reject.started,p_port_15.started,p_port_15.stopped,accept_reject.stopped,p_port_10.started,arrow_instructions.started,offer_choice.started,p_port_11.started,p_port_11.stopped,offer_choice.keys,offer_choice.rt,Instructions_Affinity_Score.started,p_port_12.started,p_port_12.stopped,Emotion_Image.started,AffinityScore.started,p_port_13.started,p_port_13.stopped,AffinityScore.response,AffinityScore.rt,Instruction.started,Moral_Disgust_Score.started,p_port_14.started,p_port_14.stopped,Moral_Disgust_Score.response,Moral_Disgust_Score.rt,player_image_offer.stopped,player_name_offer.stopped,Instructions_Affinity_Score.stopped,player_image_intro.stopped,player_name_intro.stopped,p_port_6.stopped,p_port_8.stopped,p_port_10.stopped,participant,session,date,expName,psychopyVersion,frameRate,
,,,,,,,,13.752938470151276,0.0008503999561071396,0.11607940006069839,14.08356639998965,14.350251530017704,14.650270099984482,14.950505130179227,15.25017620017752,15.550290830153973,15.866796700051054,15.866796700051054,0.016016599955037236,0.11623239982873201,30.866873200051486,15.016179299913347,31.000233500031754,0.01616209978237748,0.13281739968806505,31.450280300108716,space,1.0883736996911466,,,,,,,,,,,,,,,,,,,,,,,,,,,,,,,,,,,,,,,,,,,,,,,,,,,7152,Moral,2024-08-16_14h25.06.583,MoralCondition_v2,2022.2.5,30.035983102017465,
0,0,0,0,0,0,0,0,,,,,,,,,,,,,,,,,,,,,,32.583555000135675,0.001219599973410368,0.09828270017169416,38.58358440012671,6.031705799978226,38.883494100067765,38.883494100067765,0.16408660006709397,0.2982153999619186,6.031591499922797,44.900173200061545,44.900173200061545,44.900173200061545,0.08980489987879992,0.21498139994218946,50.60018030018546,50.76690120017156,6.0150102998595685,6.114910299889743,56.76681990013458,12.01495029986836,56.90018370002508,56.90018370002508,0.015112499706447124,0.11494059977121651,down,2.35041379975155,59.283662100089714,7.139984518289566e-05,0.09706309996545315,65.31700350018218,65.31700350018218,0.026638699928298593,0.13041809992864728,6.0,10.555039800005034,,,,,,,,,,,,,,,7152,Moral,2024-08-16_14h25.06.583,MoralCondition_v2,2022.2.5,30.035983102017465,
0,0,0,0,1,0,1,0,,,,,,,,,,,,,,,,,,,,,,,,,,,,,,,,,,,,,,,,,,,,,,,,,,,,75.91720620007254,75.91720620007254,0.017940999940037727,0.11401829984970391,2.0,4.463837000075728,,,,,,,,,,,,,,,7152,Moral,2024-08-16_14h25.06.583,MoralCondition_v2,2022.2.5,30.035983102017465,
0,0,0,0,2,0,2,0,,,,,,,,,,,,,,,,,,,,,,,,,,,,,,,,,,,,,,,,,,,,,,,,,,,,80.43372970004566,80.43372970004566,0.011158900102600455,0.11395230004563928,7.0,3.370381699874997,,,,,,,,,,,,,,,7152,Moral,2024-08-16_14h25.06.583,MoralCondition_v2,2022.2.5,30.035983102017465,
0,0,0,0,3,0,3,0,,,,,,,,,,,,,,,,,,,,,,,,,,,,,,,,,,,,,,,,,,,,,,,,,,,,83.85018110019155,83.85018110019155,0.011703799944370985,0.11419979995116591,6.0,3.5700348999816924,,,,,,,,,,,,,,,7152,Moral,2024-08-16_14h25.06.583,MoralCondition_v2,2022.2.5,30.035983102017465,
0,0,0,0,4,0,4,0,,,,,,,,,,,,,,,,,,,,,,,,,,,,,,,,,,,,,,,,,,,,,,,,,,,,87.45010969997384,87.45010969997384,0.009620999917387962,0.09780370001681149,5.0,5.022756300168112,,,,,,,,,,,,,,,7152,Moral,2024-08-16_14h25.06.583,MoralCondition_v2,2022.2.5,30.035983102017465,
0,0,0,0,5,0,5,0,,,,,,,,,,,,,,,,,,,,,,,,,,,,,,,,,,,,,,,,,,,,,,,,,,,,92.53350230003707,92.53350230003707,0.011889699846506119,0.11449970002286136,7.0,2.0369223000016063,,,,,,,,,,,,,,,7152,Moral,2024-08-16_14h25.06.583,MoralCondition_v2,2022.2.5,30.035983102017465,
0,0,0,0,6,0,6,0,,,,,,,,,,,,,,,,,,,,,,,,,,,,,,,,,,,,,,,,,,,,,,,,,,,,94.61695670010522,94.61695670010522,0.012861999915912747,0.11400569998659194,5.0,3.002202200004831,,,,,,,,,,,,,,,7152,Moral,2024-08-16_14h25.06.583,MoralCondition_v2,2022.2.5,30.035983102017465,
0,0,0,0,,,,,,,,,,,,,,,,,,,,,,,,,,,,,,,,,,,,,,,,,,,,,,,,,,,,,,,,,,,,,,97.64992110012099,97.64992110012099,0.0021347999572753906,0.09730109991505742,1.0,16.196351800113916,,,,,,,,,7152,Moral,2024-08-16_14h25.06.583,MoralCondition_v2,2022.2.5,30.035983102017465,
1,0,1,0,0,0,0,0,,,,,,,,,,,,,,,,,,,,,,113.88370170001872,0.00029380014166235924,0.09753690008074045,119.88339690002613,6.030868600122631,120.15003480017185,120.15003480017185,0.14589879987761378,0.26434039999730885,6.030797800049186,126.18344849999994,126.18344849999994,126.18344849999994,0.08877169992774725,0.19747979985550046,131.88335710018873,132.08340560016222,6.030884399777278,6.130832499824464,138.08334860019386,12.03082609991543,138.2167348000221,138.2167348000221,0.03103899979032576,0.13101209979504347,down,2.9535978997591883,141.23333980003372,3.909994848072529e-05,0.09843629994429648,147.25006010010839,147.25006010010839,0.010094099910929799,0.11517410003580153,5.0,2.705910500138998,,,,,,,138.18340710015036,138.18340710015036,147.25006010010839,,,,,,7152,Moral,2024-08-16_14h25.06.583,MoralCondition_v2,2022.2.5,30.035983102017465,
1,0,1,0,1,0,1,0,,,,,,,,,,,,,,,,,,,,,,,,,,,,,,,,,,,,,,,,,,,,,,,,,,,,149.9831916000694,149.9831916000694,0.006947699934244156,0.09903979999944568,5.0,1.3601877000182867,,,,,,,,,,,,,,,7152,Moral,2024-08-16_14h25.06.583,MoralCondition_v2,2022.2.5,30.035983102017465,
1,0,1,0,2,0,2,0,,,,,,,,,,,,,,,,,,,,,,,,,,,,,,,,,,,,,,,,,,,,,,,,,,,,151.38335030013695,151.38335030013695,0.007004600018262863,0.09883799985982478,6.0,2.7930256000254303,,,,,,,,,,,,,,,7152,Moral,2024-08-16_14h25.06.583,MoralCondition_v2,2022.2.5,30.035983102017465,
1,0,1,0,3,0,3,0,,,,,,,,,,,,,,,,,,,,,,,,,,,,,,,,,,,,,,,,,,,,,,,,,,,,154.21646530018188,154.21646530018188,0.007209199946373701,0.09915790008381009,6.0,1.3929415000602603,,,,,,,,,,,,,,,7152,Moral,2024-08-16_14h25.06.583,MoralCondition_v2,2022.2.5,30.035983102017465,
1,0,1,0,4,0,4,0,,,,,,,,,,,,,,,,,,,,,,,,,,,,,,,,,,,,,,,,,,,,,,,,,,,,155.6669274000451,155.6669274000451,0.008634199853986502,0.11456689983606339,6.0,1.5068479999899864,,,,,,,,,,,,,,,7152,Moral,2024-08-16_14h25.06.583,MoralCondition_v2,2022.2.5,30.035983102017465,
1,0,1,0,5,0,5,0,,,,,,,,,,,,,,,,,,,,,,,,,,,,,,,,,,,,,,,,,,,,,,,,,,,,157.1999405999668,157.1999405999668,0.007235599914565682,0.09837279981002212,2.0,2.62561669992283,,,,,,,,,,,,,,,7152,Moral,2024-08-16_14h25.06.583,MoralCondition_v2,2022.2.5,30.035983102017465,
1,0,1,0,6,0,6,0,,,,,,,,,,,,,,,,,,,,,,,,,,,,,,,,,,,,,,,,,,,,,,,,,,,,159.86656670016237,159.86656670016237,0.007415799889713526,0.09915589983575046,6.0,3.792670600116253,,,,,,,,,,,,,,,7152,Moral,2024-08-16_14h25.06.583,MoralCondition_v2,2022.2.5,30.035983102017465,
1,0,1,0,,,,,,,,,,,,,,,,,,,,,,,,,,,,,,,,,,,,,,,,,,,,,,,,,,,,,,,,,,,,,,163.69996610004455,163.69996610004455,0.0013142998795956373,0.09776639984920621,3.0,4.364228599937633,,,,,,,,,7152,Moral,2024-08-16_14h25.06.583,MoralCondition_v2,2022.2.5,30.035983102017465,
2,0,2,0,0,0,0,0,,,,,,,,,,,,,,,,,,,,,,168.10032880003564,0.00039430009201169014,0.09732100018300116,174.1000666001346,6.030728100100532,174.33327020006254,174.33327020006254,0.11853479989804327,0.23079199995845556,6.030572799965739,180.39979000017047,180.39979000017047,180.39979000017047,0.0909799998626113,0.19746289984323084,186.09993420005776,186.29990280000493,6.030552199808881,6.13079039985314,192.29989690007642,12.030544299865142,192.433274500072,192.433274500072,0.030966799706220627,0.13068479974754155,down,0.657377399969846,193.13316090009175,4.010018892586231e-05,0.11456140014342964,199.133234300185,199.133234300185,0.005255100084468722,0.09800940006971359,5.0,2.8602686000522226,,,,,,,192.40019450010732,192.40019450010732,199.133234300185,,,,,,7152,Moral,2024-08-16_14h25.06.583,MoralCondition_v2,2022.2.5,30.035983102017465,
2,0,2,0,1,0,1,0,,,,,,,,,,,,,,,,,,,,,,,,,,,,,,,,,,,,,,,,,,,,,,,,,,,,202.03306430019438,202.03306430019438,0.006535099819302559,0.09922329988330603,5.0,1.5270688000600785,,,,,,,,,,,,,,,7152,Moral,2024-08-16_14h25.06.583,MoralCondition_v2,2022.2.5,30.035983102017465,
2,0,2,0,2,0,2,0,,,,,,,,,,,,,,,,,,,,,,,,,,,,,,,,,,,,,,,,,,,,,,,,,,,,203.59986250009388,203.59986250009388,0.006793400039896369,0.09925400000065565,6.0,3.29340219986625,,,,,,,,,,,,,,,7152,Moral,2024-08-16_14h25.06.583,MoralCondition_v2,2022.2.5,30.035983102017465,
2,0,2,0,3,0,3,0,,,,,,,,,,,,,,,,,,,,,,,,,,,,,,,,,,,,,,,,,,,,,,,,,,,,206.95008970005438,206.95008970005438,0.007731199963018298,0.11468879994936287,1.0,3.6077457000501454,,,,,,,,,,,,,,,7152,Moral,2024-08-16_14h25.06.583,MoralCondition_v2,2022.2.5,30.035983102017465,
2,0,2,0,4,0,4,0,,,,,,,,,,,,,,,,,,,,,,,,,,,,,,,,,,,,,,,,,,,,,,,,,,,,210.58299280004576,210.58299280004576,0.009192999918013811,0.09709559986367822,6.0,2.65564369992353,,,,,,,,,,,,,,,7152,Moral,2024-08-16_14h25.06.583,MoralCondition_v2,2022.2.5,30.035983102017465,
2,0,2,0,5,0,5,0,,,,,,,,,,,,,,,,,,,,,,,,,,,,,,,,,,,,,,,,,,,,,,,,,,,,213.30016710003838,213.30016710003838,0.008384899934753776,0.11418920010328293,6.0,1.439932300010696,,,,,,,,,,,,,,,7152,Moral,2024-08-16_14h25.06.583,MoralCondition_v2,2022.2.5,30.035983102017465,
2,0,2,0,6,0,6,0,,,,,,,,,,,,,,,,,,,,,,,,,,,,,,,,,,,,,,,,,,,,,,,,,,,,214.78334300010465,214.78334300010465,0.0080186000559479,0.11443990003317595,5.0,1.474043499911204,,,,,,,,,,,,,,,7152,Moral,2024-08-16_14h25.06.583,MoralCondition_v2,2022.2.5,30.035983102017465,
2,0,2,0,,,,,,,,,,,,,,,,,,,,,,,,,,,,,,,,,,,,,,,,,,,,,,,,,,,,,,,,,,,,,,216.28308450011536,216.28308450011536,0.0013460998889058828,0.09772299998439848,2.0,4.531076199840754,,,,,,,,,7152,Moral,2024-08-16_14h25.06.583,MoralCondition_v2,2022.2.5,30.035983102017465,
3,0,3,0,0,0,0,0,,,,,,,,,,,,,,,,,,,,,,220.84983119997196,0.00014239992015063763,0.09881419991143048,226.8665187000297,6.0154764000326395,227.03322680015117,227.03322680015117,0.07107329997234046,0.18235139991156757,6.015448399819434,233.13335880008526,233.13335880008526,233.13335880008526,0.07420839974656701,0.18212459981441498,238.83316180016845,239.03358290018514,6.015998599817976,6.115529199829325,245.03314339998178,12.015508599812165,245.16650350019336,245.16650350019336,0.015631399815902114,0.11544229974970222,down,0.7960922999773175,245.99982190015726,6.59001525491476e-05,0.09765979996882379,252.00025520008057,252.00025520008057,0.009144300129264593,0.0979602001607418,6.0,1.7900127999018878,,,,,,,245.13313239999115,245.13313239999115,252.00025520008057,233.03318080003373,233.03318080003373,,,,7152,Moral,2024-08-16_14h25.06.583,MoralCondition_v2,2022.2.5,30.035983102017465,
3,0,3,0,1,0,1,0,,,,,,,,,,,,,,,,,,,,,,,,,,,,,,,,,,,,,,,,,,,,,,,,,,,,253.83342240005732,253.83342240005732,0.007047099992632866,0.09735499997623265,5.0,2.091241099871695,,,,,,,,,,,,,,,7152,Moral,2024-08-16_14h25.06.583,MoralCondition_v2,2022.2.5,30.035983102017465,
3,0,3,0,2,0,2,0,,,,,,,,,,,,,,,,,,,,,,,,,,,,,,,,,,,,,,,,,,,,,,,,,,,,255.9666135001462,255.9666135001462,0.007505899993702769,0.09751940006390214,5.0,1.024354999884963,,,,,,,,,,,,,,,7152,Moral,2024-08-16_14h25.06.583,MoralCondition_v2,2022.2.5,30.035983102017465,
3,0,3,0,3,0,3,0,,,,,,,,,,,,,,,,,,,,,,,,,,,,,,,,,,,,,,,,,,,,,,,,,,,,257.0331592001021,257.0331592001021,0.006538700079545379,0.09940840001218021,2.0,1.560556499985978,,,,,,,,,,,,,,,7152,Moral,2024-08-16_14h25.06.583,MoralCondition_v2,2022.2.5,30.035983102017465,
3,0,3,0,4,0,4,0,,,,,,,,,,,,,,,,,,,,,,,,,,,,,,,,,,,,,,,,,,,,,,,,,,,,258.63316690013744,258.63316690013744,0.007428699871525168,0.0981027998495847,6.0,3.4583550000097603,,,,,,,,,,,,,,,7152,Moral,2024-08-16_14h25.06.583,MoralCondition_v2,2022.2.5,30.035983102017465,
3,0,3,0,5,0,5,0,,,,,,,,,,,,,,,,,,,,,,,,,,,,,,,,,,,,,,,,,,,,,,,,,,,,262.13314200006425,262.13314200006425,0.006625199923291802,0.09937720000743866,6.0,0.9604209000244737,,,,,,,,,,,,,,,7152,Moral,2024-08-16_14h25.06.583,MoralCondition_v2,2022.2.5,30.035983102017465,
3,0,3,0,6,0,6,0,,,,,,,,,,,,,,,,,,,,,,,,,,,,,,,,,,,,,,,,,,,,,,,,,,,,263.1332478001714,263.1332478001714,0.007531499955803156,0.09751669992692769,5.0,1.7578431000001729,,,,,,,,,,,,,,,7152,Moral,2024-08-16_14h25.06.583,MoralCondition_v2,2022.2.5,30.035983102017465,
3,0,3,0,,,,,,,,,,,,,,,,,,,,,,,,,,,,,,,,,,,,,,,,,,,,,,,,,,,,,,,,,,,,,,264.93322180001996,264.93322180001996,0.0012165000662207603,0.09791040001437068,2.0,2.764731999952346,,,,,,,,,7152,Moral,2024-08-16_14h25.06.583,MoralCondition_v2,2022.2.5,30.035983102017465,
4,0,4,0,0,0,0,0,,,,,,,,,,,,,,,,,,,,,,267.73345250007696,0.00031189993023872375,0.09769419999793172,273.71619569999166,6.01410559983924,273.90007390012033,273.90007390012033,0.051834399811923504,0.1644085997249931,6.031093099853024,280.0329995001666,280.0329995001666,280.0329995001666,0.08392899972386658,0.19782879971899092,285.7330641001463,285.933168400079,6.031167399836704,6.131000399822369,291.9330033999868,12.030983299715444,292.06633910001256,292.06633910001256,0.031217399751767516,0.1309261997230351,down,0.33633569977246225,292.46658410015516,4.8900023102760315e-05,0.09777339990250766,298.48309600003995,298.48309600003995,0.009648599894717336,0.11402489989995956,1.0,2.439009399851784,,,,,,,292.03306609997526,292.03306609997526,298.48309600003995,279.8997154000681,279.8997154000681,6.097561199916527,,,7152,Moral,2024-08-16_14h25.06.583,MoralCondition_v2,2022.2.5,30.035983102017465,
4,0,4,0,1,0,1,0,,,,,,,,,,,,,,,,,,,,,,,,,,,,,,,,,,,,,,,,,,,,,,,,,,,,300.94969210005365,300.94969210005365,0.007478599902242422,0.09755189996212721,6.0,2.0911063000094146,,,,,,,,,,,,,,,7152,Moral,2024-08-16_14h25.06.583,MoralCondition_v2,2022.2.5,30.035983102017465,
4,0,4,0,2,0,2,0,,,,,,,,,,,,,,,,,,,,,,,,,,,,,,,,,,,,,,,,,,,,,,,,,,,,303.0996397000272,303.0996397000272,0.009495200123637915,0.11463550012558699,6.0,1.239474100060761,,,,,,,,,,,,,,,7152,Moral,2024-08-16_14h25.06.583,MoralCondition_v2,2022.2.5,30.035983102017465,
4,0,4,0,3,0,3,0,,,,,,,,,,,,,,,,,,,,,,,,,,,,,,,,,,,,,,,,,,,,,,,,,,,,304.36624980019405,304.36624980019405,0.006656100042164326,0.09898580005392432,5.0,1.5601052001584321,,,,,,,,,,,,,,,7152,Moral,2024-08-16_14h25.06.583,MoralCondition_v2,2022.2.5,30.035983102017465,
4,0,4,0,4,0,4,0,,,,,,,,,,,,,,,,,,,,,,,,,,,,,,,,,,,,,,,,,,,,,,,,,,,,305.9664026000537,305.9664026000537,0.007172399898990989,0.09907819982618093,6.0,2.726407199865207,,,,,,,,,,,,,,,7152,Moral,2024-08-16_14h25.06.583,MoralCondition_v2,2022.2.5,30.035983102017465,
4,0,4,0,5,0,5,0,,,,,,,,,,,,,,,,,,,,,,,,,,,,,,,,,,,,,,,,,,,,,,,,,,,,308.73284840001725,308.73284840001725,0.008089100010693073,0.09800069988705218,6.0,2.5576547000091523,,,,,,,,,,,,,,,7152,Moral,2024-08-16_14h25.06.583,MoralCondition_v2,2022.2.5,30.035983102017465,
4,0,4,0,6,0,6,0,,,,,,,,,,,,,,,,,,,,,,,,,,,,,,,,,,,,,,,,,,,,,,,,,,,,311.33316899999045,311.33316899999045,0.006942200008779764,0.09922109986655414,6.0,1.1598591001238674,,,,,,,,,,,,,,,7152,Moral,2024-08-16_14h25.06.583,MoralCondition_v2,2022.2.5,30.035983102017465,
4,0,4,0,,,,,,,,,,,,,,,,,,,,,,,,,,,,,,,,,,,,,,,,,,,,,,,,,,,,,,,,,,,,,,312.53308950015344,312.53308950015344,0.001453799894079566,0.09760400000959635,2.0,2.6973614001180977,,,,,,,,,7152,Moral,2024-08-16_14h25.06.583,MoralCondition_v2,2022.2.5,30.035983102017465,
5,0,5,0,0,0,0,0,,,,,,,,,,,,,,,,,,,,,,315.26653610006906,0.00025949999690055847,0.09897290007211268,321.24945690017194,6.015275000128895,321.4498587001581,321.4498587001581,0.08080730005167425,0.1820916999131441,6.015383200021461,327.5496167000383,327.5496167000383,327.5496167000383,0.07146379980258644,0.18229289981536567,333.2495902001392,333.4495988001581,6.015426799887791,6.115544899832457,339.449540700065,12.015381099889055,339.58288730005734,339.58288730005734,0.015744299860671163,0.11529789981432259,up,0.5803408999927342,340.21621310012415,5.45999500900507e-05,0.09754780004732311,346.2332248999737,346.2332248999737,0.024864000035449862,0.1140962999779731,2.0,3.523466099984944,,,,,,,339.5496947001666,339.5496947001666,,327.4495989000425,327.4495989000425,,,,7152,Moral,2024-08-16_14h25.06.583,MoralCondition_v2,2022.2.5,30.035983102017465,
5,0,5,0,1,0,1,0,,,,,,,,,,,,,,,,,,,,,,,,,,,,,,,,,,,,,,,,,,,,,,,,,,,,349.81657050014473,349.81657050014473,0.007520499872043729,0.11423899978399277,2.0,3.2075564998667687,,,,,,,,,,,,,,,7152,Moral,2024-08-16_14h25.06.583,MoralCondition_v2,2022.2.5,30.035983102017465,
5,0,5,0,2,0,2,0,,,,,,,,,,,,,,,,,,,,,,,,,,,,,,,,,,,,,,,,,,,,,,,,,,,,353.04959160019644,353.04959160019644,0.007655499968677759,0.09702039998956025,2.0,1.4571126999799162,,,,,,,,,,,,,,,7152,Moral,2024-08-16_14h25.06.583,MoralCondition_v2,2022.2.5,30.035983102017465,
5,0,5,0,3,0,3,0,,,,,,,,,,,,,,,,,,,,,,,,,,,,,,,,,,,,,,,,,,,,,,,,,,,,354.5494753001258,354.5494753001258,0.005846400046721101,0.09960580011829734,5.0,4.094550399808213,,,,,,,,,,,,,,,7152,Moral,2024-08-16_14h25.06.583,MoralCondition_v2,2022.2.5,30.035983102017465,
5,0,5,0,4,0,4,0,,,,,,,,,,,,,,,,,,,,,,,,,,,,,,,,,,,,,,,,,,,,,,,,,,,,358.68289900012314,358.68289900012314,0.007813700009137392,0.09745380003005266,2.0,2.624098900007084,,,,,,,,,,,,,,,7152,Moral,2024-08-16_14h25.06.583,MoralCondition_v2,2022.2.5,30.035983102017465,
5,0,5,0,5,0,5,0,,,,,,,,,,,,,,,,,,,,,,,,,,,,,,,,,,,,,,,,,,,,,,,,,,,,361.3494567000307,361.3494567000307,0.007441699970513582,0.09793259995058179,2.0,1.491294400068,,,,,,,,,,,,,,,7152,Moral,2024-08-16_14h25.06.583,MoralCondition_v2,2022.2.5,30.035983102017465,
5,0,5,0,6,0,6,0,,,,,,,,,,,,,,,,,,,,,,,,,,,,,,,,,,,,,,,,,,,,,,,,,,,,362.88272930006497,362.88272930006497,0.00748400017619133,0.09795150021091104,3.0,2.691555100027472,,,,,,,,,,,,,,,7152,Moral,2024-08-16_14h25.06.583,MoralCondition_v2,2022.2.5,30.035983102017465,
5,0,5,0,,,,,,,,,,,,,,,,,,,,,,,,,,,,,,,,,,,,,,,,,,,,,,,,,,,,,,,,,,,,,,365.61616050009616,365.61616050009616,0.001702300040051341,0.09781429986469448,5.0,2.964211900020018,,,,,,,,,7152,Moral,2024-08-16_14h25.06.583,MoralCondition_v2,2022.2.5,30.035983102017465,
6,0,6,0,0,0,0,0,,,,,,,,,,,,,,,,,,,,,,368.6161852001678,0.00032800016924738884,0.09757770015858114,374.59934299997985,6.014162400038913,374.79969790019095,374.79969790019095,0.07209450006484985,0.18108349991962314,6.01423199987039,380.8994815000333,380.8994815000333,380.8994815000333,0.07588219991885126,0.18108319980092347,386.5994234001264,386.7997145000845,6.014569399878383,6.1142189998645335,392.7994083999656,12.014227999839932,392.93277890002355,392.93277890002355,0.014511799672618508,0.11421729973517358,down,0.3738685997668654,393.3660747001413,7.109995931386948e-05,0.09778039995580912,399.38252680003643,399.38252680003643,0.027498599840328097,0.11453459993936121,5.0,1.887934499885887,,,,,,,392.8994362000376,392.8994362000376,,380.7995149001945,380.7995149001945,,,,7152,Moral,2024-08-16_14h25.06.583,MoralCondition_v2,2022.2.5,30.035983102017465,
6,0,6,0,1,0,1,0,,,,,,,,,,,,,,,,,,,,,,,,,,,,,,,,,,,,,,,,,,,,,,,,,,,,401.3161556001287,401.3161556001287,0.007299599936231971,0.09723459999077022,5.0,1.09111739997752,,,,,,,,,,,,,,,7152,Moral,2024-08-16_14h25.06.583,MoralCondition_v2,2022.2.5,30.035983102017465,
6,0,6,0,2,0,2,0,,,,,,,,,,,,,,,,,,,,,,,,,,,,,,,,,,,,,,,,,,,,,,,,,,,,402.44929220015183,402.44929220015183,0.007519699865952134,0.09759430005215108,6.0,1.4909657998941839,,,,,,,,,,,,,,,7152,Moral,2024-08-16_14h25.06.583,MoralCondition_v2,2022.2.5,30.035983102017465,
6,0,6,0,3,0,3,0,,,,,,,,,,,,,,,,,,,,,,,,,,,,,,,,,,,,,,,,,,,,,,,,,,,,403.98273970000446,403.98273970000446,0.008175599854439497,0.09888960001990199,6.0,1.058842700207606,,,,,,,,,,,,,,,7152,Moral,2024-08-16_14h25.06.583,MoralCondition_v2,2022.2.5,30.035983102017465,
6,0,6,0,4,0,4,0,,,,,,,,,,,,,,,,,,,,,,,,,,,,,,,,,,,,,,,,,,,,,,,,,,,,405.0825619001407,405.0825619001407,0.007312899921089411,0.09793090005405247,6.0,1.2260506998281926,,,,,,,,,,,,,,,7152,Moral,2024-08-16_14h25.06.583,MoralCondition_v2,2022.2.5,30.035983102017465,
6,0,6,0,5,0,5,0,,,,,,,,,,,,,,,,,,,,,,,,,,,,,,,,,,,,,,,,,,,,,,,,,,,,406.34961600019597,406.34961600019597,0.006671100156381726,0.09844580013304949,1.0,3.2262992998585105,,,,,,,,,,,,,,,7152,Moral,2024-08-16_14h25.06.583,MoralCondition_v2,2022.2.5,30.035983102017465,
6,0,6,0,6,0,6,0,,,,,,,,,,,,,,,,,,,,,,,,,,,,,,,,,,,,,,,,,,,,,,,,,,,,409.6160716000013,409.6160716000013,0.007594299968332052,0.0984255000948906,5.0,3.791680899914354,,,,,,,,,,,,,,,7152,Moral,2024-08-16_14h25.06.583,MoralCondition_v2,2022.2.5,30.035983102017465,
6,0,6,0,,,,,,,,,,,,,,,,,,,,,,,,,,,,,,,,,,,,,,,,,,,,,,,,,,,,,,,,,,,,,,413.4495213001501,413.4495213001501,0.0014457001816481352,0.09747819998301566,2.0,2.2640151001978666,,,,,,,,,7152,Moral,2024-08-16_14h25.06.583,MoralCondition_v2,2022.2.5,30.035983102017465,
7,0,7,0,0,0,0,0,,,,,,,,,,,,,,,,,,,,,,415.7494916000869,0.0003939999733120203,0.09729539998807013,421.76598280016333,6.01389029994607,421.9324548000004,421.9324548000004,0.06690609990619123,0.1806327998638153,6.013923299731687,428.032723300159,428.032723300159,428.032723300159,0.0686412996146828,0.18081869976595044,433.7325534000993,433.9326408000197,6.013951999600977,6.113946499768645,439.9326300001703,12.013945399783552,440.06596480007283,440.06596480007283,0.014052899554371834,0.11387059953995049,up,0.5764988998416811,440.6992645000573,3.9999838918447495e-05,0.09795369999483228,446.71645990014076,446.71645990014076,0.024846799904480577,0.11440769978798926,3.0,2.3910061998758465,,,,,,,440.0325835000258,440.0325835000258,,427.9326363999862,427.9326363999862,,,,7152,Moral,2024-08-16_14h25.06.583,MoralCondition_v2,2022.2.5,30.035983102017465,
7,0,7,0,1,0,1,0,,,,,,,,,,,,,,,,,,,,,,,,,,,,,,,,,,,,,,,,,,,,,,,,,,,,449.1493565000128,449.1493565000128,0.007239500060677528,0.0977978000883013,2.0,1.6915083001367748,,,,,,,,,,,,,,,7152,Moral,2024-08-16_14h25.06.583,MoralCondition_v2,2022.2.5,30.035983102017465,
7,0,7,0,2,0,2,0,,,,,,,,,,,,,,,,,,,,,,,,,,,,,,,,,,,,,,,,,,,,,,,,,,,,450.89954060013406,450.89954060013406,0.00805659987963736,0.11463259998708963,2.0,0.8741199998185039,,,,,,,,,,,,,,,7152,Moral,2024-08-16_14h25.06.583,MoralCondition_v2,2022.2.5,30.035983102017465,
7,0,7,0,3,0,3,0,,,,,,,,,,,,,,,,,,,,,,,,,,,,,,,,,,,,,,,,,,,,,,,,,,,,451.799087200081,451.799087200081,0.00794739997945726,0.09816020005382597,3.0,2.524776899954304,,,,,,,,,,,,,,,7152,Moral,2024-08-16_14h25.06.583,MoralCondition_v2,2022.2.5,30.035983102017465,
7,0,7,0,4,0,4,0,,,,,,,,,,,,,,,,,,,,,,,,,,,,,,,,,,,,,,,,,,,,,,,,,,,,454.3659928000998,454.3659928000998,0.007735799998044968,0.09769849991425872,6.0,2.557736499933526,,,,,,,,,,,,,,,7152,Moral,2024-08-16_14h25.06.583,MoralCondition_v2,2022.2.5,30.035983102017465,
7,0,7,0,5,0,5,0,,,,,,,,,,,,,,,,,,,,,,,,,,,,,,,,,,,,,,,,,,,,,,,,,,,,456.9660753000062,456.9660753000062,0.007371600018814206,0.097820800030604,3.0,2.824652200099081,,,,,,,,,,,,,,,7152,Moral,2024-08-16_14h25.06.583,MoralCondition_v2,2022.2.5,30.035983102017465,
7,0,7,0,6,0,6,0,,,,,,,,,,,,,,,,,,,,,,,,,,,,,,,,,,,,,,,,,,,,,,,,,,,,459.83253820007667,459.83253820007667,0.006887099938467145,0.09804339986294508,2.0,2.3590169998351485,,,,,,,,,,,,,,,7152,Moral,2024-08-16_14h25.06.583,MoralCondition_v2,2022.2.5,30.035983102017465,
7,0,7,0,,,,,,,,,,,,,,,,,,,,,,,,,,,,,,,,,,,,,,,,,,,,,,,,,,,,,,,,,,,,,,462.2323958000634,462.2323958000634,0.0006972998380661011,0.09904299979098141,6.0,8.866255400003865,,,,,,,,,7152,Moral,2024-08-16_14h25.06.583,MoralCondition_v2,2022.2.5,30.035983102017465,
8,0,8,0,0,0,0,0,,,,,,,,,,,,,,,,,,,,,,471.13266830006614,0.0002637000288814306,0.09746130020357668,477.13245819997974,6.031031800201163,477.3493308001198,477.3493308001198,0.11219920008443296,0.2146111000329256,6.0143309000413865,483.4157491000369,483.4157491000369,483.4157491000369,0.07603499991819263,0.18122489983215928,489.1159090001602,489.31566429999657,6.014153599971905,6.114286199910566,495.315835100133,12.014424199936911,495.4490875999909,495.4490875999909,0.014317199820652604,0.11428049975074828,down,0.20213029976002872,495.715850800043,4.069996066391468e-05,0.09800300002098083,501.7492780999746,501.7492780999746,0.025259200017899275,0.1313469000160694,5.0,2.007106199860573,,,,,,,495.3989381000865,495.3989381000865,,,,,,,7152,Moral,2024-08-16_14h25.06.583,MoralCondition_v2,2022.2.5,30.035983102017465,
8,0,8,0,1,0,1,0,,,,,,,,,,,,,,,,,,,,,,,,,,,,,,,,,,,,,,,,,,,,,,,,,,,,503.78240170003846,503.78240170003846,0.007401500130072236,0.09938789997249842,5.0,1.0931039000861347,,,,,,,,,,,,,,,7152,Moral,2024-08-16_14h25.06.583,MoralCondition_v2,2022.2.5,30.035983102017465,
8,0,8,0,2,0,2,0,,,,,,,,,,,,,,,,,,,,,,,,,,,,,,,,,,,,,,,,,,,,,,,,,,,,504.9155944001395,504.9155944001395,0.00764059997163713,0.09782500006258488,6.0,1.4244431999977678,,,,,,,,,,,,,,,7152,Moral,2024-08-16_14h25.06.583,MoralCondition_v2,2022.2.5,30.035983102017465,
8,0,8,0,3,0,3,0,,,,,,,,,,,,,,,,,,,,,,,,,,,,,,,,,,,,,,,,,,,,,,,,,,,,506.382419800153,506.382419800153,0.00740360002964735,0.09777220012620091,6.0,1.4912426001392305,,,,,,,,,,,,,,,7152,Moral,2024-08-16_14h25.06.583,MoralCondition_v2,2022.2.5,30.035983102017465,
8,0,8,0,4,0,4,0,,,,,,,,,,,,,,,,,,,,,,,,,,,,,,,,,,,,,,,,,,,,,,,,,,,,507.9154615001753,507.9154615001753,0.010638700099661946,0.09735499997623265,1.0,2.788015300175175,,,,,,,,,,,,,,,7152,Moral,2024-08-16_14h25.06.583,MoralCondition_v2,2022.2.5,30.035983102017465,
8,0,8,0,5,0,5,0,,,,,,,,,,,,,,,,,,,,,,,,,,,,,,,,,,,,,,,,,,,,,,,,,,,,510.7489825000521,510.7489825000521,0.007686699973419309,0.09808739996515214,6.0,2.4913325998932123,,,,,,,,,,,,,,,7152,Moral,2024-08-16_14h25.06.583,MoralCondition_v2,2022.2.5,30.035983102017465,
8,0,8,0,6,0,6,0,,,,,,,,,,,,,,,,,,,,,,,,,,,,,,,,,,,,,,,,,,,,,,,,,,,,513.2822197000496,513.2822197000496,0.006534000160172582,0.09901989996433258,6.0,1.0935262001585215,,,,,,,,,,,,,,,7152,Moral,2024-08-16_14h25.06.583,MoralCondition_v2,2022.2.5,30.035983102017465,
8,0,8,0,,,,,,,,,,,,,,,,,,,,,,,,,,,,,,,,,,,,,,,,,,,,,,,,,,,,,,,,,,,,,,514.4158519001212,514.4158519001212,0.0013275998644530773,0.09774850006215274,2.0,7.297820199979469,,,,,,,,,7152,Moral,2024-08-16_14h25.06.583,MoralCondition_v2,2022.2.5,30.035983102017465,
9,0,9,0,0,0,0,0,,,,,,,,,,,,,,,,,,,,,,521.7490378001239,0.0001322000753134489,0.09918450005352497,527.7656196001917,6.015715199988335,527.9322891000193,527.9322891000193,0.07745139999315143,0.18259239988401532,6.0157554999459535,534.0324763001408,534.0324763001408,534.0324763001408,0.07741789985448122,0.18246299983002245,539.7322891000658,539.9328259001486,6.016337699955329,6.116005499847233,545.9322055999655,12.015706399921328,546.0655486001633,546.0655486001633,0.015860399696975946,0.11568599985912442,down,0.6334308998193592,546.7488802999724,7.690000347793102e-05,0.09810879989527166,552.7656859999988,552.7656859999988,0.022035100031644106,0.11482329992577434,6.0,1.8603148001711816,,,,,,,546.0322319001425,546.0322319001425,,533.9322377999779,533.9322377999779,,,,7152,Moral,2024-08-16_14h25.06.583,MoralCondition_v2,2022.2.5,30.035983102017465,
9,0,9,0,1,0,1,0,,,,,,,,,,,,,,,,,,,,,,,,,,,,,,,,,,,,,,,,,,,,,,,,,,,,554.6655248000752,554.6655248000752,0.007720900001004338,0.09903879999183118,6.0,0.8256677000317723,,,,,,,,,,,,,,,7152,Moral,2024-08-16_14h25.06.583,MoralCondition_v2,2022.2.5,30.035983102017465,
9,0,9,0,2,0,2,0,,,,,,,,,,,,,,,,,,,,,,,,,,,,,,,,,,,,,,,,,,,,,,,,,,,,555.5322348000482,555.5322348000482,0.0068900000769644976,0.09911209996789694,1.0,1.8264770000241697,,,,,,,,,,,,,,,7152,Moral,2024-08-16_14h25.06.583,MoralCondition_v2,2022.2.5,30.035983102017465,
9,0,9,0,3,0,3,0,,,,,,,,,,,,,,,,,,,,,,,,,,,,,,,,,,,,,,,,,,,,,,,,,,,,557.399019200122,557.399019200122,0.007407799828797579,0.09761709999293089,5.0,1.8244779000524431,,,,,,,,,,,,,,,7152,Moral,2024-08-16_14h25.06.583,MoralCondition_v2,2022.2.5,30.035983102017465,
9,0,9,0,4,0,4,0,,,,,,,,,,,,,,,,,,,,,,,,,,,,,,,,,,,,,,,,,,,,,,,,,,,,559.2655360000208,559.2655360000208,0.007558000041171908,0.09758699988014996,6.0,1.3244535000994802,,,,,,,,,,,,,,,7152,Moral,2024-08-16_14h25.06.583,MoralCondition_v2,2022.2.5,30.035983102017465,
9,0,9,0,5,0,5,0,,,,,,,,,,,,,,,,,,,,,,,,,,,,,,,,,,,,,,,,,,,,,,,,,,,,560.632217900129,560.632217900129,0.0061842999421060085,0.09870350011624396,6.0,1.4935242000501603,,,,,,,,,,,,,,,7152,Moral,2024-08-16_14h25.06.583,MoralCondition_v2,2022.2.5,30.035983102017465,
9,0,9,0,6,0,6,0,,,,,,,,,,,,,,,,,,,,,,,,,,,,,,,,,,,,,,,,,,,,,,,,,,,,562.1655164000113,562.1655164000113,0.007988500175997615,0.09936470002867281,6.0,3.325628099963069,,,,,,,,,,,,,,,7152,Moral,2024-08-16_14h25.06.583,MoralCondition_v2,2022.2.5,30.035983102017465,
9,0,9,0,,,,,,,,,,,,,,,,,,,,,,,,,,,,,,,,,,,,,,,,,,,,,,,,,,,,,,,,,,,,,,565.5324045000598,565.5324045000598,0.00163870002143085,0.0977791000623256,2.0,7.230816200142726,,,,,,,,,7152,Moral,2024-08-16_14h25.06.583,MoralCondition_v2,2022.2.5,30.035983102017465,
10,0,10,0,0,0,0,0,,,,,,,,,,,,,,,,,,,,,,572.7991718000267,0.0001346999779343605,0.09926729998551309,578.7986447000876,6.015731599880382,578.9656017001253,578.9656017001253,0.052609199890866876,0.16592529974877834,5.999096099752933,585.0655356000643,585.0655356000643,585.0655356000643,0.0531745997723192,0.16574599966406822,590.7653816000093,590.9988535000011,5.999014399712905,6.099069599760696,596.9986954000778,11.999002499738708,597.0987092000432,597.0987092000432,-0.00012780027464032173,0.09922249964438379,down,0.5124081999529153,597.665356800193,5.530007183551788e-05,0.09790709987282753,603.6820680000819,603.6820680000819,0.00915759988129139,0.11463809991255403,6.0,2.0064475000835955,,,,,,,597.0653405000921,597.0653405000921,603.6820680000819,584.9653986999765,584.9653986999765,6.099003199953586,6.0991033997852355,12.099045099690557,7152,Moral,2024-08-16_14h25.06.583,MoralCondition_v2,2022.2.5,30.035983102017465,
10,0,10,0,1,0,1,0,,,,,,,,,,,,,,,,,,,,,,,,,,,,,,,,,,,,,,,,,,,,,,,,,,,,605.7154263001867,605.7154263001867,0.006940700113773346,0.09889909997582436,5.0,2.393130399985239,,,,,,,,,,,,,,,7152,Moral,2024-08-16_14h25.06.583,MoralCondition_v2,2022.2.5,30.035983102017465,
10,0,10,0,2,0,2,0,,,,,,,,,,,,,,,,,,,,,,,,,,,,,,,,,,,,,,,,,,,,,,,,,,,,608.1487120001111,608.1487120001111,0.0064384001307189465,0.0989882000721991,6.0,1.6602908000349998,,,,,,,,,,,,,,,7152,Moral,2024-08-16_14h25.06.583,MoralCondition_v2,2022.2.5,30.035983102017465,
10,0,10,0,3,0,3,0,,,,,,,,,,,,,,,,,,,,,,,,,,,,,,,,,,,,,,,,,,,,,,,,,,,,609.8486180000473,609.8486180000473,0.006049900082871318,0.09854070004075766,1.0,1.9271062000188977,,,,,,,,,,,,,,,7152,Moral,2024-08-16_14h25.06.583,MoralCondition_v2,2022.2.5,30.035983102017465,
10,0,10,0,4,0,4,0,,,,,,,,,,,,,,,,,,,,,,,,,,,,,,,,,,,,,,,,,,,,,,,,,,,,611.8153101000935,611.8153101000935,0.007096600020304322,0.09883599984459579,6.0,1.9262457001022995,,,,,,,,,,,,,,,7152,Moral,2024-08-16_14h25.06.583,MoralCondition_v2,2022.2.5,30.035983102017465,
10,0,10,0,5,0,5,0,,,,,,,,,,,,,,,,,,,,,,,,,,,,,,,,,,,,,,,,,,,,,,,,,,,,613.7820005000103,613.7820005000103,0.006823700154200196,0.09870960004627705,5.0,3.49309269990772,,,,,,,,,,,,,,,7152,Moral,2024-08-16_14h25.06.583,MoralCondition_v2,2022.2.5,30.035983102017465,
10,0,10,0,6,0,6,0,,,,,,,,,,,,,,,,,,,,,,,,,,,,,,,,,,,,,,,,,,,,,,,,,,,,617.3153208000585,617.3153208000585,0.007812299998477101,0.09768929984420538,6.0,1.4910948001779616,,,,,,,,,,,,,,,7152,Moral,2024-08-16_14h25.06.583,MoralCondition_v2,2022.2.5,30.035983102017465,
10,0,10,0,,,,,,,,,,,,,,,,,,,,,,,,,,,,,,,,,,,,,,,,,,,,,,,,,,,,,,,,,,,,,,618.8487152000889,618.8487152000889,0.0019044000655412674,0.09780950006097555,2.0,3.0304813999682665,,,,,,,,,7152,Moral,2024-08-16_14h25.06.583,MoralCondition_v2,2022.2.5,30.035983102017465,
11,0,11,0,0,0,0,0,,,,,,,,,,,,,,,,,,,,,,621.915533100022,0.00015949993394315243,0.11563969985581934,627.9152491001878,6.032359799835831,628.115407400066,628.115407400066,0.08585539972409606,0.19911209982819855,6.032289599766955,634.2152323999908,634.2152323999908,634.2152323999908,0.09062219969928265,0.19898469978943467,639.9154764001723,640.0818646000698,6.0322703996207565,6.132605899590999,646.0818227999844,11.9990032997448,646.2151911000255,646.2151911000255,-0.00013440032489597797,0.0988716995343566,up,0.46810229984112084,646.7487173001282,4.810001701116562e-05,0.09789619990624487,652.7483409000561,652.7483409000561,0.006599399959668517,0.09776340005919337,1.0,4.392179100075737,,,,,,,646.2151911000255,646.2151911000255,652.7483409000561,634.1152427000925,634.1152427000925,,,12.098943699616939,7152,Moral,2024-08-16_14h25.06.583,MoralCondition_v2,2022.2.5,30.035983102017465,
11,0,11,0,1,0,1,0,,,,,,,,,,,,,,,,,,,,,,,,,,,,,,,,,,,,,,,,,,,,,,,,,,,,657.1818793001585,657.1818793001585,0.006486300146207213,0.0982962001580745,1.0,1.8262521000579,,,,,,,,,,,,,,,7152,Moral,2024-08-16_14h25.06.583,MoralCondition_v2,2022.2.5,30.035983102017465,
11,0,11,0,2,0,2,0,,,,,,,,,,,,,,,,,,,,,,,,,,,,,,,,,,,,,,,,,,,,,,,,,,,,659.0486256000586,659.0486256000586,0.006980899954214692,0.09812540002167225,1.0,0.9254845001269132,,,,,,,,,,,,,,,7152,Moral,2024-08-16_14h25.06.583,MoralCondition_v2,2022.2.5,30.035983102017465,
11,0,11,0,3,0,3,0,,,,,,,,,,,,,,,,,,,,,,,,,,,,,,,,,,,,,,,,,,,,,,,,,,,,660.0151651999913,660.0151651999913,0.006733499933034182,0.09934580000117421,6.0,2.426931200083345,,,,,,,,,,,,,,,7152,Moral,2024-08-16_14h25.06.583,MoralCondition_v2,2022.2.5,30.035983102017465,
11,0,11,0,4,0,4,0,,,,,,,,,,,,,,,,,,,,,,,,,,,,,,,,,,,,,,,,,,,,,,,,,,,,662.4820913001895,662.4820913001895,0.006675000069662929,0.09901620005257428,2.0,2.2598600001074374,,,,,,,,,,,,,,,7152,Moral,2024-08-16_14h25.06.583,MoralCondition_v2,2022.2.5,30.035983102017465,
11,0,11,0,5,0,5,0,,,,,,,,,,,,,,,,,,,,,,,,,,,,,,,,,,,,,,,,,,,,,,,,,,,,664.798746000044,664.798746000044,0.0077355001121759415,0.11452149995602667,2.0,1.140885700006038,,,,,,,,,,,,,,,7152,Moral,2024-08-16_14h25.06.583,MoralCondition_v2,2022.2.5,30.035983102017465,
11,0,11,0,6,0,6,0,,,,,,,,,,,,,,,,,,,,,,,,,,,,,,,,,,,,,,,,,,,,,,,,,,,,665.9650725000538,665.9650725000538,0.006592300022020936,0.09923700010403991,2.0,0.9602599998470396,,,,,,,,,,,,,,,7152,Moral,2024-08-16_14h25.06.583,MoralCondition_v2,2022.2.5,30.035983102017465,
11,0,11,0,,,,,,,,,,,,,,,,,,,,,,,,,,,,,,,,,,,,,,,,,,,,,,,,,,,,,,,,,,,,,,666.9652146999724,666.9652146999724,0.001149199903011322,0.09806719981133938,6.0,3.6314216000027955,,,,,,,,,7152,Moral,2024-08-16_14h25.06.583,MoralCondition_v2,2022.2.5,30.035983102017465,
12,0,12,0,0,0,0,0,,,,,,,,,,,,,,,,,,,,,,670.6319363000803,0.00023450003936886787,0.09836610010825098,676.6148608999792,6.014734300086275,676.8486601000186,676.8486601000186,0.10464160004630685,0.2150512000080198,6.0148642000276595,682.9150925001595,682.9150925001595,682.9150925001595,0.06754819978959858,0.1818237998522818,688.6149782000575,688.8151460001245,6.015017399797216,6.114733199821785,694.8150863000192,12.0149840998929,694.9315452000592,694.9315452000592,0.014869199832901359,0.09813329973258078,up,0.7676809998229146,695.7649688001256,5.1999930292367935e-05,0.09815320000052452,701.7818154999986,701.7818154999986,0.009707399876788259,0.11483289999887347,2.0,3.672543899854645,,,,,,,694.8982449001633,694.8982449001633,701.7818154999986,,,,,,7152,Moral,2024-08-16_14h25.06.583,MoralCondition_v2,2022.2.5,30.035983102017465,
12,0,12,0,1,0,1,0,,,,,,,,,,,,,,,,,,,,,,,,,,,,,,,,,,,,,,,,,,,,,,,,,,,,705.481615900062,705.481615900062,0.007123699877411127,0.09821319999173284,2.0,0.8920094999484718,,,,,,,,,,,,,,,7152,Moral,2024-08-16_14h25.06.583,MoralCondition_v2,2022.2.5,30.035983102017465,
12,0,12,0,2,0,2,0,,,,,,,,,,,,,,,,,,,,,,,,,,,,,,,,,,,,,,,,,,,,,,,,,,,,706.4148972001858,706.4148972001858,0.006646400084719062,0.0992565001361072,6.0,2.2268374001141638,,,,,,,,,,,,,,,7152,Moral,2024-08-16_14h25.06.583,MoralCondition_v2,2022.2.5,30.035983102017465,
12,0,12,0,3,0,3,0,,,,,,,,,,,,,,,,,,,,,,,,,,,,,,,,,,,,,,,,,,,,,,,,,,,,708.6815196999814,708.6815196999814,0.0063477999065071344,0.09917269996367395,2.0,1.693864099914208,,,,,,,,,,,,,,,7152,Moral,2024-08-16_14h25.06.583,MoralCondition_v2,2022.2.5,30.035983102017465,
12,0,12,0,4,0,4,0,,,,,,,,,,,,,,,,,,,,,,,,,,,,,,,,,,,,,,,,,,,,,,,,,,,,710.4148948001675,710.4148948001675,0.006504700053483248,0.09909290005452931,2.0,0.9600030998699367,,,,,,,,,,,,,,,7152,Moral,2024-08-16_14h25.06.583,MoralCondition_v2,2022.2.5,30.035983102017465,
12,0,12,0,5,0,5,0,,,,,,,,,,,,,,,,,,,,,,,,,,,,,,,,,,,,,,,,,,,,,,,,,,,,711.4147759000771,711.4147759000771,0.006825000047683716,0.09863619995303452,2.0,0.9263889999128878,,,,,,,,,,,,,,,7152,Moral,2024-08-16_14h25.06.583,MoralCondition_v2,2022.2.5,30.035983102017465,
12,0,12,0,6,0,6,0,,,,,,,,,,,,,,,,,,,,,,,,,,,,,,,,,,,,,,,,,,,,,,,,,,,,712.3816943999846,712.3816943999846,0.008202699944376945,0.09790239995345473,2.0,1.524093999993056,,,,,,,,,,,,,,,7152,Moral,2024-08-16_14h25.06.583,MoralCondition_v2,2022.2.5,30.035983102017465,
12,0,12,0,,,,,,,,,,,,,,,,,,,,,,,,,,,,,,,,,,,,,,,,,,,,,,,,,,,,,,,,,,,,,,713.9483346000779,713.9483346000779,0.0007294001989066601,0.09922640002332628,6.0,7.999380399938673,,,,,,,,,7152,Moral,2024-08-16_14h25.06.583,MoralCondition_v2,2022.2.5,30.035983102017465,
13,0,13,0,0,0,0,0,,,,,,,,,,,,,,,,,,,,,,721.981812500162,0.0002592999953776598,0.09788609994575381,727.9815287999809,6.031265999889001,728.1648852000944,728.1648852000944,0.0734584997408092,0.18141189985908568,6.014470099937171,734.2648569999728,734.2648569999728,734.2648569999728,0.07303079986013472,0.1814587996341288,739.9647872999776,740.1648115999997,6.014559199800715,6.114541799761355,746.1649051001295,12.014687999850139,746.2981900000013,746.2981900000013,0.014636899577453732,0.11458479962311685,down,0.5528522999957204,746.8980885001365,4.0400074794888496e-05,0.09788929997012019,752.9148491001688,752.9148491001688,0.009299200028181076,0.11457310011610389,6.0,2.7061899001710117,,,,,,,746.2647628001869,746.2647628001869,752.9148491001688,734.1648524000775,734.1648524000775,,,,7152,Moral,2024-08-16_14h25.06.583,MoralCondition_v2,2022.2.5,30.035983102017465,
13,0,13,0,1,0,1,0,,,,,,,,,,,,,,,,,,,,,,,,,,,,,,,,,,,,,,,,,,,,,,,,,,,,755.6478856001049,755.6478856001049,0.006684400141239166,0.0994248001370579,6.0,1.0936724001076072,,,,,,,,,,,,,,,7152,Moral,2024-08-16_14h25.06.583,MoralCondition_v2,2022.2.5,30.035983102017465,
13,0,13,0,2,0,2,0,,,,,,,,,,,,,,,,,,,,,,,,,,,,,,,,,,,,,,,,,,,,,,,,,,,,756.798281900119,756.798281900119,0.00876230001449585,0.11468779994174838,6.0,1.173497799783945,,,,,,,,,,,,,,,7152,Moral,2024-08-16_14h25.06.583,MoralCondition_v2,2022.2.5,30.035983102017465,
13,0,13,0,3,0,3,0,,,,,,,,,,,,,,,,,,,,,,,,,,,,,,,,,,,,,,,,,,,,,,,,,,,,757.9980050001759,757.9980050001759,0.007702300092205405,0.09807180007919669,6.0,0.9245953001081944,,,,,,,,,,,,,,,7152,Moral,2024-08-16_14h25.06.583,MoralCondition_v2,2022.2.5,30.035983102017465,
13,0,13,0,4,0,4,0,,,,,,,,,,,,,,,,,,,,,,,,,,,,,,,,,,,,,,,,,,,,,,,,,,,,758.9648400000297,758.9648400000297,0.0067789999302476645,0.09907300001941621,6.0,0.9266174999065697,,,,,,,,,,,,,,,7152,Moral,2024-08-16_14h25.06.583,MoralCondition_v2,2022.2.5,30.035983102017465,
13,0,13,0,5,0,5,0,,,,,,,,,,,,,,,,,,,,,,,,,,,,,,,,,,,,,,,,,,,,,,,,,,,,759.9485889000352,759.9485889000352,0.008442299906164408,0.1144930999726057,6.0,1.207220499869436,,,,,,,,,,,,,,,7152,Moral,2024-08-16_14h25.06.583,MoralCondition_v2,2022.2.5,30.035983102017465,
13,0,13,0,6,0,6,0,,,,,,,,,,,,,,,,,,,,,,,,,,,,,,,,,,,,,,,,,,,,,,,,,,,,761.181283300044,761.181283300044,0.007729499833658338,0.09777899994514883,1.0,1.9578433001879603,,,,,,,,,,,,,,,7152,Moral,2024-08-16_14h25.06.583,MoralCondition_v2,2022.2.5,30.035983102017465,
13,0,13,0,,,,,,,,,,,,,,,,,,,,,,,,,,,,,,,,,,,,,,,,,,,,,,,,,,,,,,,,,,,,,,763.1814927000087,763.1814927000087,0.0012415999080985785,0.097950299968943,2.0,3.797925299964845,,,,,,,,,7152,Moral,2024-08-16_14h25.06.583,MoralCondition_v2,2022.2.5,30.035983102017465,
14,0,14,0,0,0,0,0,,,,,,,,,,,,,,,,,,,,,,767.0147313000634,0.0001354999840259552,0.0991947001311928,773.0313548999839,6.015844800043851,773.1980312999804,773.1980312999804,0.07105999998748302,0.18269389984197915,6.0158937999513,779.298360500019,779.298360500019,779.298360500019,0.07132189976982772,0.18275579973123968,784.9981857000384,785.1980198000092,6.015884099761024,6.115835199831054,791.1979356000666,12.015796999912709,791.3312688001897,791.3312688001897,0.01594699965789914,0.11571849975734949,down,0.7518083998002112,792.1312734000385,4.2999861761927605e-05,0.0977795000653714,798.1480553001165,798.1480553001165,0.009445399977266788,0.11445709993131459,6.0,2.172696700086817,,,,,,,791.2979145999998,791.2979145999998,798.1480553001165,779.1979541999754,779.1979541999754,,,,7152,Moral,2024-08-16_14h25.06.583,MoralCondition_v2,2022.2.5,30.035983102017465,
14,0,14,0,1,0,1,0,,,,,,,,,,,,,,,,,,,,,,,,,,,,,,,,,,,,,,,,,,,,,,,,,,,,800.3648147999775,800.3648147999775,0.009138200199231505,0.11390390014275908,6.0,1.1723394999280572,,,,,,,,,,,,,,,7152,Moral,2024-08-16_14h25.06.583,MoralCondition_v2,2022.2.5,30.035983102017465,
14,0,14,0,2,0,2,0,,,,,,,,,,,,,,,,,,,,,,,,,,,,,,,,,,,,,,,,,,,,,,,,,,,,801.5811446001753,801.5811446001753,0.009065499994903803,0.11359019996598363,6.0,1.0389072999823838,,,,,,,,,,,,,,,7152,Moral,2024-08-16_14h25.06.583,MoralCondition_v2,2022.2.5,30.035983102017465,
14,0,14,0,3,0,3,0,,,,,,,,,,,,,,,,,,,,,,,,,,,,,,,,,,,,,,,,,,,,,,,,,,,,802.6477839001454,802.6477839001454,0.007421300048008561,0.09765959996730089,6.0,1.0913726999424398,,,,,,,,,,,,,,,7152,Moral,2024-08-16_14h25.06.583,MoralCondition_v2,2022.2.5,30.035983102017465,
14,0,14,0,4,0,4,0,,,,,,,,,,,,,,,,,,,,,,,,,,,,,,,,,,,,,,,,,,,,,,,,,,,,803.7812610000838,803.7812610000838,0.0074257999658584595,0.09765589982271194,6.0,2.9913585998583585,,,,,,,,,,,,,,,7152,Moral,2024-08-16_14h25.06.583,MoralCondition_v2,2022.2.5,30.035983102017465,
14,0,14,0,5,0,5,0,,,,,,,,,,,,,,,,,,,,,,,,,,,,,,,,,,,,,,,,,,,,,,,,,,,,806.8146657000761,806.8146657000761,0.006673699943348765,0.09917790000326931,6.0,1.6267321000341326,,,,,,,,,,,,,,,7152,Moral,2024-08-16_14h25.06.583,MoralCondition_v2,2022.2.5,30.035983102017465,
14,0,14,0,6,0,6,0,,,,,,,,,,,,,,,,,,,,,,,,,,,,,,,,,,,,,,,,,,,,,,,,,,,,808.481112500187,808.481112500187,0.007368199992924929,0.09769869991578162,1.0,1.858115900075063,,,,,,,,,,,,,,,7152,Moral,2024-08-16_14h25.06.583,MoralCondition_v2,2022.2.5,30.035983102017465,
14,0,14,0,,,,,,,,,,,,,,,,,,,,,,,,,,,,,,,,,,,,,,,,,,,,,,,,,,,,,,,,,,,,,,810.3814724001568,810.3814724001568,0.0011841000523418188,0.09821149986237288,2.0,3.3316114000044763,,,,,,,,,7152,Moral,2024-08-16_14h25.06.583,MoralCondition_v2,2022.2.5,30.035983102017465,
15,0,15,0,0,0,0,0,,,,,,,,,,,,,,,,,,,,,,813.7481015999801,0.0002247001975774765,0.09806540003046393,819.7477963001002,6.03135360009037,819.9312415001914,819.9312415001914,0.0695380000397563,0.18140810006298125,6.014767199987546,826.031147700036,826.031147700036,826.031147700036,0.07285749982111156,0.18129939981736243,831.7310783001594,831.9310537001584,6.01461339998059,6.114707099972293,837.9311938001774,12.014770299894735,838.0644231999759,838.0644231999759,0.014753199880942702,0.11468329979106784,up,0.5065913998987526,838.6311151001137,4.2800093069672585e-05,0.09810529998503625,844.6479193000123,844.6479193000123,0.009974300162866712,0.11473260005004704,2.0,2.9390628999099135,,,,,,,838.031061100075,838.031061100075,844.6479193000123,825.9311204999685,825.9311204999685,,,,7152,Moral,2024-08-16_14h25.06.583,MoralCondition_v2,2022.2.5,30.035983102017465,
15,0,15,0,1,0,1,0,,,,,,,,,,,,,,,,,,,,,,,,,,,,,,,,,,,,,,,,,,,,,,,,,,,,847.6310598000418,847.6310598000418,0.009838499827310443,0.11506689991801977,6.0,2.2742919998709112,,,,,,,,,,,,,,,7152,Moral,2024-08-16_14h25.06.583,MoralCondition_v2,2022.2.5,30.035983102017465,
15,0,15,0,2,0,2,0,,,,,,,,,,,,,,,,,,,,,,,,,,,,,,,,,,,,,,,,,,,,,,,,,,,,849.9308337999973,849.9308337999973,0.006623599911108613,0.0988886000122875,2.0,2.259652900043875,,,,,,,,,,,,,,,7152,Moral,2024-08-16_14h25.06.583,MoralCondition_v2,2022.2.5,30.035983102017465,
15,0,15,0,3,0,3,0,,,,,,,,,,,,,,,,,,,,,,,,,,,,,,,,,,,,,,,,,,,,,,,,,,,,852.2309141000733,852.2309141000733,0.006770500214770436,0.09914840012788773,2.0,2.460206199903041,,,,,,,,,,,,,,,7152,Moral,2024-08-16_14h25.06.583,MoralCondition_v2,2022.2.5,30.035983102017465,
15,0,15,0,4,0,4,0,,,,,,,,,,,,,,,,,,,,,,,,,,,,,,,,,,,,,,,,,,,,,,,,,,,,854.7311272001825,854.7311272001825,0.007254899945110083,0.09829859994351864,2.0,0.7587432998698205,,,,,,,,,,,,,,,7152,Moral,2024-08-16_14h25.06.583,MoralCondition_v2,2022.2.5,30.035983102017465,
15,0,15,0,5,0,5,0,,,,,,,,,,,,,,,,,,,,,,,,,,,,,,,,,,,,,,,,,,,,,,,,,,,,855.5310832001269,855.5310832001269,0.006876900093629956,0.09897679998539388,2.0,0.7265015000011772,,,,,,,,,,,,,,,7152,Moral,2024-08-16_14h25.06.583,MoralCondition_v2,2022.2.5,30.035983102017465,
15,0,15,0,6,0,6,0,,,,,,,,,,,,,,,,,,,,,,,,,,,,,,,,,,,,,,,,,,,,,,,,,,,,856.2977919999976,856.2977919999976,0.007966699777171016,0.09756039991043508,2.0,1.0572770999278873,,,,,,,,,,,,,,,7152,Moral,2024-08-16_14h25.06.583,MoralCondition_v2,2022.2.5,30.035983102017465,
15,0,15,0,,,,,,,,,,,,,,,,,,,,,,,,,,,,,,,,,,,,,,,,,,,,,,,,,,,,,,,,,,,,,,857.3976155000273,857.3976155000273,0.00215600011870265,0.09695290005765855,6.0,3.462945600040257,,,,,,,,,7152,Moral,2024-08-16_14h25.06.583,MoralCondition_v2,2022.2.5,30.035983102017465,
16,0,16,0,0,0,0,0,,,,,,,,,,,,,,,,,,,,,,860.897979100002,0.00015360000543296337,0.09927250002510846,866.9142879000865,6.015981599921361,867.0811205001082,867.0811205001082,0.07162129995413125,0.18262729980051517,6.015875099925324,873.1642247000709,873.1642247000709,873.1642247000709,0.0665807998739183,0.16597349988296628,878.8643253000919,879.0642201001756,5.99921439983882,6.099207899766043,885.0644641001709,11.999485599808395,885.1975521000568,885.1975521000568,8.819974027574062e-05,0.09914489975199103,up,0.4776407000608742,885.7309052001219,4.6900007873773575e-05,0.09769830014556646,891.7312818001956,891.7312818001956,0.009027400054037571,0.09787450009025633,2.0,2.3237182998564094,,,,,,,885.1642360000405,885.1642360000405,891.7312818001956,873.0810932000168,873.0810932000168,,,12.099235099740326,7152,Moral,2024-08-16_14h25.06.583,MoralCondition_v2,2022.2.5,30.035983102017465,
16,0,16,0,1,0,1,0,,,,,,,,,,,,,,,,,,,,,,,,,,,,,,,,,,,,,,,,,,,,,,,,,,,,894.1145077000838,894.1145077000838,0.007846999913454056,0.11434459988959134,2.0,0.9075387998018414,,,,,,,,,,,,,,,7152,Moral,2024-08-16_14h25.06.583,MoralCondition_v2,2022.2.5,30.035983102017465,
16,0,16,0,2,0,2,0,,,,,,,,,,,,,,,,,,,,,,,,,,,,,,,,,,,,,,,,,,,,,,,,,,,,895.0476017000619,895.0476017000619,0.007254800060763955,0.09805730008520186,2.0,0.7252261999528855,,,,,,,,,,,,,,,7152,Moral,2024-08-16_14h25.06.583,MoralCondition_v2,2022.2.5,30.035983102017465,
16,0,16,0,3,0,3,0,,,,,,,,,,,,,,,,,,,,,,,,,,,,,,,,,,,,,,,,,,,,,,,,,,,,895.8141921001952,895.8141921001952,0.006728899898007512,0.09913420001976192,2.0,1.0602786999661475,,,,,,,,,,,,,,,7152,Moral,2024-08-16_14h25.06.583,MoralCondition_v2,2022.2.5,30.035983102017465,
16,0,16,0,4,0,4,0,,,,,,,,,,,,,,,,,,,,,,,,,,,,,,,,,,,,,,,,,,,,,,,,,,,,896.9143638999667,896.9143638999667,0.007658899994567037,0.09775949991308153,2.0,0.8577906999271363,,,,,,,,,,,,,,,7152,Moral,2024-08-16_14h25.06.583,MoralCondition_v2,2022.2.5,30.035983102017465,
16,0,16,0,5,0,5,0,,,,,,,,,,,,,,,,,,,,,,,,,,,,,,,,,,,,,,,,,,,,,,,,,,,,897.8141108001582,897.8141108001582,0.007054300047457218,0.09881630004383624,6.0,2.226190499961376,,,,,,,,,,,,,,,7152,Moral,2024-08-16_14h25.06.583,MoralCondition_v2,2022.2.5,30.035983102017465,
16,0,16,0,6,0,6,0,,,,,,,,,,,,,,,,,,,,,,,,,,,,,,,,,,,,,,,,,,,,,,,,,,,,900.0807099000085,900.0807099000085,0.006703999824821949,0.09910129988566041,2.0,2.1267466000281274,,,,,,,,,,,,,,,7152,Moral,2024-08-16_14h25.06.583,MoralCondition_v2,2022.2.5,30.035983102017465,
16,0,16,0,,,,,,,,,,,,,,,,,,,,,,,,,,,,,,,,,,,,,,,,,,,,,,,,,,,,,,,,,,,,,,902.247403900139,902.247403900139,0.0010349999647587538,0.09840420004911721,6.0,3.6318316999822855,,,,,,,,,7152,Moral,2024-08-16_14h25.06.583,MoralCondition_v2,2022.2.5,30.035983102017465,
17,0,17,0,0,0,0,0,,,,,,,,,,,,,,,,,,,,,,905.914406800177,0.0003353001084178686,0.09754030010662973,911.9307893000077,6.01416530017741,912.0972955001052,912.0972955001052,0.06962139997631311,0.18086490011774004,6.014154799981043,918.197306800168,918.197306800168,918.197306800168,0.07077759993262589,0.18077600002288818,923.8974287000019,924.0973696999718,6.014110499992967,6.114190599881113,930.0973669001833,12.014113999903202,930.2308829000685,930.2308829000685,0.014299399917945266,0.11407619994133711,down,0.3797044998500496,930.6639771000482,1.3199867680668831e-05,0.09943179995752871,936.6973662001546,936.6973662001546,0.02751179994083941,0.1328852998558432,6.0,3.4396043999586254,,,,,,,930.1973920001183,930.1973920001183,,918.097403400112,918.097403400112,,,,7152,Moral,2024-08-16_14h25.06.583,MoralCondition_v2,2022.2.5,30.035983102017465,
17,0,17,0,1,0,1,0,,,,,,,,,,,,,,,,,,,,,,,,,,,,,,,,,,,,,,,,,,,,,,,,,,,,940.1643940000795,940.1643940000795,0.008044700138270855,0.09742720006033778,6.0,0.9248472999315709,,,,,,,,,,,,,,,7152,Moral,2024-08-16_14h25.06.583,MoralCondition_v2,2022.2.5,30.035983102017465,
17,0,17,0,2,0,2,0,,,,,,,,,,,,,,,,,,,,,,,,,,,,,,,,,,,,,,,,,,,,,,,,,,,,941.1307002000976,941.1307002000976,0.007042900193482637,0.09887260012328625,6.0,0.826120899990201,,,,,,,,,,,,,,,7152,Moral,2024-08-16_14h25.06.583,MoralCondition_v2,2022.2.5,30.035983102017465,
17,0,17,0,3,0,3,0,,,,,,,,,,,,,,,,,,,,,,,,,,,,,,,,,,,,,,,,,,,,,,,,,,,,941.9974041001406,941.9974041001406,0.008930099895223975,0.09827479999512434,5.0,2.9918752000667155,,,,,,,,,,,,,,,7152,Moral,2024-08-16_14h25.06.583,MoralCondition_v2,2022.2.5,30.035983102017465,
17,0,17,0,4,0,4,0,,,,,,,,,,,,,,,,,,,,,,,,,,,,,,,,,,,,,,,,,,,,,,,,,,,,945.0306363999844,945.0306363999844,0.008630599826574326,0.09811110002920032,1.0,3.12374100019224,,,,,,,,,,,,,,,7152,Moral,2024-08-16_14h25.06.583,MoralCondition_v2,2022.2.5,30.035983102017465,
17,0,17,0,5,0,5,0,,,,,,,,,,,,,,,,,,,,,,,,,,,,,,,,,,,,,,,,,,,,,,,,,,,,948.2143227001652,948.2143227001652,0.007896600058302283,0.11434460012242198,6.0,1.6075782000552863,,,,,,,,,,,,,,,7152,Moral,2024-08-16_14h25.06.583,MoralCondition_v2,2022.2.5,30.035983102017465,
17,0,17,0,6,0,6,0,,,,,,,,,,,,,,,,,,,,,,,,,,,,,,,,,,,,,,,,,,,,,,,,,,,,949.8641437999904,949.8641437999904,0.008931099902838469,0.11429979978129268,6.0,1.0062722000293434,,,,,,,,,,,,,,,7152,Moral,2024-08-16_14h25.06.583,MoralCondition_v2,2022.2.5,30.035983102017465,
17,0,17,0,,,,,,,,,,,,,,,,,,,,,,,,,,,,,,,,,,,,,,,,,,,,,,,,,,,,,,,,,,,,,,950.8974657000508,950.8974657000508,0.0015643998049199581,0.09744259994477034,2.0,2.5635553000029176,,,,,,,,,7152,Moral,2024-08-16_14h25.06.583,MoralCondition_v2,2022.2.5,30.035983102017465,
18,0,18,0,0,0,0,0,,,,,,,,,,,,,,,,,,,,,,953.4976308001205,0.0002905000001192093,0.09797669993713498,959.4972426001914,6.031257200054824,959.6970697001088,959.6970697001088,0.08981279982253909,0.1978920998517424,6.031182099832222,965.7969447001815,965.7969447001815,965.7969447001815,0.09118739981204271,0.19775969977490604,971.4972208000254,971.6974204001017,6.031450499780476,6.131195499794558,977.6971632000059,12.031181499827653,977.8304938999936,977.8304938999936,0.03157089976593852,0.1311591996345669,down,0.8767819998320192,978.7472248000558,5.119992420077324e-05,0.09785889997147024,984.7470847000368,984.7470847000368,0.009289899840950966,0.09802759997546673,6.0,1.7229718999005854,,,,,,,977.7971973000094,977.7971973000094,984.7470847000368,965.6972119000275,965.6972119000275,,,,7152,Moral,2024-08-16_14h25.06.583,MoralCondition_v2,2022.2.5,30.035983102017465,
18,0,18,0,1,0,1,0,,,,,,,,,,,,,,,,,,,,,,,,,,,,,,,,,,,,,,,,,,,,,,,,,,,,986.513728500111,986.513728500111,0.007688299985602498,0.09757109987549484,5.0,1.8575563000049442,,,,,,,,,,,,,,,7152,Moral,2024-08-16_14h25.06.583,MoralCondition_v2,2022.2.5,30.035983102017465,
18,0,18,0,2,0,2,0,,,,,,,,,,,,,,,,,,,,,,,,,,,,,,,,,,,,,,,,,,,,,,,,,,,,988.4138871000614,988.4138871000614,0.008583399932831526,0.0978848000522703,2.0,1.7905325999017805,,,,,,,,,,,,,,,7152,Moral,2024-08-16_14h25.06.583,MoralCondition_v2,2022.2.5,30.035983102017465,
18,0,18,0,3,0,3,0,,,,,,,,,,,,,,,,,,,,,,,,,,,,,,,,,,,,,,,,,,,,,,,,,,,,990.2639978001826,990.2639978001826,0.007294700015336275,0.11437710002064705,6.0,1.7414202000945807,,,,,,,,,,,,,,,7152,Moral,2024-08-16_14h25.06.583,MoralCondition_v2,2022.2.5,30.035983102017465,
18,0,18,0,4,0,4,0,,,,,,,,,,,,,,,,,,,,,,,,,,,,,,,,,,,,,,,,,,,,,,,,,,,,992.0304337001871,992.0304337001871,0.007316200062632561,0.09910509991459548,6.0,0.8928731000050902,,,,,,,,,,,,,,,7152,Moral,2024-08-16_14h25.06.583,MoralCondition_v2,2022.2.5,30.035983102017465,
18,0,18,0,5,0,5,0,,,,,,,,,,,,,,,,,,,,,,,,,,,,,,,,,,,,,,,,,,,,,,,,,,,,992.9637563000433,992.9637563000433,0.006750599946826696,0.09902239986695349,6.0,1.3601145998109132,,,,,,,,,,,,,,,7152,Moral,2024-08-16_14h25.06.583,MoralCondition_v2,2022.2.5,30.035983102017465,
18,0,18,0,6,0,6,0,,,,,,,,,,,,,,,,,,,,,,,,,,,,,,,,,,,,,,,,,,,,,,,,,,,,994.3807089000475,994.3807089000475,0.010736300144344568,0.11407830007374287,6.0,0.9044022001326084,,,,,,,,,,,,,,,7152,Moral,2024-08-16_14h25.06.583,MoralCondition_v2,2022.2.5,30.035983102017465,
18,0,18,0,,,,,,,,,,,,,,,,,,,,,,,,,,,,,,,,,,,,,,,,,,,,,,,,,,,,,,,,,,,,,,995.3138276000973,995.3138276000973,0.0011356999166309834,0.098160499939695,2.0,2.0317265999037772,,,,,,,,,7152,Moral,2024-08-16_14h25.06.583,MoralCondition_v2,2022.2.5,30.035983102017465,
19,0,19,0,0,0,0,0,,,,,,,,,,,,,,,,,,,,,,997.3807496000081,0.00026670005172491074,0.09760350012220442,1003.3803799999878,6.03095220006071,1003.5806026000064,1003.5806026000064,0.08637709985487163,0.19780789990909398,6.030935799935833,1009.6804836001247,1009.6804836001247,1009.6804836001247,0.08486939989961684,0.19762509991414845,1015.3803818000015,1015.5802972000092,6.030937699833885,6.131011699791998,1021.5804109000601,12.030974499881268,1021.7137951001059,1021.7137951001059,0.031122499844059348,0.13091919966973364,up,0.5608331998810172,1022.3137513000984,8.999998681247234e-05,0.09792079986073077,1028.330593300052,1028.330593300052,0.009204600006341934,0.11461189994588494,2.0,1.806521899998188,,,,,,,1021.6804127001669,1021.6804127001669,1028.330593300052,1009.580414700089,1009.580414700089,,,,7152,Moral,2024-08-16_14h25.06.583,MoralCondition_v2,2022.2.5,30.035983102017465,
19,0,19,0,1,0,1,0,,,,,,,,,,,,,,,,,,,,,,,,,,,,,,,,,,,,,,,,,,,,,,,,,,,,1030.163756800117,1030.163756800117,0.006499800132587552,0.099475699942559,2.0,0.7938243998214602,,,,,,,,,,,,,,,7152,Moral,2024-08-16_14h25.06.583,MoralCondition_v2,2022.2.5,30.035983102017465,
19,0,19,0,2,0,2,0,,,,,,,,,,,,,,,,,,,,,,,,,,,,,,,,,,,,,,,,,,,,,,,,,,,,1031.0136439001653,1031.0136439001653,0.00756649998947978,0.11407550005242229,2.0,1.5075730001553893,,,,,,,,,,,,,,,7152,Moral,2024-08-16_14h25.06.583,MoralCondition_v2,2022.2.5,30.035983102017465,
19,0,19,0,3,0,3,0,,,,,,,,,,,,,,,,,,,,,,,,,,,,,,,,,,,,,,,,,,,,,,,,,,,,1032.5471179999877,1032.5471179999877,0.007810099981725216,0.09775179997086525,2.0,1.3909975998103619,,,,,,,,,,,,,,,7152,Moral,2024-08-16_14h25.06.583,MoralCondition_v2,2022.2.5,30.035983102017465,
19,0,19,0,4,0,4,0,,,,,,,,,,,,,,,,,,,,,,,,,,,,,,,,,,,,,,,,,,,,,,,,,,,,1033.9802805001382,1033.9802805001382,0.0091283000074327,0.09808230004273355,2.0,1.323029400082305,,,,,,,,,,,,,,,7152,Moral,2024-08-16_14h25.06.583,MoralCondition_v2,2022.2.5,30.035983102017465,
19,0,19,0,5,0,5,0,,,,,,,,,,,,,,,,,,,,,,,,,,,,,,,,,,,,,,,,,,,,,,,,,,,,1035.3635397001635,1035.3635397001635,0.008976999903097749,0.11410850007086992,2.0,0.8060390001628548,,,,,,,,,,,,,,,7152,Moral,2024-08-16_14h25.06.583,MoralCondition_v2,2022.2.5,30.035983102017465,
19,0,19,0,6,0,6,0,,,,,,,,,,,,,,,,,,,,,,,,,,,,,,,,,,,,,,,,,,,,,,,,,,,,1036.1971740999725,1036.1971740999725,0.0076639000326395035,0.09776040003634989,6.0,1.3910306999459863,,,,,,,,,,,,,,,7152,Moral,2024-08-16_14h25.06.583,MoralCondition_v2,2022.2.5,30.035983102017465,
19,0,19,0,,,,,,,,,,,,,,,,,,,,,,,,,,,,,,,,,,,,,,,,,,,,,,,,,,,,,,,,,,,,,,1037.6302157000173,1037.6302157000173,0.0006889000069350004,0.09940790012478828,6.0,3.899617400020361,,,,,,,,,7152,Moral,2024-08-16_14h25.06.583,MoralCondition_v2,2022.2.5,30.035983102017465,
