loop.thisRepN,loop.thisTrialN,loop.thisN,loop.thisIndex,evaluate_all_emotions.thisRepN,evaluate_all_emotions.thisTrialN,evaluate_all_emotions.thisN,evaluate_all_emotions.thisIndex,sync_beep_1.started,p_port.started,p_port.stopped,sync_beep_1.stopped,sync_beep_2.started,sync_beep_2.stopped,sync_beep_3.started,sync_beep_3.stopped,sync_beep_4.started,sync_beep_4.stopped,baseline.started,p_port_2.started,p_port_2.stopped,baseline.stopped,p_port_3.started,Game_Start_Text.started,p_port_4.started,p_port_4.stopped,key_resp.started,key_resp.keys,key_resp.rt,fixation_cross.started,p_port_5.started,p_port_5.stopped,fixation_cross.stopped,p_port_6.started,player_image_intro.started,player_name_intro.started,p_port_7.started,p_port_7.stopped,p_port_8.started,player_image_offer.started,player_name_offer.started,proposed_split.started,p_port_9.started,p_port_9.stopped,proposed_split.stopped,accept_reject.started,p_port_15.started,p_port_15.stopped,accept_reject.stopped,p_port_10.started,arrow_instructions.started,offer_choice.started,p_port_11.started,p_port_11.stopped,offer_choice.keys,offer_choice.rt,Instructions_Affinity_Score.started,p_port_12.started,p_port_12.stopped,Emotion_Image.started,AffinityScore.started,p_port_13.started,p_port_13.stopped,AffinityScore.response,AffinityScore.rt,Instruction.started,Moral_Disgust_Score.started,p_port_14.started,p_port_14.stopped,Moral_Disgust_Score.response,Moral_Disgust_Score.rt,player_image_intro.stopped,player_name_intro.stopped,player_image_offer.stopped,player_name_offer.stopped,Instructions_Affinity_Score.stopped,p_port_8.stopped,p_port_10.stopped,participant,session,date,expName,psychopyVersion,frameRate,
,,,,,,,,18.01432801107876,0.0008938000537455082,0.1082561002112925,18.346688699908555,18.613413189770654,18.913332799915224,19.213448089780286,19.513300999999046,19.813374189892784,20.12997699994594,20.12997699994594,0.025070699863135815,0.12505780020728707,35.130061300005764,15.02515080012381,35.26342759979889,0.02522239973768592,0.12499039992690086,35.729991799686104,space,2.9169557001441717,,,,,,,,,,,,,,,,,,,,,,,,,,,,,,,,,,,,,,,,,,,,,,,,,,7329,Moral,2024-10-01_17h36.00.821,MoralCondition_v2,2022.2.5,29.99985900308149,
0,0,0,0,0,0,0,0,,,,,,,,,,,,,,,,,,,,,,38.69666909985244,0.0012912997044622898,0.0983841996639967,44.696722499560565,6.031827699858695,44.996775900013745,44.996775900013745,0.15501009952276945,0.2985531995072961,6.031698299571872,51.01328089972958,51.01328089972958,51.01328089972958,0.08868949953466654,0.21495689963921905,56.71329949982464,56.87994819972664,6.01505779940635,6.115029699634761,62.87995179975405,12.015058199409395,63.01327309990302,63.01327309990302,0.015200499445199966,0.1149876993149519,up,1.041784600354731,64.09660999989137,5.750032141804695e-05,0.09719420038163662,70.13023359980434,70.13023359980434,0.024964900221675634,0.1305943001061678,2.0,8.623482499737293,,,,,,,,,,,,,,7329,Moral,2024-10-01_17h36.00.821,MoralCondition_v2,2022.2.5,29.99985900308149,
0,0,0,0,1,0,1,0,,,,,,,,,,,,,,,,,,,,,,,,,,,,,,,,,,,,,,,,,,,,,,,,,,,,78.79665409959853,78.79665409959853,0.010521099902689457,0.11456259991973639,2.0,3.305321699939668,,,,,,,,,,,,,,7329,Moral,2024-10-01_17h36.00.821,MoralCondition_v2,2022.2.5,29.99985900308149,
0,0,0,0,2,0,2,0,,,,,,,,,,,,,,,,,,,,,,,,,,,,,,,,,,,,,,,,,,,,,,,,,,,,82.12977599957958,82.12977599957958,0.009088000282645226,0.09929409995675087,1.0,6.424796600360423,,,,,,,,,,,,,,7329,Moral,2024-10-01_17h36.00.821,MoralCondition_v2,2022.2.5,29.99985900308149,
0,0,0,0,3,0,3,0,,,,,,,,,,,,,,,,,,,,,,,,,,,,,,,,,,,,,,,,,,,,,,,,,,,,88.59629329992458,88.59629329992458,0.010497599840164185,0.0976322996430099,4.0,3.0547315003350377,,,,,,,,,,,,,,7329,Moral,2024-10-01_17h36.00.821,MoralCondition_v2,2022.2.5,29.99985900308149,
0,0,0,0,4,0,4,0,,,,,,,,,,,,,,,,,,,,,,,,,,,,,,,,,,,,,,,,,,,,,,,,,,,,91.71323469979689,91.71323469979689,0.01237859996035695,0.11395800020545721,3.0,2.436026499606669,,,,,,,,,,,,,,7329,Moral,2024-10-01_17h36.00.821,MoralCondition_v2,2022.2.5,29.99985900308149,
0,0,0,0,5,0,5,0,,,,,,,,,,,,,,,,,,,,,,,,,,,,,,,,,,,,,,,,,,,,,,,,,,,,94.19670549966395,94.19670549966395,0.010965799912810326,0.11543009988963604,3.0,4.505351200234145,,,,,,,,,,,,,,7329,Moral,2024-10-01_17h36.00.821,MoralCondition_v2,2022.2.5,29.99985900308149,
0,0,0,0,6,0,6,0,,,,,,,,,,,,,,,,,,,,,,,,,,,,,,,,,,,,,,,,,,,,,,,,,,,,98.74650399992242,98.74650399992242,0.01756149996072054,0.11576119996607304,1.0,2.866020199842751,,,,,,,,,,,,,,7329,Moral,2024-10-01_17h36.00.821,MoralCondition_v2,2022.2.5,29.99985900308149,
0,0,0,0,,,,,,,,,,,,,,,,,,,,,,,,,,,,,,,,,,,,,,,,,,,,,,,,,,,,,,,,,,,,,,101.64665199955925,101.64665199955925,0.0007158000953495502,0.09927090024575591,4.0,15.799575500190258,,,,,,,,7329,Moral,2024-10-01_17h36.00.821,MoralCondition_v2,2022.2.5,29.99985900308149,
1,0,1,0,0,0,0,0,,,,,,,,,,,,,,,,,,,,,,117.47985020000488,0.00029719993472099304,0.09768899995833635,123.49657089961693,6.01434119977057,123.6634056000039,123.6634056000039,0.06886989995837212,0.1812302996404469,6.014357099775225,129.7635327000171,129.7635327000171,129.7635327000171,0.07050389982759953,0.18121679965406656,135.4631856000051,135.66329139983281,6.014512199442834,6.114350599702448,141.6631889999844,12.014390899799764,141.79680699994788,141.79680699994788,0.014740099664777517,0.11434959946200252,up,1.82543019996956,143.66326229972765,4.060007631778717e-05,0.09795389976352453,149.69661219976842,149.69661219976842,0.026408900041133165,0.13140339963138103,5.0,4.772455900441855,,,,,,,129.66318909963593,129.66318909963593,141.76329899998382,141.76329899998382,,,,7329,Moral,2024-10-01_17h36.00.821,MoralCondition_v2,2022.2.5,29.99985900308149,
1,0,1,0,1,0,1,0,,,,,,,,,,,,,,,,,,,,,,,,,,,,,,,,,,,,,,,,,,,,,,,,,,,,154.5135068995878,154.5135068995878,0.008972799871116877,0.11432649986818433,1.0,2.8060774002224207,,,,,,,,,,,,,,7329,Moral,2024-10-01_17h36.00.821,MoralCondition_v2,2022.2.5,29.99985900308149,
1,0,1,0,2,0,2,0,,,,,,,,,,,,,,,,,,,,,,,,,,,,,,,,,,,,,,,,,,,,,,,,,,,,157.36346039967611,157.36346039967611,0.00875100027769804,0.1147068003192544,2.0,3.5398571002297103,,,,,,,,,,,,,,7329,Moral,2024-10-01_17h36.00.821,MoralCondition_v2,2022.2.5,29.99985900308149,
1,0,1,0,3,0,3,0,,,,,,,,,,,,,,,,,,,,,,,,,,,,,,,,,,,,,,,,,,,,,,,,,,,,160.92987989960238,160.92987989960238,0.007072200067341328,0.09826310025528073,3.0,2.825315000023693,,,,,,,,,,,,,,7329,Moral,2024-10-01_17h36.00.821,MoralCondition_v2,2022.2.5,29.99985900308149,
1,0,1,0,4,0,4,0,,,,,,,,,,,,,,,,,,,,,,,,,,,,,,,,,,,,,,,,,,,,,,,,,,,,163.79648699983954,163.79648699983954,0.007553499657660723,0.09758129995316267,2.0,2.2910667997784913,,,,,,,,,,,,,,7329,Moral,2024-10-01_17h36.00.821,MoralCondition_v2,2022.2.5,29.99985900308149,
1,0,1,0,5,0,5,0,,,,,,,,,,,,,,,,,,,,,,,,,,,,,,,,,,,,,,,,,,,,,,,,,,,,166.14657919993624,166.14657919993624,0.008322600275278091,0.11434740014374256,3.0,3.30720719974488,,,,,,,,,,,,,,7329,Moral,2024-10-01_17h36.00.821,MoralCondition_v2,2022.2.5,29.99985900308149,
1,0,1,0,6,0,6,0,,,,,,,,,,,,,,,,,,,,,,,,,,,,,,,,,,,,,,,,,,,,,,,,,,,,169.47966879978776,169.47966879978776,0.008642700035125017,0.09894349984824657,4.0,1.6912521002814174,,,,,,,,,,,,,,7329,Moral,2024-10-01_17h36.00.821,MoralCondition_v2,2022.2.5,29.99985900308149,
1,0,1,0,,,,,,,,,,,,,,,,,,,,,,,,,,,,,,,,,,,,,,,,,,,,,,,,,,,,,,,,,,,,,,171.21319469995797,171.21319469995797,0.0007036002352833748,0.09919469989836216,3.0,4.532951099798083,,,,,,,,7329,Moral,2024-10-01_17h36.00.821,MoralCondition_v2,2022.2.5,29.99985900308149,
2,0,2,0,0,0,0,0,,,,,,,,,,,,,,,,,,,,,,175.78010339988396,0.0002522999420762062,0.09840109990909696,181.7964332997799,6.014835199806839,181.99666379997507,181.99666379997507,0.10026759980246425,0.21488799946382642,6.014905299525708,188.0632517999038,188.0632517999038,188.0632517999038,0.06973359966650605,0.18171789962798357,193.7631411999464,193.96309089986607,6.014893099665642,6.11483859969303,199.96309089986607,12.014889399521053,200.0964711997658,200.0964711997658,0.015107899438589811,0.11484109936282039,up,1.494568600319326,201.62984069995582,4.860013723373413e-05,0.09787699999287724,207.64630459994078,207.64630459994078,0.010393899865448475,0.11467069992795587,3.0,3.838613099884242,,,,,,,,,200.06308599980548,200.06308599980548,207.64630459994078,,,7329,Moral,2024-10-01_17h36.00.821,MoralCondition_v2,2022.2.5,29.99985900308149,
2,0,2,0,1,0,1,0,,,,,,,,,,,,,,,,,,,,,,,,,,,,,,,,,,,,,,,,,,,,,,,,,,,,211.51334259985015,211.51334259985015,0.0073160999454557896,0.09804400010034442,1.0,2.1581350001506507,,,,,,,,,,,,,,7329,Moral,2024-10-01_17h36.00.821,MoralCondition_v2,2022.2.5,29.99985900308149,
2,0,2,0,2,0,2,0,,,,,,,,,,,,,,,,,,,,,,,,,,,,,,,,,,,,,,,,,,,,,,,,,,,,213.71297939959913,213.71297939959913,0.007710999809205532,0.09772640001028776,2.0,1.9578121001832187,,,,,,,,,,,,,,7329,Moral,2024-10-01_17h36.00.821,MoralCondition_v2,2022.2.5,29.99985900308149,
2,0,2,0,3,0,3,0,,,,,,,,,,,,,,,,,,,,,,,,,,,,,,,,,,,,,,,,,,,,,,,,,,,,215.71310909977183,215.71310909977183,0.00761739956215024,0.09797449968755245,2.0,3.3579027000814676,,,,,,,,,,,,,,7329,Moral,2024-10-01_17h36.00.821,MoralCondition_v2,2022.2.5,29.99985900308149,
2,0,2,0,4,0,4,0,,,,,,,,,,,,,,,,,,,,,,,,,,,,,,,,,,,,,,,,,,,,,,,,,,,,219.11307889968157,219.11307889968157,0.006599599961191416,0.09916380001232028,4.0,1.8269845000468194,,,,,,,,,,,,,,7329,Moral,2024-10-01_17h36.00.821,MoralCondition_v2,2022.2.5,29.99985900308149,
2,0,2,0,5,0,5,0,,,,,,,,,,,,,,,,,,,,,,,,,,,,,,,,,,,,,,,,,,,,,,,,,,,,220.98020310001448,220.98020310001448,0.008665600325912237,0.09737230045720935,1.0,2.022938699927181,,,,,,,,,,,,,,7329,Moral,2024-10-01_17h36.00.821,MoralCondition_v2,2022.2.5,29.99985900308149,
2,0,2,0,6,0,6,0,,,,,,,,,,,,,,,,,,,,,,,,,,,,,,,,,,,,,,,,,,,,,,,,,,,,223.06338289985433,223.06338289985433,0.008012599777430296,0.11438579997047782,2.0,2.8740086001344025,,,,,,,,,,,,,,7329,Moral,2024-10-01_17h36.00.821,MoralCondition_v2,2022.2.5,29.99985900308149,
2,0,2,0,,,,,,,,,,,,,,,,,,,,,,,,,,,,,,,,,,,,,,,,,,,,,,,,,,,,,,,,,,,,,,225.9632317996584,225.9632317996584,0.0007100999355316162,0.09930090000852942,4.0,2.0996352997608483,,,,,,,,7329,Moral,2024-10-01_17h36.00.821,MoralCondition_v2,2022.2.5,29.99985900308149,
3,0,3,0,0,0,0,0,,,,,,,,,,,,,,,,,,,,,,228.0964354998432,0.00015090033411979675,0.09911940013989806,234.11316329985857,6.015751400031149,234.27975979959592,234.27975979959592,0.0722417002543807,0.18272359995171428,6.015871400013566,240.37974769994617,240.37974769994617,240.37974769994617,0.06786220008507371,0.1830966998822987,246.07966559985653,246.27979509998113,6.0159090999513865,6.115962199866772,252.27969929995015,12.01580259995535,252.41297619976103,252.41297619976103,0.016192699782550335,0.11572230001911521,up,1.7375497999601066,254.21327079972252,4.9600377678871155e-05,0.09792850026860833,260.22952950000763,260.22952950000763,0.02446990041062236,0.11472330009564757,1.0,2.924492500256747,,,,,,,240.27972719958052,240.27972719958052,252.37991789961234,252.37991789961234,,,,7329,Moral,2024-10-01_17h36.00.821,MoralCondition_v2,2022.2.5,29.99985900308149,
3,0,3,0,1,0,1,0,,,,,,,,,,,,,,,,,,,,,,,,,,,,,,,,,,,,,,,,,,,,,,,,,,,,263.19631909998134,263.19631909998134,0.006967199966311455,0.09922660002484918,4.0,1.6264281999319792,,,,,,,,,,,,,,7329,Moral,2024-10-01_17h36.00.821,MoralCondition_v2,2022.2.5,29.99985900308149,
3,0,3,0,2,0,2,0,,,,,,,,,,,,,,,,,,,,,,,,,,,,,,,,,,,,,,,,,,,,,,,,,,,,264.8627692996524,264.8627692996524,0.007342999801039696,0.09774899994954467,2.0,6.192743899766356,,,,,,,,,,,,,,7329,Moral,2024-10-01_17h36.00.821,MoralCondition_v2,2022.2.5,29.99985900308149,
3,0,3,0,3,0,3,0,,,,,,,,,,,,,,,,,,,,,,,,,,,,,,,,,,,,,,,,,,,,,,,,,,,,271.0961404996924,271.0961404996924,0.007460799999535084,0.09731260035187006,3.0,3.6575213000178337,,,,,,,,,,,,,,7329,Moral,2024-10-01_17h36.00.821,MoralCondition_v2,2022.2.5,29.99985900308149,
3,0,3,0,4,0,4,0,,,,,,,,,,,,,,,,,,,,,,,,,,,,,,,,,,,,,,,,,,,,,,,,,,,,274.79615259962156,274.79615259962156,0.006703699938952923,0.09924819972366095,1.0,1.860092299990356,,,,,,,,,,,,,,7329,Moral,2024-10-01_17h36.00.821,MoralCondition_v2,2022.2.5,29.99985900308149,
3,0,3,0,5,0,5,0,,,,,,,,,,,,,,,,,,,,,,,,,,,,,,,,,,,,,,,,,,,,,,,,,,,,276.69635319989175,276.69635319989175,0.0072353002615273,0.09772850014269352,3.0,2.9585065003484488,,,,,,,,,,,,,,7329,Moral,2024-10-01_17h36.00.821,MoralCondition_v2,2022.2.5,29.99985900308149,
3,0,3,0,6,0,6,0,,,,,,,,,,,,,,,,,,,,,,,,,,,,,,,,,,,,,,,,,,,,,,,,,,,,279.69633969990537,279.69633969990537,0.007879599928855896,0.09781879978254437,1.0,2.857588999904692,,,,,,,,,,,,,,7329,Moral,2024-10-01_17h36.00.821,MoralCondition_v2,2022.2.5,29.99985900308149,
3,0,3,0,,,,,,,,,,,,,,,,,,,,,,,,,,,,,,,,,,,,,,,,,,,,,,,,,,,,,,,,,,,,,,282.5964644998312,282.5964644998312,0.0007262998260557652,0.09921539993956685,4.0,2.133186399936676,,,,,,,,7329,Moral,2024-10-01_17h36.00.821,MoralCondition_v2,2022.2.5,29.99985900308149,
4,0,4,0,0,0,0,0,,,,,,,,,,,,,,,,,,,,,,284.7630121996626,0.0001496998593211174,0.09937389986589551,290.762906299904,5.999189099762589,290.97948509966955,290.97948509966955,0.10706499963998795,0.2158641000278294,6.015829499810934,297.0462777996436,297.0462777996436,297.0462777996436,0.07401129975914955,0.18266299972310662,302.7462720000185,302.9462364995852,6.015861799940467,6.115951899904758,308.94629539968446,12.015964599791914,309.0795671995729,309.0795671995729,0.01606859965249896,0.11578609980642796,up,2.0952669004909694,311.21291889995337,6.440002471208572e-05,0.09771460015326738,317.2127686999738,317.2127686999738,0.01044420013204217,0.09794070012867451,3.0,3.5216165999881923,,,,,,,,,309.0462565999478,309.0462565999478,317.2127686999738,,,7329,Moral,2024-10-01_17h36.00.821,MoralCondition_v2,2022.2.5,29.99985900308149,
4,0,4,0,1,0,1,0,,,,,,,,,,,,,,,,,,,,,,,,,,,,,,,,,,,,,,,,,,,,,,,,,,,,320.7963925995864,320.7963925995864,0.00819650012999773,0.11403630021959543,4.0,2.5402005002833903,,,,,,,,,,,,,,7329,Moral,2024-10-01_17h36.00.821,MoralCondition_v2,2022.2.5,29.99985900308149,
4,0,4,0,2,0,2,0,,,,,,,,,,,,,,,,,,,,,,,,,,,,,,,,,,,,,,,,,,,,,,,,,,,,323.3627939997241,323.3627939997241,0.007684099953621626,0.09788159979507327,5.0,2.0911319996230304,,,,,,,,,,,,,,7329,Moral,2024-10-01_17h36.00.821,MoralCondition_v2,2022.2.5,29.99985900308149,
4,0,4,0,3,0,3,0,,,,,,,,,,,,,,,,,,,,,,,,,,,,,,,,,,,,,,,,,,,,,,,,,,,,325.51305269962177,325.51305269962177,0.008366599678993225,0.11435969965532422,3.0,1.540108900051564,,,,,,,,,,,,,,7329,Moral,2024-10-01_17h36.00.821,MoralCondition_v2,2022.2.5,29.99985900308149,
4,0,4,0,4,0,4,0,,,,,,,,,,,,,,,,,,,,,,,,,,,,,,,,,,,,,,,,,,,,,,,,,,,,327.0794735997915,327.0794735997915,0.008676799945533276,0.09791140025481582,1.0,1.19006140017882,,,,,,,,,,,,,,7329,Moral,2024-10-01_17h36.00.821,MoralCondition_v2,2022.2.5,29.99985900308149,
4,0,4,0,5,0,5,0,,,,,,,,,,,,,,,,,,,,,,,,,,,,,,,,,,,,,,,,,,,,,,,,,,,,328.3128299997188,328.3128299997188,0.007568600121885538,0.09783999994397163,1.0,1.3249486996792257,,,,,,,,,,,,,,7329,Moral,2024-10-01_17h36.00.821,MoralCondition_v2,2022.2.5,29.99985900308149,
4,0,4,0,6,0,6,0,,,,,,,,,,,,,,,,,,,,,,,,,,,,,,,,,,,,,,,,,,,,,,,,,,,,329.67947969958186,329.67947969958186,0.007095199543982744,0.09930439991876483,3.0,5.69316970044747,,,,,,,,,,,,,,7329,Moral,2024-10-01_17h36.00.821,MoralCondition_v2,2022.2.5,29.99985900308149,
4,0,4,0,,,,,,,,,,,,,,,,,,,,,,,,,,,,,,,,,,,,,,,,,,,,,,,,,,,,,,,,,,,,,,335.4129859996028,335.4129859996028,0.0011160001158714294,0.09819100005552173,4.0,1.8981399000622332,,,,,,,,7329,Moral,2024-10-01_17h36.00.821,MoralCondition_v2,2022.2.5,29.99985900308149,
5,0,5,0,0,0,0,0,,,,,,,,,,,,,,,,,,,,,,337.3463955996558,0.00026850029826164246,0.09766510035842657,343.3461350998841,6.030908400192857,343.5460750996135,343.5460750996135,0.08658500015735626,0.19760939991101623,6.030872399918735,349.64606299996376,349.64606299996376,349.64606299996376,0.08748670015484095,0.19763529999181628,355.3461477998644,355.54612969979644,6.030932100024074,6.130846799816936,361.5460982997902,12.030894599854946,361.6794226998463,361.6794226998463,0.031064500100910664,0.13094939989969134,up,1.719172399956733,363.4461044999771,5.410006269812584e-05,0.09793550008907914,369.4793807999231,369.4793807999231,0.025299400091171265,0.1313543999567628,5.0,3.206941000185907,,,,,,,349.54614229965955,349.54614229965955,361.6461300998926,361.6461300998926,,,,7329,Moral,2024-10-01_17h36.00.821,MoralCondition_v2,2022.2.5,29.99985900308149,
5,0,5,0,1,0,1,0,,,,,,,,,,,,,,,,,,,,,,,,,,,,,,,,,,,,,,,,,,,,,,,,,,,,372.71268909983337,372.71268909983337,0.0066290004178881645,0.09938690019771457,3.0,2.727021099999547,,,,,,,,,,,,,,7329,Moral,2024-10-01_17h36.00.821,MoralCondition_v2,2022.2.5,29.99985900308149,
5,0,5,0,2,0,2,0,,,,,,,,,,,,,,,,,,,,,,,,,,,,,,,,,,,,,,,,,,,,,,,,,,,,375.47947379993275,375.47947379993275,0.006687000393867493,0.09904120024293661,1.0,1.6932740998454392,,,,,,,,,,,,,,7329,Moral,2024-10-01_17h36.00.821,MoralCondition_v2,2022.2.5,29.99985900308149,
5,0,5,0,3,0,3,0,,,,,,,,,,,,,,,,,,,,,,,,,,,,,,,,,,,,,,,,,,,,,,,,,,,,377.2126384996809,377.2126384996809,0.007369400002062321,0.09777359990403056,4.0,1.5916980998590589,,,,,,,,,,,,,,7329,Moral,2024-10-01_17h36.00.821,MoralCondition_v2,2022.2.5,29.99985900308149,
5,0,5,0,4,0,4,0,,,,,,,,,,,,,,,,,,,,,,,,,,,,,,,,,,,,,,,,,,,,,,,,,,,,378.84610529989004,378.84610529989004,0.008412699680775404,0.09909099992364645,3.0,1.491419699974358,,,,,,,,,,,,,,7329,Moral,2024-10-01_17h36.00.821,MoralCondition_v2,2022.2.5,29.99985900308149,
5,0,5,0,5,0,5,0,,,,,,,,,,,,,,,,,,,,,,,,,,,,,,,,,,,,,,,,,,,,,,,,,,,,380.3795495997183,380.3795495997183,0.007166100200265646,0.09796940023079515,1.0,1.6586821000091732,,,,,,,,,,,,,,7329,Moral,2024-10-01_17h36.00.821,MoralCondition_v2,2022.2.5,29.99985900308149,
5,0,5,0,6,0,6,0,,,,,,,,,,,,,,,,,,,,,,,,,,,,,,,,,,,,,,,,,,,,,,,,,,,,382.07949259970337,382.07949259970337,0.00654279999434948,0.09945570025593042,1.0,3.060560999903828,,,,,,,,,,,,,,7329,Moral,2024-10-01_17h36.00.821,MoralCondition_v2,2022.2.5,29.99985900308149,
5,0,5,0,,,,,,,,,,,,,,,,,,,,,,,,,,,,,,,,,,,,,,,,,,,,,,,,,,,,,,,,,,,,,,385.17946109967306,385.17946109967306,0.001738599967211485,0.09895949997007847,4.0,8.631761900149286,,,,,,,,7329,Moral,2024-10-01_17h36.00.821,MoralCondition_v2,2022.2.5,29.99985900308149,
6,0,6,0,0,0,0,0,,,,,,,,,,,,,,,,,,,,,,393.8462882996537,0.000291300006210804,0.09734959993511438,399.86273039970547,6.013954799622297,400.0295456997119,400.0295456997119,0.06819449970498681,0.1809740997850895,6.013997099827975,406.129506399855,406.129506399855,406.129506399855,0.06769929965957999,0.1808867994695902,411.8295814995654,412.0293163997121,6.014006399549544,6.113939099479467,418.0292786997743,12.01399189978838,418.16263669962063,418.16263669962063,0.014224599581211805,0.11394189950078726,up,1.396113300230354,419.5961229996756,5.7999975979328156e-05,0.09783250000327826,425.5959226996638,425.5959226996638,0.007258799858391285,0.09749659989029169,5.0,2.8581757000647485,,,,,,,406.02941409964114,406.02941409964114,418.12928599957377,418.12928599957377,425.5959226996638,,,7329,Moral,2024-10-01_17h36.00.821,MoralCondition_v2,2022.2.5,29.99985900308149,
6,0,6,0,1,0,1,0,,,,,,,,,,,,,,,,,,,,,,,,,,,,,,,,,,,,,,,,,,,,,,,,,,,,428.51284739980474,428.51284739980474,0.007712299935519695,0.1142247999086976,4.0,2.24060279969126,,,,,,,,,,,,,,7329,Moral,2024-10-01_17h36.00.821,MoralCondition_v2,2022.2.5,29.99985900308149,
6,0,6,0,2,0,2,0,,,,,,,,,,,,,,,,,,,,,,,,,,,,,,,,,,,,,,,,,,,,,,,,,,,,430.7959440997802,430.7959440997802,0.009336099959909916,0.11598060000687838,4.0,2.840921899769455,,,,,,,,,,,,,,7329,Moral,2024-10-01_17h36.00.821,MoralCondition_v2,2022.2.5,29.99985900308149,
6,0,6,0,3,0,3,0,,,,,,,,,,,,,,,,,,,,,,,,,,,,,,,,,,,,,,,,,,,,,,,,,,,,433.66282939957455,433.66282939957455,0.007484799716621637,0.09836489986628294,3.0,1.8915697997435927,,,,,,,,,,,,,,7329,Moral,2024-10-01_17h36.00.821,MoralCondition_v2,2022.2.5,29.99985900308149,
6,0,6,0,4,0,4,0,,,,,,,,,,,,,,,,,,,,,,,,,,,,,,,,,,,,,,,,,,,,,,,,,,,,435.5957506997511,435.5957506997511,0.007789799943566322,0.0984890996478498,1.0,1.6918195998296142,,,,,,,,,,,,,,7329,Moral,2024-10-01_17h36.00.821,MoralCondition_v2,2022.2.5,29.99985900308149,
6,0,6,0,5,0,5,0,,,,,,,,,,,,,,,,,,,,,,,,,,,,,,,,,,,,,,,,,,,,,,,,,,,,437.32920359959826,437.32920359959826,0.0071690999902784824,0.09784860024228692,3.0,2.825244799721986,,,,,,,,,,,,,,7329,Moral,2024-10-01_17h36.00.821,MoralCondition_v2,2022.2.5,29.99985900308149,
6,0,6,0,6,0,6,0,,,,,,,,,,,,,,,,,,,,,,,,,,,,,,,,,,,,,,,,,,,,,,,,,,,,440.19580689957365,440.19580689957365,0.006901499815285206,0.0994608998298645,3.0,3.460010999813676,,,,,,,,,,,,,,7329,Moral,2024-10-01_17h36.00.821,MoralCondition_v2,2022.2.5,29.99985900308149,
6,0,6,0,,,,,,,,,,,,,,,,,,,,,,,,,,,,,,,,,,,,,,,,,,,,,,,,,,,,,,,,,,,,,,443.69600399956107,443.69600399956107,0.0006947997026145458,0.09928729990497231,3.0,3.032889800146222,,,,,,,,7329,Moral,2024-10-01_17h36.00.821,MoralCondition_v2,2022.2.5,29.99985900308149,
7,0,7,0,0,0,0,0,,,,,,,,,,,,,,,,,,,,,,446.7625874998048,0.00013399962335824966,0.09938859986141324,452.7791986996308,6.015887499786913,452.9960227999836,452.9960227999836,0.12068729987367988,0.23265309957787395,5.999214999843389,459.0625859997235,459.0625859997235,459.0625859997235,0.09180229948833585,0.1994591997936368,464.7624753997661,464.92916979966685,5.999241099692881,6.099150399677455,470.92914519971237,11.999207099433988,471.062471000012,471.062471000012,9.54996794462204e-05,0.09919039951637387,up,2.000283300410956,473.112457299605,4.669977352023125e-05,0.09782689996063709,479.1123957997188,479.1123957997188,0.010555699933320284,0.09792979992926121,3.0,2.2219312000088394,,,,,,,,,471.062471000012,471.062471000012,479.1123957997188,6.099192099645734,12.099170999601483,7329,Moral,2024-10-01_17h36.00.821,MoralCondition_v2,2022.2.5,29.99985900308149,
7,0,7,0,1,0,1,0,,,,,,,,,,,,,,,,,,,,,,,,,,,,,,,,,,,,,,,,,,,,,,,,,,,,481.3789550997317,481.3789550997317,0.007187299896031618,0.09840930020436645,4.0,2.592171400319785,,,,,,,,,,,,,,7329,Moral,2024-10-01_17h36.00.821,MoralCondition_v2,2022.2.5,29.99985900308149,
7,0,7,0,2,0,2,0,,,,,,,,,,,,,,,,,,,,,,,,,,,,,,,,,,,,,,,,,,,,,,,,,,,,484.012472699862,484.012472699862,0.006618899758905172,0.09922980004921556,3.0,4.027005800046027,,,,,,,,,,,,,,7329,Moral,2024-10-01_17h36.00.821,MoralCondition_v2,2022.2.5,29.99985900308149,
7,0,7,0,3,0,3,0,,,,,,,,,,,,,,,,,,,,,,,,,,,,,,,,,,,,,,,,,,,,,,,,,,,,488.09646559972316,488.09646559972316,0.009229199960827827,0.11602810025215149,3.0,2.107603400014341,,,,,,,,,,,,,,7329,Moral,2024-10-01_17h36.00.821,MoralCondition_v2,2022.2.5,29.99985900308149,
7,0,7,0,4,0,4,0,,,,,,,,,,,,,,,,,,,,,,,,,,,,,,,,,,,,,,,,,,,,,,,,,,,,490.2290643998422,490.2290643998422,0.007684499956667423,0.09772809967398643,4.0,1.4577370001934469,,,,,,,,,,,,,,7329,Moral,2024-10-01_17h36.00.821,MoralCondition_v2,2022.2.5,29.99985900308149,
7,0,7,0,5,0,5,0,,,,,,,,,,,,,,,,,,,,,,,,,,,,,,,,,,,,,,,,,,,,,,,,,,,,491.72897279961035,491.72897279961035,0.009029299952089787,0.09780329978093505,2.0,1.5230119000189006,,,,,,,,,,,,,,7329,Moral,2024-10-01_17h36.00.821,MoralCondition_v2,2022.2.5,29.99985900308149,
7,0,7,0,6,0,6,0,,,,,,,,,,,,,,,,,,,,,,,,,,,,,,,,,,,,,,,,,,,,,,,,,,,,493.29557879967615,493.29557879967615,0.007729300297796726,0.09932149993255734,5.0,1.8258036002516747,,,,,,,,,,,,,,7329,Moral,2024-10-01_17h36.00.821,MoralCondition_v2,2022.2.5,29.99985900308149,
7,0,7,0,,,,,,,,,,,,,,,,,,,,,,,,,,,,,,,,,,,,,,,,,,,,,,,,,,,,,,,,,,,,,,495.16266689961776,495.16266689961776,0.002159399911761284,0.09719179989770055,3.0,1.9963438999839127,,,,,,,,7329,Moral,2024-10-01_17h36.00.821,MoralCondition_v2,2022.2.5,29.99985900308149,
8,0,8,0,0,0,0,0,,,,,,,,,,,,,,,,,,,,,,497.1957603995688,0.00040160026401281357,0.09744240017607808,503.1957216998562,6.030672200024128,503.39566349983215,503.39566349983215,0.08503339998424053,0.19737560022622347,6.030688399914652,509.47922249976546,509.47922249976546,509.47922249976546,0.0873313001357019,0.1807689000852406,515.1790430997498,515.3790217996575,6.013999899849296,6.113928600214422,521.3790503996424,12.014006699901074,521.5123981996439,521.5123981996439,0.014124299865216017,0.11389419995248318,up,1.790130200330168,523.3456631000154,3.8499943912029266e-05,0.09807070018723607,529.3625265997835,529.3625265997835,0.009280300233513117,0.11478880001232028,2.0,5.2729666996747255,,,,,,,509.3957132999785,509.3957132999785,521.4790008999407,521.4790008999407,529.3625265997835,,,7329,Moral,2024-10-01_17h36.00.821,MoralCondition_v2,2022.2.5,29.99985900308149,
8,0,8,0,1,0,1,0,,,,,,,,,,,,,,,,,,,,,,,,,,,,,,,,,,,,,,,,,,,,,,,,,,,,534.6624020999297,534.6624020999297,0.007072700187563896,0.0985721000470221,4.0,5.392324999906123,,,,,,,,,,,,,,7329,Moral,2024-10-01_17h36.00.821,MoralCondition_v2,2022.2.5,29.99985900308149,
8,0,8,0,2,0,2,0,,,,,,,,,,,,,,,,,,,,,,,,,,,,,,,,,,,,,,,,,,,,,,,,,,,,540.0955405998975,540.0955405998975,0.006432000081986189,0.09844980016350746,2.0,2.2262740000151098,,,,,,,,,,,,,,7329,Moral,2024-10-01_17h36.00.821,MoralCondition_v2,2022.2.5,29.99985900308149,
8,0,8,0,3,0,3,0,,,,,,,,,,,,,,,,,,,,,,,,,,,,,,,,,,,,,,,,,,,,,,,,,,,,542.3621799997054,542.3621799997054,0.008161199744790792,0.09764979965984821,1.0,1.4904133998788893,,,,,,,,,,,,,,7329,Moral,2024-10-01_17h36.00.821,MoralCondition_v2,2022.2.5,29.99985900308149,
8,0,8,0,4,0,4,0,,,,,,,,,,,,,,,,,,,,,,,,,,,,,,,,,,,,,,,,,,,,,,,,,,,,543.8956998996437,543.8956998996437,0.0075379000045359135,0.09786680014804006,3.0,1.9582116999663413,,,,,,,,,,,,,,7329,Moral,2024-10-01_17h36.00.821,MoralCondition_v2,2022.2.5,29.99985900308149,
8,0,8,0,5,0,5,0,,,,,,,,,,,,,,,,,,,,,,,,,,,,,,,,,,,,,,,,,,,,,,,,,,,,545.8956525996327,545.8956525996327,0.005435099825263023,0.09902209974825382,3.0,1.8946219999343157,,,,,,,,,,,,,,7329,Moral,2024-10-01_17h36.00.821,MoralCondition_v2,2022.2.5,29.99985900308149,
8,0,8,0,6,0,6,0,,,,,,,,,,,,,,,,,,,,,,,,,,,,,,,,,,,,,,,,,,,,,,,,,,,,547.8289106995799,547.8289106995799,0.006949500180780888,0.09922830015420914,4.0,1.7934044003486633,,,,,,,,,,,,,,7329,Moral,2024-10-01_17h36.00.821,MoralCondition_v2,2022.2.5,29.99985900308149,
8,0,8,0,,,,,,,,,,,,,,,,,,,,,,,,,,,,,,,,,,,,,,,,,,,,,,,,,,,,,,,,,,,,,,549.6623265999369,549.6623265999369,0.0014805002138018608,0.09750659996643662,4.0,1.6637035999447107,,,,,,,,7329,Moral,2024-10-01_17h36.00.821,MoralCondition_v2,2022.2.5,29.99985900308149,
9,0,9,0,0,0,0,0,,,,,,,,,,,,,,,,,,,,,,551.3624451998621,0.00028270017355680466,0.09799590008333325,557.3790279999375,6.014578599948436,557.5454760999419,557.5454760999419,0.07305390015244484,0.1813706001266837,6.014611499849707,563.6455541998148,563.6455541998148,563.6455541998148,0.07147709978744388,0.18137709982693195,569.3454969995655,569.5455376999453,6.0146461999975145,6.114569500088692,575.545461599715,12.014545499812812,575.6787756998092,575.6787756998092,0.015020099934190512,0.11453109979629517,up,1.2073994004167616,576.9288508999161,4.650000482797623e-05,0.09787380043417215,582.9289532997645,582.9289532997645,0.00896220002323389,0.09766740025952458,1.0,2.556851699948311,,,,,,,563.5455546998419,563.5455546998419,575.6455217995681,575.6455217995681,582.9289532997645,,,7329,Moral,2024-10-01_17h36.00.821,MoralCondition_v2,2022.2.5,29.99985900308149,
9,0,9,0,1,0,1,0,,,,,,,,,,,,,,,,,,,,,,,,,,,,,,,,,,,,,,,,,,,,,,,,,,,,585.5455280998722,585.5455280998722,0.008662600070238113,0.11396190011873841,1.0,1.606035599950701,,,,,,,,,,,,,,7329,Moral,2024-10-01_17h36.00.821,MoralCondition_v2,2022.2.5,29.99985900308149,
9,0,9,0,2,0,2,0,,,,,,,,,,,,,,,,,,,,,,,,,,,,,,,,,,,,,,,,,,,,,,,,,,,,587.1789094996639,587.1789094996639,0.007686300203204155,0.09807870024815202,5.0,2.091218600049615,,,,,,,,,,,,,,7329,Moral,2024-10-01_17h36.00.821,MoralCondition_v2,2022.2.5,29.99985900308149,
9,0,9,0,3,0,3,0,,,,,,,,,,,,,,,,,,,,,,,,,,,,,,,,,,,,,,,,,,,,,,,,,,,,589.3120803995989,589.3120803995989,0.007485399954020977,0.0978689999319613,5.0,1.391406700015068,,,,,,,,,,,,,,7329,Moral,2024-10-01_17h36.00.821,MoralCondition_v2,2022.2.5,29.99985900308149,
9,0,9,0,4,0,4,0,,,,,,,,,,,,,,,,,,,,,,,,,,,,,,,,,,,,,,,,,,,,,,,,,,,,590.7454726998694,590.7454726998694,0.007705199997872114,0.09781659999862313,2.0,1.3911314997822046,,,,,,,,,,,,,,7329,Moral,2024-10-01_17h36.00.821,MoralCondition_v2,2022.2.5,29.99985900308149,
9,0,9,0,5,0,5,0,,,,,,,,,,,,,,,,,,,,,,,,,,,,,,,,,,,,,,,,,,,,,,,,,,,,592.1786249997094,592.1786249997094,0.007581699639558792,0.09794369991868734,2.0,2.15777949988842,,,,,,,,,,,,,,7329,Moral,2024-10-01_17h36.00.821,MoralCondition_v2,2022.2.5,29.99985900308149,
9,0,9,0,6,0,6,0,,,,,,,,,,,,,,,,,,,,,,,,,,,,,,,,,,,,,,,,,,,,,,,,,,,,594.3786859996617,594.3786859996617,0.007955300156027079,0.097879100125283,2.0,1.5246390998363495,,,,,,,,,,,,,,7329,Moral,2024-10-01_17h36.00.821,MoralCondition_v2,2022.2.5,29.99985900308149,
9,0,9,0,,,,,,,,,,,,,,,,,,,,,,,,,,,,,,,,,,,,,,,,,,,,,,,,,,,,,,,,,,,,,,595.9455698998645,595.9455698998645,0.0009898999705910683,0.09849209990352392,4.0,2.3321262998506427,,,,,,,,7329,Moral,2024-10-01_17h36.00.821,MoralCondition_v2,2022.2.5,29.99985900308149,
10,0,10,0,0,0,0,0,,,,,,,,,,,,,,,,,,,,,,598.3123049996793,0.0002297000028192997,0.09810349997133017,604.3120516999625,6.03137749992311,604.495342799928,604.495342799928,0.0834591998718679,0.18147619999945164,6.014743700157851,610.5956306997687,610.5956306997687,610.5956306997687,0.07277269987389445,0.18160789972171187,616.2953434996307,616.4954256997444,6.014760199934244,6.114614899735898,622.4953651996329,12.014721699990332,622.6286630998366,622.6286630998366,0.014828599989414215,0.11469909967854619,up,0.850131600163877,623.5286979000084,6.409967318177223e-05,0.09782689996063709,629.5622090999968,629.5622090999968,0.025732599664479494,0.13125169975683093,3.0,2.8065097997896373,,,,,,,610.4953386997804,610.4953386997804,622.5953370998614,622.5953370998614,,,,7329,Moral,2024-10-01_17h36.00.821,MoralCondition_v2,2022.2.5,29.99985900308149,
10,0,10,0,1,0,1,0,,,,,,,,,,,,,,,,,,,,,,,,,,,,,,,,,,,,,,,,,,,,,,,,,,,,632.412265099585,632.412265099585,0.008712900336831808,0.11449320008978248,3.0,1.1067397999577224,,,,,,,,,,,,,,7329,Moral,2024-10-01_17h36.00.821,MoralCondition_v2,2022.2.5,29.99985900308149,
10,0,10,0,2,0,2,0,,,,,,,,,,,,,,,,,,,,,,,,,,,,,,,,,,,,,,,,,,,,,,,,,,,,633.5451774997637,633.5451774997637,0.006645700428634882,0.09953580005094409,3.0,4.36004149960354,,,,,,,,,,,,,,7329,Moral,2024-10-01_17h36.00.821,MoralCondition_v2,2022.2.5,29.99985900308149,
10,0,10,0,3,0,3,0,,,,,,,,,,,,,,,,,,,,,,,,,,,,,,,,,,,,,,,,,,,,,,,,,,,,637.9452352998778,637.9452352998778,0.007347899954766035,0.09750769985839725,4.0,1.5246242000721395,,,,,,,,,,,,,,7329,Moral,2024-10-01_17h36.00.821,MoralCondition_v2,2022.2.5,29.99985900308149,
10,0,10,0,4,0,4,0,,,,,,,,,,,,,,,,,,,,,,,,,,,,,,,,,,,,,,,,,,,,,,,,,,,,639.5117798997089,639.5117798997089,0.00663729989901185,0.09927899995818734,2.0,1.7270146999508142,,,,,,,,,,,,,,7329,Moral,2024-10-01_17h36.00.821,MoralCondition_v2,2022.2.5,29.99985900308149,
10,0,10,0,5,0,5,0,,,,,,,,,,,,,,,,,,,,,,,,,,,,,,,,,,,,,,,,,,,,,,,,,,,,641.2787110996433,641.2787110996433,0.006674500182271004,0.09923120029270649,1.0,1.526957499794662,,,,,,,,,,,,,,7329,Moral,2024-10-01_17h36.00.821,MoralCondition_v2,2022.2.5,29.99985900308149,
10,0,10,0,6,0,6,0,,,,,,,,,,,,,,,,,,,,,,,,,,,,,,,,,,,,,,,,,,,,,,,,,,,,642.8454038999043,642.8454038999043,0.0065192002803087234,0.09923910023644567,3.0,2.093746399972588,,,,,,,,,,,,,,7329,Moral,2024-10-01_17h36.00.821,MoralCondition_v2,2022.2.5,29.99985900308149,
10,0,10,0,,,,,,,,,,,,,,,,,,,,,,,,,,,,,,,,,,,,,,,,,,,,,,,,,,,,,,,,,,,,,,644.9784598997794,644.9784598997794,0.0014941003173589706,0.09767700033262372,4.0,2.131562300026417,,,,,,,,7329,Moral,2024-10-01_17h36.00.821,MoralCondition_v2,2022.2.5,29.99985900308149,
11,0,11,0,0,0,0,0,,,,,,,,,,,,,,,,,,,,,,647.1452721999958,0.0002549001947045326,0.09878379991278052,653.1619348996319,6.015394899994135,653.3287953999825,653.3287953999825,0.06916960002854466,0.1823569000698626,6.015400900039822,659.4285836997442,659.4285836997442,659.4285836997442,0.0693164998665452,0.18203879985958338,665.1285229995847,665.3285213997588,6.015392899978906,6.115389899816364,671.3287736997008,12.015643999911845,671.4618802997284,671.4618802997284,0.015505299903452396,0.1154356999322772,up,1.5525575005449355,673.0618107998744,4.100007936358452e-05,0.09837649995461106,679.0782721997239,679.0782721997239,0.02643250022083521,0.11435559997335076,3.0,2.7555686999112368,,,,,,,659.3285555997863,659.3285555997863,671.4284881995991,671.4284881995991,,,,7329,Moral,2024-10-01_17h36.00.821,MoralCondition_v2,2022.2.5,29.99985900308149,
11,0,11,0,1,0,1,0,,,,,,,,,,,,,,,,,,,,,,,,,,,,,,,,,,,,,,,,,,,,,,,,,,,,681.8784496998414,681.8784496998414,0.009960499592125416,0.09936729958280921,3.0,1.4902164000086486,,,,,,,,,,,,,,7329,Moral,2024-10-01_17h36.00.821,MoralCondition_v2,2022.2.5,29.99985900308149,
11,0,11,0,2,0,2,0,,,,,,,,,,,,,,,,,,,,,,,,,,,,,,,,,,,,,,,,,,,,,,,,,,,,683.4286073995754,683.4286073995754,0.007903899997472763,0.11441020015627146,4.0,2.274380899965763,,,,,,,,,,,,,,7329,Moral,2024-10-01_17h36.00.821,MoralCondition_v2,2022.2.5,29.99985900308149,
11,0,11,0,3,0,3,0,,,,,,,,,,,,,,,,,,,,,,,,,,,,,,,,,,,,,,,,,,,,,,,,,,,,685.7284915996715,685.7284915996715,0.00755289988592267,0.09817230002954602,4.0,1.4584070998243988,,,,,,,,,,,,,,7329,Moral,2024-10-01_17h36.00.821,MoralCondition_v2,2022.2.5,29.99985900308149,
11,0,11,0,4,0,4,0,,,,,,,,,,,,,,,,,,,,,,,,,,,,,,,,,,,,,,,,,,,,,,,,,,,,687.2285102996975,687.2285102996975,0.00718480022624135,0.09835170023143291,3.0,2.6916912999004126,,,,,,,,,,,,,,7329,Moral,2024-10-01_17h36.00.821,MoralCondition_v2,2022.2.5,29.99985900308149,
11,0,11,0,5,0,5,0,,,,,,,,,,,,,,,,,,,,,,,,,,,,,,,,,,,,,,,,,,,,,,,,,,,,689.9616808998398,689.9616808998398,0.007413799874484539,0.09806540003046393,2.0,2.458231399767101,,,,,,,,,,,,,,7329,Moral,2024-10-01_17h36.00.821,MoralCondition_v2,2022.2.5,29.99985900308149,
11,0,11,0,6,0,6,0,,,,,,,,,,,,,,,,,,,,,,,,,,,,,,,,,,,,,,,,,,,,,,,,,,,,692.461585899815,692.461585899815,0.006367799825966358,0.09911669977009296,3.0,1.9939329996705055,,,,,,,,,,,,,,7329,Moral,2024-10-01_17h36.00.821,MoralCondition_v2,2022.2.5,29.99985900308149,
11,0,11,0,,,,,,,,,,,,,,,,,,,,,,,,,,,,,,,,,,,,,,,,,,,,,,,,,,,,,,,,,,,,,,694.4952331995592,694.4952331995592,0.0014188000932335854,0.09764609998092055,3.0,3.497401900123805,,,,,,,,7329,Moral,2024-10-01_17h36.00.821,MoralCondition_v2,2022.2.5,29.99985900308149,
12,0,12,0,0,0,0,0,,,,,,,,,,,,,,,,,,,,,,698.0286969998851,0.0002720002084970474,0.09798389999195933,704.0450369999744,6.014643200207502,704.2285327999853,704.2285327999853,0.08786949981004,0.19810600019991398,6.031139799859375,710.3283789996058,710.3283789996058,710.3283789996058,0.0856216000393033,0.19784089969471097,716.0284812999889,716.2287103999406,6.031567600090057,6.131107999943197,722.2283385000192,12.031221499666572,722.361800799612,722.361800799612,0.03143400000408292,0.1310981996357441,up,1.4532522005029023,723.8615603996441,4.439987242221832e-05,0.09798219986259937,729.8614903995767,729.8614903995767,0.006022599991410971,0.09803649969398975,2.0,3.1262294999323785,,,,,,,710.2283603996038,710.2283603996038,722.3283329997212,722.3283329997212,729.8614903995767,,,7329,Moral,2024-10-01_17h36.00.821,MoralCondition_v2,2022.2.5,29.99985900308149,
12,0,12,0,1,0,1,0,,,,,,,,,,,,,,,,,,,,,,,,,,,,,,,,,,,,,,,,,,,,,,,,,,,,733.0281099998392,733.0281099998392,0.007812000345438719,0.09777730004861951,1.0,1.8908295002765954,,,,,,,,,,,,,,7329,Moral,2024-10-01_17h36.00.821,MoralCondition_v2,2022.2.5,29.99985900308149,
12,0,12,0,2,0,2,0,,,,,,,,,,,,,,,,,,,,,,,,,,,,,,,,,,,,,,,,,,,,,,,,,,,,734.9615496997721,734.9615496997721,0.0069114998914301395,0.09834859985858202,3.0,1.8923129998147488,,,,,,,,,,,,,,7329,Moral,2024-10-01_17h36.00.821,MoralCondition_v2,2022.2.5,29.99985900308149,
12,0,12,0,3,0,3,0,,,,,,,,,,,,,,,,,,,,,,,,,,,,,,,,,,,,,,,,,,,,,,,,,,,,736.8948578997515,736.8948578997515,0.005777900107204914,0.09846649970859289,3.0,1.5604457003064454,,,,,,,,,,,,,,7329,Moral,2024-10-01_17h36.00.821,MoralCondition_v2,2022.2.5,29.99985900308149,
12,0,12,0,4,0,4,0,,,,,,,,,,,,,,,,,,,,,,,,,,,,,,,,,,,,,,,,,,,,,,,,,,,,738.5118282996118,738.5118282996118,0.008218699600547552,0.11416819971054792,4.0,4.640240900218487,,,,,,,,,,,,,,7329,Moral,2024-10-01_17h36.00.821,MoralCondition_v2,2022.2.5,29.99985900308149,
12,0,12,0,5,0,5,0,,,,,,,,,,,,,,,,,,,,,,,,,,,,,,,,,,,,,,,,,,,,,,,,,,,,743.1949395998381,743.1949395998381,0.00895779998973012,0.11421030014753342,3.0,2.1061312002129853,,,,,,,,,,,,,,7329,Moral,2024-10-01_17h36.00.821,MoralCondition_v2,2022.2.5,29.99985900308149,
12,0,12,0,6,0,6,0,,,,,,,,,,,,,,,,,,,,,,,,,,,,,,,,,,,,,,,,,,,,,,,,,,,,745.3282277998514,745.3282277998514,0.0075310999527573586,0.09770480031147599,5.0,3.457806299906224,,,,,,,,,,,,,,7329,Moral,2024-10-01_17h36.00.821,MoralCondition_v2,2022.2.5,29.99985900308149,
12,0,12,0,,,,,,,,,,,,,,,,,,,,,,,,,,,,,,,,,,,,,,,,,,,,,,,,,,,,,,,,,,,,,,748.8284139996395,748.8284139996395,0.0007384000346064568,0.0993587002158165,4.0,2.7663471000269055,,,,,,,,7329,Moral,2024-10-01_17h36.00.821,MoralCondition_v2,2022.2.5,29.99985900308149,
13,0,13,0,0,0,0,0,,,,,,,,,,,,,,,,,,,,,,751.6283942000009,0.00040740007534623146,0.09706969978287816,757.6449895999394,6.013908499851823,757.811405999586,757.811405999586,0.0697957999072969,0.18057140009477735,6.013910499867052,763.911483799573,763.911483799573,763.911483799573,0.07132349954918027,0.1806331998668611,769.6115027000196,769.8115871995687,6.01401019981131,6.113988199736923,775.8114559999667,12.013831699732691,775.9448357997462,775.9448357997462,0.014024699572473764,0.11386069981381297,up,0.5417267000302672,776.5447510997765,4.7999899834394455e-05,0.09789759991690516,782.5453967996873,782.5453967996873,0.008984900079667568,0.09783500013872981,5.0,1.7233527000062168,,,,,,,763.811491499655,763.811491499655,775.9114663996734,775.9114663996734,782.5453967996873,,,7329,Moral,2024-10-01_17h36.00.821,MoralCondition_v2,2022.2.5,29.99985900308149,
13,0,13,0,1,0,1,0,,,,,,,,,,,,,,,,,,,,,,,,,,,,,,,,,,,,,,,,,,,,,,,,,,,,784.3113829996437,784.3113829996437,0.0069518000818789005,0.09773290017619729,5.0,1.558375600259751,,,,,,,,,,,,,,7329,Moral,2024-10-01_17h36.00.821,MoralCondition_v2,2022.2.5,29.99985900308149,
13,0,13,0,2,0,2,0,,,,,,,,,,,,,,,,,,,,,,,,,,,,,,,,,,,,,,,,,,,,,,,,,,,,785.928043899592,785.928043899592,0.010134499985724688,0.1143070999532938,3.0,1.3383546001277864,,,,,,,,,,,,,,7329,Moral,2024-10-01_17h36.00.821,MoralCondition_v2,2022.2.5,29.99985900308149,
13,0,13,0,3,0,3,0,,,,,,,,,,,,,,,,,,,,,,,,,,,,,,,,,,,,,,,,,,,,,,,,,,,,787.2946902997792,787.2946902997792,0.00792980007827282,0.09805230004712939,3.0,4.790994799695909,,,,,,,,,,,,,,7329,Moral,2024-10-01_17h36.00.821,MoralCondition_v2,2022.2.5,29.99985900308149,
13,0,13,0,4,0,4,0,,,,,,,,,,,,,,,,,,,,,,,,,,,,,,,,,,,,,,,,,,,,,,,,,,,,792.1279553999193,792.1279553999193,0.00662099989131093,0.0992748998105526,2.0,1.5934184002690017,,,,,,,,,,,,,,7329,Moral,2024-10-01_17h36.00.821,MoralCondition_v2,2022.2.5,29.99985900308149,
13,0,13,0,5,0,5,0,,,,,,,,,,,,,,,,,,,,,,,,,,,,,,,,,,,,,,,,,,,,,,,,,,,,793.7782192998566,793.7782192998566,0.00819920003414154,0.11428230023011565,1.0,1.707143799867481,,,,,,,,,,,,,,7329,Moral,2024-10-01_17h36.00.821,MoralCondition_v2,2022.2.5,29.99985900308149,
13,0,13,0,6,0,6,0,,,,,,,,,,,,,,,,,,,,,,,,,,,,,,,,,,,,,,,,,,,,,,,,,,,,795.5281258998439,795.5281258998439,0.009939100127667189,0.11420579999685287,1.0,0.7717679999768734,,,,,,,,,,,,,,7329,Moral,2024-10-01_17h36.00.821,MoralCondition_v2,2022.2.5,29.99985900308149,
13,0,13,0,,,,,,,,,,,,,,,,,,,,,,,,,,,,,,,,,,,,,,,,,,,,,,,,,,,,,,,,,,,,,,796.3281512996182,796.3281512996182,0.0007109995931386948,0.09920659987255931,4.0,2.099398999940604,,,,,,,,7329,Moral,2024-10-01_17h36.00.821,MoralCondition_v2,2022.2.5,29.99985900308149,
14,0,14,0,0,0,0,0,,,,,,,,,,,,,,,,,,,,,,798.461509199813,0.0001997002400457859,0.09852700028568506,804.461362299975,6.031862400006503,804.6449274998158,804.6449274998158,0.06728250021114945,0.18208560021594167,6.015083299949765,810.7445366997272,810.7445366997272,810.7445366997272,0.07105149980634451,0.18185649998486042,816.4447142998688,816.6446372997016,6.01514479983598,6.11510939989239,822.6444416996092,12.014849599916488,822.7778198998421,822.7778198998421,0.015068999957293272,0.1149673000909388,up,1.0844247001223266,823.9112803000025,5.62998466193676e-05,0.09762550005689263,829.9278044998646,829.9278044998646,0.025319700129330158,0.11418029991909862,3.0,3.3232513000257313,,,,,,,810.6446468997747,810.6446468997747,822.7277027997188,822.7277027997188,,,,7329,Moral,2024-10-01_17h36.00.821,MoralCondition_v2,2022.2.5,29.99985900308149,
14,0,14,0,1,0,1,0,,,,,,,,,,,,,,,,,,,,,,,,,,,,,,,,,,,,,,,,,,,,,,,,,,,,833.2946416996419,833.2946416996419,0.007566799875348806,0.09778079995885491,4.0,1.6243016999214888,,,,,,,,,,,,,,7329,Moral,2024-10-01_17h36.00.821,MoralCondition_v2,2022.2.5,29.99985900308149,
14,0,14,0,2,0,2,0,,,,,,,,,,,,,,,,,,,,,,,,,,,,,,,,,,,,,,,,,,,,,,,,,,,,834.9779468998313,834.9779468998313,0.008450999855995178,0.11446259962394834,2.0,1.9737633001059294,,,,,,,,,,,,,,7329,Moral,2024-10-01_17h36.00.821,MoralCondition_v2,2022.2.5,29.99985900308149,
14,0,14,0,3,0,3,0,,,,,,,,,,,,,,,,,,,,,,,,,,,,,,,,,,,,,,,,,,,,,,,,,,,,836.977905199863,836.977905199863,0.0077321999706327915,0.09780910005792975,1.0,1.5578959002159536,,,,,,,,,,,,,,7329,Moral,2024-10-01_17h36.00.821,MoralCondition_v2,2022.2.5,29.99985900308149,
14,0,14,0,4,0,4,0,,,,,,,,,,,,,,,,,,,,,,,,,,,,,,,,,,,,,,,,,,,,,,,,,,,,838.5950583997183,838.5950583997183,0.009218799881637096,0.11374130006879568,4.0,2.4055643999017775,,,,,,,,,,,,,,7329,Moral,2024-10-01_17h36.00.821,MoralCondition_v2,2022.2.5,29.99985900308149,
14,0,14,0,5,0,5,0,,,,,,,,,,,,,,,,,,,,,,,,,,,,,,,,,,,,,,,,,,,,,,,,,,,,841.0279714995995,841.0279714995995,0.0070997001603245735,0.09905550023540854,2.0,2.626423600129783,,,,,,,,,,,,,,7329,Moral,2024-10-01_17h36.00.821,MoralCondition_v2,2022.2.5,29.99985900308149,
14,0,14,0,6,0,6,0,,,,,,,,,,,,,,,,,,,,,,,,,,,,,,,,,,,,,,,,,,,,,,,,,,,,843.6943353996612,843.6943353996612,0.007345600053668022,0.09749740036204457,1.0,1.4577543996274471,,,,,,,,,,,,,,7329,Moral,2024-10-01_17h36.00.821,MoralCondition_v2,2022.2.5,29.99985900308149,
14,0,14,0,,,,,,,,,,,,,,,,,,,,,,,,,,,,,,,,,,,,,,,,,,,,,,,,,,,,,,,,,,,,,,845.1946367998607,845.1946367998607,0.0007046000100672245,0.099155199714005,4.0,1.9327974002808332,,,,,,,,7329,Moral,2024-10-01_17h36.00.821,MoralCondition_v2,2022.2.5,29.99985900308149,
15,0,15,0,0,0,0,0,,,,,,,,,,,,,,,,,,,,,,847.1613962999545,0.0002762000076472759,0.09793390007689595,853.1778211998753,6.014600200112909,853.3443700997159,853.3443700997159,0.0717531000263989,0.18135909968987107,6.0145634999498725,859.4280616999604,859.4280616999604,859.4280616999604,0.06537229986861348,0.16478839982300997,865.1277866996825,865.3612143998034,6.0313540999777615,6.13119599968195,871.3611150998622,12.031238799914718,871.4944126997143,871.4944126997143,0.03128909971565008,0.131199199706316,up,2.1597241004928946,873.6944149998017,4.20999713242054e-05,0.09785120002925396,879.7109979996458,879.7109979996458,0.010482399724423885,0.11457669967785478,4.0,2.0716944001615047,,,,,,,859.3444160996005,859.3444160996005,871.4277415997349,871.4277415997349,879.7109979996458,,,7329,Moral,2024-10-01_17h36.00.821,MoralCondition_v2,2022.2.5,29.99985900308149,
15,0,15,0,1,0,1,0,,,,,,,,,,,,,,,,,,,,,,,,,,,,,,,,,,,,,,,,,,,,,,,,,,,,881.8279919996858,881.8279919996858,0.007999999914318323,0.11457059998065233,3.0,1.6744197001680732,,,,,,,,,,,,,,7329,Moral,2024-10-01_17h36.00.821,MoralCondition_v2,2022.2.5,29.99985900308149,
15,0,15,0,2,0,2,0,,,,,,,,,,,,,,,,,,,,,,,,,,,,,,,,,,,,,,,,,,,,,,,,,,,,883.5276096998714,883.5276096998714,0.0069603999145329,0.0980624002404511,5.0,1.7587609002366662,,,,,,,,,,,,,,7329,Moral,2024-10-01_17h36.00.821,MoralCondition_v2,2022.2.5,29.99985900308149,
15,0,15,0,3,0,3,0,,,,,,,,,,,,,,,,,,,,,,,,,,,,,,,,,,,,,,,,,,,,,,,,,,,,885.3446416999213,885.3446416999213,0.008027299772948027,0.11418089969083667,2.0,1.606973699759692,,,,,,,,,,,,,,7329,Moral,2024-10-01_17h36.00.821,MoralCondition_v2,2022.2.5,29.99985900308149,
15,0,15,0,4,0,4,0,,,,,,,,,,,,,,,,,,,,,,,,,,,,,,,,,,,,,,,,,,,,,,,,,,,,886.9944050000049,886.9944050000049,0.011153599712997675,0.11422930005937815,2.0,1.3708179998211563,,,,,,,,,,,,,,7329,Moral,2024-10-01_17h36.00.821,MoralCondition_v2,2022.2.5,29.99985900308149,
15,0,15,0,5,0,5,0,,,,,,,,,,,,,,,,,,,,,,,,,,,,,,,,,,,,,,,,,,,,,,,,,,,,888.394350099843,888.394350099843,0.006517000030726194,0.09894150029867887,1.0,0.8270288002677262,,,,,,,,,,,,,,7329,Moral,2024-10-01_17h36.00.821,MoralCondition_v2,2022.2.5,29.99985900308149,
15,0,15,0,6,0,6,0,,,,,,,,,,,,,,,,,,,,,,,,,,,,,,,,,,,,,,,,,,,,,,,,,,,,889.2608915995806,889.2608915995806,0.006499799899756908,0.09950829995796084,2.0,2.393888599704951,,,,,,,,,,,,,,7329,Moral,2024-10-01_17h36.00.821,MoralCondition_v2,2022.2.5,29.99985900308149,
15,0,15,0,,,,,,,,,,,,,,,,,,,,,,,,,,,,,,,,,,,,,,,,,,,,,,,,,,,,,,,,,,,,,,891.6942737000063,891.6942737000063,0.0020802998915314674,0.09724939987063408,4.0,1.5630729999393225,,,,,,,,7329,Moral,2024-10-01_17h36.00.821,MoralCondition_v2,2022.2.5,29.99985900308149,
16,0,16,0,0,0,0,0,,,,,,,,,,,,,,,,,,,,,,893.2944056997076,0.0002883998677134514,0.0981529001146555,899.2943257996812,6.031475499738008,899.494197299704,899.494197299704,0.08580849971622229,0.19808209966868162,6.031395199708641,905.5943804997951,905.5943804997951,905.5943804997951,0.08634189981967211,0.19821079960092902,911.2943437998183,911.4943003999069,6.031475299503654,6.131442599929869,917.4942445997149,12.03139519970864,917.6276589999907,917.6276589999907,0.031522299628704786,0.1313828998245299,up,1.979235800448805,919.6442437996157,4.1999854147434235e-05,0.09774089977145195,925.6610383000225,925.6610383000225,0.008518199902027845,0.11444939998909831,1.0,2.3400792996399105,,,,,,,905.4942658999935,905.4942658999935,917.5942213996314,917.5942213996314,925.6610383000225,,,7329,Moral,2024-10-01_17h36.00.821,MoralCondition_v2,2022.2.5,29.99985900308149,
16,0,16,0,1,0,1,0,,,,,,,,,,,,,,,,,,,,,,,,,,,,,,,,,,,,,,,,,,,,,,,,,,,,928.0273890998214,928.0273890998214,0.00784240011125803,0.09901420027017593,4.0,2.0587680996395648,,,,,,,,,,,,,,7329,Moral,2024-10-01_17h36.00.821,MoralCondition_v2,2022.2.5,29.99985900308149,
16,0,16,0,2,0,2,0,,,,,,,,,,,,,,,,,,,,,,,,,,,,,,,,,,,,,,,,,,,,,,,,,,,,930.1274012997746,930.1274012997746,0.0066815996542572975,0.09932069992646575,1.0,1.493793800007552,,,,,,,,,,,,,,7329,Moral,2024-10-01_17h36.00.821,MoralCondition_v2,2022.2.5,29.99985900308149,
16,0,16,0,3,0,3,0,,,,,,,,,,,,,,,,,,,,,,,,,,,,,,,,,,,,,,,,,,,,,,,,,,,,931.6777810999192,931.6777810999192,0.008252900093793869,0.1142369001172483,1.0,1.7067379001528025,,,,,,,,,,,,,,7329,Moral,2024-10-01_17h36.00.821,MoralCondition_v2,2022.2.5,29.99985900308149,
16,0,16,0,4,0,4,0,,,,,,,,,,,,,,,,,,,,,,,,,,,,,,,,,,,,,,,,,,,,,,,,,,,,933.4110758998431,933.4110758998431,0.006881299894303083,0.09862129995599389,1.0,1.3924429998733103,,,,,,,,,,,,,,7329,Moral,2024-10-01_17h36.00.821,MoralCondition_v2,2022.2.5,29.99985900308149,
16,0,16,0,5,0,5,0,,,,,,,,,,,,,,,,,,,,,,,,,,,,,,,,,,,,,,,,,,,,,,,,,,,,934.8443310996518,934.8443310996518,0.007910700049251318,0.09767680009827018,1.0,1.8242675997316837,,,,,,,,,,,,,,7329,Moral,2024-10-01_17h36.00.821,MoralCondition_v2,2022.2.5,29.99985900308149,
16,0,16,0,6,0,6,0,,,,,,,,,,,,,,,,,,,,,,,,,,,,,,,,,,,,,,,,,,,,,,,,,,,,936.7106951000169,936.7106951000169,0.007555199787020683,0.09795239986851811,5.0,1.624909299891442,,,,,,,,,,,,,,7329,Moral,2024-10-01_17h36.00.821,MoralCondition_v2,2022.2.5,29.99985900308149,
16,0,16,0,,,,,,,,,,,,,,,,,,,,,,,,,,,,,,,,,,,,,,,,,,,,,,,,,,,,,,,,,,,,,,938.3774893996306,938.3774893996306,0.0006778999231755733,0.09923099959269166,4.0,1.8661481998860836,,,,,,,,7329,Moral,2024-10-01_17h36.00.821,MoralCondition_v2,2022.2.5,29.99985900308149,
17,0,17,0,0,0,0,0,,,,,,,,,,,,,,,,,,,,,,940.2777689998038,0.00028089992702007294,0.09761729976162314,946.2774333995767,6.031001300085336,946.4773962995969,946.4773962995969,0.08443949976935983,0.19767399970442057,6.030928799882531,952.5776772997342,952.5776772997342,952.5776772997342,0.08514439966529608,0.19788349978625774,958.2774352999404,958.477481899783,6.031048599630594,6.130947099998593,964.4773981999606,12.031012599822134,964.610920699779,964.610920699779,0.031270799692720175,0.13091439986601472,up,0.5798228005878627,965.244145100005,5.439994856715202e-05,0.11436700029298663,971.2606090996414,971.2606090996414,0.027022200170904398,0.11440930003300309,3.0,2.154956199694425,,,,,,,952.4774162997492,952.4774162997492,964.5775859998539,964.5775859998539,,,,7329,Moral,2024-10-01_17h36.00.821,MoralCondition_v2,2022.2.5,29.99985900308149,
17,0,17,0,1,0,1,0,,,,,,,,,,,,,,,,,,,,,,,,,,,,,,,,,,,,,,,,,,,,,,,,,,,,973.4609186998568,973.4609186998568,0.0070004998706281185,0.09820599993690848,4.0,1.3923084000125527,,,,,,,,,,,,,,7329,Moral,2024-10-01_17h36.00.821,MoralCondition_v2,2022.2.5,29.99985900308149,
17,0,17,0,2,0,2,0,,,,,,,,,,,,,,,,,,,,,,,,,,,,,,,,,,,,,,,,,,,,,,,,,,,,974.8941538999788,974.8941538999788,0.007538600359112024,0.09794510016217828,2.0,2.1244989996775985,,,,,,,,,,,,,,7329,Moral,2024-10-01_17h36.00.821,MoralCondition_v2,2022.2.5,29.99985900308149,
17,0,17,0,3,0,3,0,,,,,,,,,,,,,,,,,,,,,,,,,,,,,,,,,,,,,,,,,,,,,,,,,,,,977.0607925998047,977.0607925998047,0.008935300167649984,0.0974473999813199,2.0,0.7227574000135064,,,,,,,,,,,,,,7329,Moral,2024-10-01_17h36.00.821,MoralCondition_v2,2022.2.5,29.99985900308149,
17,0,17,0,4,0,4,0,,,,,,,,,,,,,,,,,,,,,,,,,,,,,,,,,,,,,,,,,,,,,,,,,,,,977.8272384000011,977.8272384000011,0.006715199910104275,0.09918029978871346,3.0,3.926708099897951,,,,,,,,,,,,,,7329,Moral,2024-10-01_17h36.00.821,MoralCondition_v2,2022.2.5,29.99985900308149,
17,0,17,0,5,0,5,0,,,,,,,,,,,,,,,,,,,,,,,,,,,,,,,,,,,,,,,,,,,,,,,,,,,,981.7939159995876,981.7939159995876,0.007137299980968237,0.0980901001021266,2.0,1.8586689000949264,,,,,,,,,,,,,,7329,Moral,2024-10-01_17h36.00.821,MoralCondition_v2,2022.2.5,29.99985900308149,
17,0,17,0,6,0,6,0,,,,,,,,,,,,,,,,,,,,,,,,,,,,,,,,,,,,,,,,,,,,,,,,,,,,983.6940479995683,983.6940479995683,0.0072062998078763485,0.09813850000500679,1.0,1.0923003000207245,,,,,,,,,,,,,,7329,Moral,2024-10-01_17h36.00.821,MoralCondition_v2,2022.2.5,29.99985900308149,
17,0,17,0,,,,,,,,,,,,,,,,,,,,,,,,,,,,,,,,,,,,,,,,,,,,,,,,,,,,,,,,,,,,,,984.8274117996916,984.8274117996916,0.001268200110644102,0.09823059989139438,4.0,1.6978591997176409,,,,,,,,7329,Moral,2024-10-01_17h36.00.821,MoralCondition_v2,2022.2.5,29.99985900308149,
18,0,18,0,0,0,0,0,,,,,,,,,,,,,,,,,,,,,,986.5605895998888,0.0002502002753317356,0.11482120025902987,992.5606080996804,6.031457799952477,992.7604894000106,992.7604894000106,0.09143969975411892,0.198524400126189,6.03146839980036,998.8605324998498,998.8605324998498,998.8605324998498,0.091792699880898,0.19807389983907342,1004.5605687997304,1004.760580400005,6.031449900008738,6.131610000040382,1010.7605160996318,12.031372299883515,1010.8938788999803,1010.8938788999803,0.031540699768811464,0.1313644996844232,up,2.2165760002098978,1013.1605487996712,5.029980093240738e-05,0.09793899999931455,1019.1604766999371,1019.1604766999371,0.008578500244766474,0.09803739981725812,2.0,2.5236988998949528,,,,,,,998.7605931996368,998.7605931996368,1010.8605135995895,1010.8605135995895,1019.1604766999371,,,7329,Moral,2024-10-01_17h36.00.821,MoralCondition_v2,2022.2.5,29.99985900308149,
18,0,18,0,1,0,1,0,,,,,,,,,,,,,,,,,,,,,,,,,,,,,,,,,,,,,,,,,,,,,,,,,,,,1021.7275784998201,1021.7275784998201,0.005958499852567911,0.098883300088346,4.0,1.2270081001333892,,,,,,,,,,,,,,7329,Moral,2024-10-01_17h36.00.821,MoralCondition_v2,2022.2.5,29.99985900308149,
18,0,18,0,2,0,2,0,,,,,,,,,,,,,,,,,,,,,,,,,,,,,,,,,,,,,,,,,,,,,,,,,,,,1022.9937563999556,1022.9937563999556,0.0066987001337111,0.09909249981865287,1.0,2.6601017001084983,,,,,,,,,,,,,,7329,Moral,2024-10-01_17h36.00.821,MoralCondition_v2,2022.2.5,29.99985900308149,
18,0,18,0,3,0,3,0,,,,,,,,,,,,,,,,,,,,,,,,,,,,,,,,,,,,,,,,,,,,,,,,,,,,1025.7107327999547,1025.7107327999547,0.008366100024431944,0.11494160024449229,1.0,0.907636399846524,,,,,,,,,,,,,,7329,Moral,2024-10-01_17h36.00.821,MoralCondition_v2,2022.2.5,29.99985900308149,
18,0,18,0,4,0,4,0,,,,,,,,,,,,,,,,,,,,,,,,,,,,,,,,,,,,,,,,,,,,,,,,,,,,1026.6437945999205,1026.6437945999205,0.007711600046604872,0.09792579989880323,3.0,1.9579060999676585,,,,,,,,,,,,,,7329,Moral,2024-10-01_17h36.00.821,MoralCondition_v2,2022.2.5,29.99985900308149,
18,0,18,0,5,0,5,0,,,,,,,,,,,,,,,,,,,,,,,,,,,,,,,,,,,,,,,,,,,,,,,,,,,,1028.6436129999347,1028.6436129999347,0.00664450041949749,0.09924620017409325,4.0,1.2600495996885002,,,,,,,,,,,,,,7329,Moral,2024-10-01_17h36.00.821,MoralCondition_v2,2022.2.5,29.99985900308149,
18,0,18,0,6,0,6,0,,,,,,,,,,,,,,,,,,,,,,,,,,,,,,,,,,,,,,,,,,,,,,,,,,,,1029.9605124997906,1029.9605124997906,0.00813630037009716,0.11437420034781098,2.0,1.340469399932772,,,,,,,,,,,,,,7329,Moral,2024-10-01_17h36.00.821,MoralCondition_v2,2022.2.5,29.99985900308149,
18,0,18,0,,,,,,,,,,,,,,,,,,,,,,,,,,,,,,,,,,,,,,,,,,,,,,,,,,,,,,,,,,,,,,1031.3269503996707,1031.3269503996707,0.0022049997933208942,0.09648589976131916,4.0,1.462186699733138,,,,,,,,7329,Moral,2024-10-01_17h36.00.821,MoralCondition_v2,2022.2.5,29.99985900308149,
19,0,19,0,0,0,0,0,,,,,,,,,,,,,,,,,,,,,,1032.8274274999276,0.00014009978622198105,0.09923489997163415,1038.8270976999775,6.032397499773651,1039.0102689997293,1039.0102689997293,0.07310309959575534,0.1823615995235741,6.015731299761683,1045.1102509996854,1045.1102509996854,1045.1102509996854,0.0710651995614171,0.18237029947340488,1050.810400399845,1051.0104300999083,6.015753799583763,6.115638699382544,1057.0103571997024,12.015656099654734,1057.1438091997989,1057.1438091997989,0.015834799502044916,0.11562149971723557,up,0.7347476002760231,1057.9438942996785,5.079992115497589e-05,0.09786579990759492,1063.96041149972,1063.96041149972,0.00791190005838871,0.11446089996024966,3.0,2.3407389000058174,,,,,,,1045.010400199797,1045.010400199797,1057.1103737996891,1057.1103737996891,1063.96041149972,,,7329,Moral,2024-10-01_17h36.00.821,MoralCondition_v2,2022.2.5,29.99985900308149,
19,0,19,0,1,0,1,0,,,,,,,,,,,,,,,,,,,,,,,,,,,,,,,,,,,,,,,,,,,,,,,,,,,,1066.3270368999802,1066.3270368999802,0.006859299726784229,0.09930109977722168,2.0,2.7932172999717295,,,,,,,,,,,,,,7329,Moral,2024-10-01_17h36.00.821,MoralCondition_v2,2022.2.5,29.99985900308149,
19,0,19,0,2,0,2,0,,,,,,,,,,,,,,,,,,,,,,,,,,,,,,,,,,,,,,,,,,,,,,,,,,,,1069.1603515995666,1069.1603515995666,0.007429900113493204,0.09803650015965104,2.0,1.0579770002514124,,,,,,,,,,,,,,7329,Moral,2024-10-01_17h36.00.821,MoralCondition_v2,2022.2.5,29.99985900308149,
19,0,19,0,3,0,3,0,,,,,,,,,,,,,,,,,,,,,,,,,,,,,,,,,,,,,,,,,,,,,,,,,,,,1070.2768310997635,1070.2768310997635,0.00811670022085309,0.11428399989381433,2.0,1.9735489999875426,,,,,,,,,,,,,,7329,Moral,2024-10-01_17h36.00.821,MoralCondition_v2,2022.2.5,29.99985900308149,
19,0,19,0,4,0,4,0,,,,,,,,,,,,,,,,,,,,,,,,,,,,,,,,,,,,,,,,,,,,,,,,,,,,1072.2935705999844,1072.2935705999844,0.007910999935120344,0.11400629999116063,5.0,1.573628899641335,,,,,,,,,,,,,,7329,Moral,2024-10-01_17h36.00.821,MoralCondition_v2,2022.2.5,29.99985900308149,
19,0,19,0,5,0,5,0,,,,,,,,,,,,,,,,,,,,,,,,,,,,,,,,,,,,,,,,,,,,,,,,,,,,1073.8935645995662,1073.8935645995662,0.007093499880284071,0.09843460004776716,4.0,1.5587368998676538,,,,,,,,,,,,,,7329,Moral,2024-10-01_17h36.00.821,MoralCondition_v2,2022.2.5,29.99985900308149,
19,0,19,0,6,0,6,0,,,,,,,,,,,,,,,,,,,,,,,,,,,,,,,,,,,,,,,,,,,,,,,,,,,,1075.4936710996553,1075.4936710996553,0.007661300245672464,0.0977254998870194,1.0,1.724289699923247,,,,,,,,,,,,,,7329,Moral,2024-10-01_17h36.00.821,MoralCondition_v2,2022.2.5,29.99985900308149,
19,0,19,0,,,,,,,,,,,,,,,,,,,,,,,,,,,,,,,,,,,,,,,,,,,,,,,,,,,,,,,,,,,,,,1077.2604019995779,1077.2604019995779,0.0015420997515320778,0.09786990005522966,4.0,1.6309628998860717,,,,,,,,7329,Moral,2024-10-01_17h36.00.821,MoralCondition_v2,2022.2.5,29.99985900308149,
