loop.thisRepN,loop.thisTrialN,loop.thisN,loop.thisIndex,evaluate_all_emotions.thisRepN,evaluate_all_emotions.thisTrialN,evaluate_all_emotions.thisN,evaluate_all_emotions.thisIndex,sync_beep_1.started,p_port.started,p_port.stopped,sync_beep_1.stopped,sync_beep_2.started,sync_beep_3.started,sync_beep_3.stopped,sync_beep_4.started,sync_beep_4.stopped,baseline.started,p_port_2.started,p_port_2.stopped,baseline.stopped,p_port_3.started,Game_Start_Text.started,p_port_4.started,p_port_4.stopped,key_resp.started,key_resp.keys,key_resp.rt,fixation_cross.started,p_port_5.started,p_port_5.stopped,fixation_cross.stopped,p_port_6.started,player_image_intro.started,player_name_intro.started,p_port_7.started,p_port_7.stopped,p_port_8.started,player_image_offer.started,player_name_offer.started,proposed_split.started,p_port_9.started,p_port_9.stopped,proposed_split.stopped,accept_reject.started,p_port_15.started,p_port_15.stopped,accept_reject.stopped,p_port_10.started,arrow_instructions.started,offer_choice.started,p_port_11.started,p_port_11.stopped,offer_choice.keys,offer_choice.rt,Instructions_Affinity_Score.started,p_port_12.started,p_port_12.stopped,Emotion_Image.started,AffinityScore.started,p_port_13.started,p_port_13.stopped,AffinityScore.response,AffinityScore.rt,Instruction.started,Moral_Disgust_Score.started,p_port_14.started,p_port_14.stopped,Moral_Disgust_Score.response,Moral_Disgust_Score.rt,player_image_offer.stopped,player_name_offer.stopped,p_port_6.stopped,Instructions_Affinity_Score.stopped,player_image_intro.stopped,player_name_intro.stopped,p_port_8.stopped,p_port_10.stopped,participant,session,date,expName,psychopyVersion,frameRate,
,,,,,,,,20.927847961895168,0.0008530998602509499,0.10506050009280443,21.257295600138605,21.524100810056552,22.1071761099156,22.423960799816996,22.707243510289118,23.040474799927324,23.040474799927324,0.004858799744397402,0.10508489981293678,38.05732210027054,15.021767599973828,38.14060499984771,0.005096099805086851,0.10503899957984686,38.60729780001566,space,1.564391900319606,,,,,,,,,,,,,,,,,,,,,,,,,,,,,,,,,,,,,,,,,,,,,,,,,,,7394,Moral,2025-02-20_11h45.22.099,MoralCondition_v2,2022.2.5,29.944252802788412,
0,0,0,0,0,0,0,0,,,,,,,,,,,,,,,,,,,,,40.20756300026551,0.0023285001516342163,0.09792080009356141,46.20732979988679,6.031341999769211,46.54059730004519,46.54059730004519,0.16231509996578097,0.33165489975363016,6.031242799945176,52.523936700075865,52.523936700075865,52.523936700075865,0.09122809953987598,0.21455519972369075,58.22396970028058,58.39067650027573,6.014683899935335,6.114594699814916,64.39070519991219,12.01475889980793,64.5239030001685,64.5239030001685,0.014819999691098928,0.11440999945625663,up,1.8535253000445664,66.42392829991877,9.450037032365799e-05,0.09589850017800927,72.47398900007829,72.47398900007829,0.031419200357049704,0.14604709995910525,2.0,7.548848500009626,,,,,,,,,,,,,,,7394,Moral,2025-02-20_11h45.22.099,MoralCondition_v2,2022.2.5,29.944252802788412,
0,0,0,0,1,0,1,0,,,,,,,,,,,,,,,,,,,,,,,,,,,,,,,,,,,,,,,,,,,,,,,,,,,80.05739769991487,80.05739769991487,0.011740499641746283,0.11582769965752959,5.0,5.505227399989963,,,,,,,,,,,,,,,7394,Moral,2025-02-20_11h45.22.099,MoralCondition_v2,2022.2.5,29.944252802788412,
0,0,0,0,2,0,2,0,,,,,,,,,,,,,,,,,,,,,,,,,,,,,,,,,,,,,,,,,,,,,,,,,,,85.60738549986854,85.60738549986854,0.015928900334984064,0.11591930035501719,1.0,3.1673858002759516,,,,,,,,,,,,,,,7394,Moral,2025-02-20_11h45.22.099,MoralCondition_v2,2022.2.5,29.944252802788412,
0,0,0,0,3,0,3,0,,,,,,,,,,,,,,,,,,,,,,,,,,,,,,,,,,,,,,,,,,,,,,,,,,,88.80726299993694,88.80726299993694,0.010058800224214792,0.09769289987161756,1.0,3.4883890002965927,,,,,,,,,,,,,,,7394,Moral,2025-02-20_11h45.22.099,MoralCondition_v2,2022.2.5,29.944252802788412,
0,0,0,0,4,0,4,0,,,,,,,,,,,,,,,,,,,,,,,,,,,,,,,,,,,,,,,,,,,,,,,,,,,92.3575301002711,92.3575301002711,0.010780999902635813,0.11438560020178556,4.0,3.5710392999462783,,,,,,,,,,,,,,,7394,Moral,2025-02-20_11h45.22.099,MoralCondition_v2,2022.2.5,29.944252802788412,
0,0,0,0,5,0,5,0,,,,,,,,,,,,,,,,,,,,,,,,,,,,,,,,,,,,,,,,,,,,,,,,,,,95.97424399992451,95.97424399992451,0.009235499892383814,0.11513689998537302,3.0,3.1735351998358965,,,,,,,,,,,,,,,7394,Moral,2025-02-20_11h45.22.099,MoralCondition_v2,2022.2.5,29.944252802788412,
0,0,0,0,6,0,6,0,,,,,,,,,,,,,,,,,,,,,,,,,,,,,,,,,,,,,,,,,,,,,,,,,,,99.19061530008912,99.19061530008912,0.013595300260931253,0.11467789998278022,1.0,6.43523189984262,,,,,,,,,,,,,,,7394,Moral,2025-02-20_11h45.22.099,MoralCondition_v2,2022.2.5,29.944252802788412,
0,0,0,0,,,,,,,,,,,,,,,,,,,,,,,,,,,,,,,,,,,,,,,,,,,,,,,,,,,,,,,,,,,,,105.65718400012702,105.65718400012702,0.000803499948233366,0.09909539995715022,6.0,6.732819200027734,,,,,,,,,7394,Moral,2025-02-20_11h45.22.099,MoralCondition_v2,2022.2.5,29.944252802788412,
1,0,1,0,0,0,0,0,,,,,,,,,,,,,,,,,,,,,112.4240792999044,0.0003526001237332821,0.09716260014101863,118.44076539995149,6.013838300015777,118.67402830021456,118.67402830021456,0.14299200009554625,0.2471321001648903,6.013867499772459,124.70732389995828,124.70732389995828,124.70732389995828,0.07377989962697029,0.1805837000720203,130.40728810010478,130.6073145000264,6.013870100025088,6.113830399699509,136.60733739985153,12.0138989998959,136.7407304001972,136.7407304001972,0.01401259982958436,0.11385839991271496,down,0.7723872000351548,137.5739231002517,1.400010660290718e-05,0.09953480027616024,143.60730220004916,143.60730220004916,0.027007299941033125,0.13275060011073947,6.0,4.673502199817449,,,,,,,136.70731490012258,136.70731490012258,,,,,,,7394,Moral,2025-02-20_11h45.22.099,MoralCondition_v2,2022.2.5,29.944252802788412,
1,0,1,0,1,0,1,0,,,,,,,,,,,,,,,,,,,,,,,,,,,,,,,,,,,,,,,,,,,,,,,,,,,148.34067279985175,148.34067279985175,0.031870400067418814,0.13234189990907907,4.0,2.868706800043583,,,,,,,,,,,,,,,7394,Moral,2025-02-20_11h45.22.099,MoralCondition_v2,2022.2.5,29.944252802788412,
1,0,1,0,2,0,2,0,,,,,,,,,,,,,,,,,,,,,,,,,,,,,,,,,,,,,,,,,,,,,,,,,,,151.25737689994276,151.25737689994276,0.01457139989361167,0.1158892996609211,5.0,3.2354931998997927,,,,,,,,,,,,,,,7394,Moral,2025-02-20_11h45.22.099,MoralCondition_v2,2022.2.5,29.944252802788412,
1,0,1,0,3,0,3,0,,,,,,,,,,,,,,,,,,,,,,,,,,,,,,,,,,,,,,,,,,,,,,,,,,,154.54071260010824,154.54071260010824,0.01683599967509508,0.11563050001859665,5.0,2.033111599739641,,,,,,,,,,,,,,,7394,Moral,2025-02-20_11h45.22.099,MoralCondition_v2,2022.2.5,29.944252802788412,
1,0,1,0,4,0,4,0,,,,,,,,,,,,,,,,,,,,,,,,,,,,,,,,,,,,,,,,,,,,,,,,,,,156.60731439990923,156.60731439990923,0.00878889998421073,0.09909450029954314,2.0,2.924818600062281,,,,,,,,,,,,,,,7394,Moral,2025-02-20_11h45.22.099,MoralCondition_v2,2022.2.5,29.944252802788412,
1,0,1,0,5,0,5,0,,,,,,,,,,,,,,,,,,,,,,,,,,,,,,,,,,,,,,,,,,,,,,,,,,,159.59080770006403,159.59080770006403,0.010105699766427279,0.11555769992992282,6.0,2.639608500059694,,,,,,,,,,,,,,,7394,Moral,2025-02-20_11h45.22.099,MoralCondition_v2,2022.2.5,29.944252802788412,
1,0,1,0,6,0,6,0,,,,,,,,,,,,,,,,,,,,,,,,,,,,,,,,,,,,,,,,,,,,,,,,,,,162.25724649988115,162.25724649988115,0.008420600090175867,0.09929809998720884,5.0,4.1918028998188674,,,,,,,,,,,,,,,7394,Moral,2025-02-20_11h45.22.099,MoralCondition_v2,2022.2.5,29.944252802788412,
1,0,1,0,,,,,,,,,,,,,,,,,,,,,,,,,,,,,,,,,,,,,,,,,,,,,,,,,,,,,,,,,,,,,166.49063430028036,166.49063430028036,0.0016038999892771244,0.09748819982632995,3.0,4.630571200046688,,,,,,,,,7394,Moral,2025-02-20_11h45.22.099,MoralCondition_v2,2022.2.5,29.944252802788412,
2,0,2,0,0,0,0,0,,,,,,,,,,,,,,,,,,,,,171.15741749992594,0.0003559999167919159,0.09882850013673306,177.14044689992443,6.0151301003061235,177.39102640002966,177.39102640002966,0.10655169980600476,0.23225879995152354,6.032084799837321,183.45743170008063,183.45743170008063,183.45743170008063,0.10023809969425201,0.19874010002240539,189.15759690012783,189.35747609985992,6.03222779976204,6.132098599802703,195.35735550010577,12.032109399791807,195.45730700017884,195.45730700017884,0.015366300009191036,0.09873349964618683,up,1.7515114997513592,197.2740083001554,5.050003528594971e-05,0.09775839978829026,203.29069310007617,203.29069310007617,0.00894089974462986,0.11450750008225441,6.0,2.8732978999614716,,,,,,,195.44052960025147,195.44052960025147,6.09850460011512,203.29069310007617,,,,,7394,Moral,2025-02-20_11h45.22.099,MoralCondition_v2,2022.2.5,29.944252802788412,
2,0,2,0,1,0,1,0,,,,,,,,,,,,,,,,,,,,,,,,,,,,,,,,,,,,,,,,,,,,,,,,,,,206.19074300024658,206.19074300024658,0.007543900050222874,0.09930989984422922,5.0,3.1926381001248956,,,,,,,,,,,,,,,7394,Moral,2025-02-20_11h45.22.099,MoralCondition_v2,2022.2.5,29.944252802788412,
2,0,2,0,2,0,2,0,,,,,,,,,,,,,,,,,,,,,,,,,,,,,,,,,,,,,,,,,,,,,,,,,,,209.4241483998485,209.4241483998485,0.006598900072276592,0.09940529987215996,3.0,2.4936224003322423,,,,,,,,,,,,,,,7394,Moral,2025-02-20_11h45.22.099,MoralCondition_v2,2022.2.5,29.944252802788412,
2,0,2,0,3,0,3,0,,,,,,,,,,,,,,,,,,,,,,,,,,,,,,,,,,,,,,,,,,,,,,,,,,,211.97405970003456,211.97405970003456,0.007996200118213892,0.11437880015000701,5.0,3.5741894003003836,,,,,,,,,,,,,,,7394,Moral,2025-02-20_11h45.22.099,MoralCondition_v2,2022.2.5,29.944252802788412,
2,0,2,0,4,0,4,0,,,,,,,,,,,,,,,,,,,,,,,,,,,,,,,,,,,,,,,,,,,,,,,,,,,215.59071350004524,215.59071350004524,0.007544999942183495,0.11393760005012155,4.0,2.707375700119883,,,,,,,,,,,,,,,7394,Moral,2025-02-20_11h45.22.099,MoralCondition_v2,2022.2.5,29.944252802788412,
2,0,2,0,5,0,5,0,,,,,,,,,,,,,,,,,,,,,,,,,,,,,,,,,,,,,,,,,,,,,,,,,,,218.32394789997488,218.32394789997488,0.007178999949246645,0.09795159986242652,4.0,3.225227499846369,,,,,,,,,,,,,,,7394,Moral,2025-02-20_11h45.22.099,MoralCondition_v2,2022.2.5,29.944252802788412,
2,0,2,0,6,0,6,0,,,,,,,,,,,,,,,,,,,,,,,,,,,,,,,,,,,,,,,,,,,,,,,,,,,221.6077312999405,221.6077312999405,0.008468599990010262,0.11422420013695955,4.0,2.773602500092238,,,,,,,,,,,,,,,7394,Moral,2025-02-20_11h45.22.099,MoralCondition_v2,2022.2.5,29.944252802788412,
2,0,2,0,,,,,,,,,,,,,,,,,,,,,,,,,,,,,,,,,,,,,,,,,,,,,,,,,,,,,,,,,,,,,224.40747909992933,224.40747909992933,0.0012443996965885162,0.09797229990363121,2.0,4.997882599942386,,,,,,,,,7394,Moral,2025-02-20_11h45.22.099,MoralCondition_v2,2022.2.5,29.944252802788412,
3,0,3,0,0,0,0,0,,,,,,,,,,,,,,,,,,,,,229.4409587001428,0.0001560002565383911,0.09905710024759173,235.42394090024754,6.015733799897134,235.60715450020507,235.60715450020507,0.053567999973893166,0.1656118999235332,5.999042099807411,241.70757080009207,241.70757080009207,241.70757080009207,0.05438699992373586,0.16598099982365966,247.40736419986933,247.6074196002446,5.999161900021136,6.099068799987435,253.60751010011882,11.999240899924189,253.74072400014848,253.74072400014848,1.9976869225502014e-07,0.09905559988692403,down,0.9398968000896275,254.72403849987313,4.659965634346008e-05,0.09816959965974092,260.7407002002001,260.7407002002001,0.01146129984408617,0.11482299957424402,7.0,2.704328400082886,,,,,,,253.70736230025068,253.70736230025068,6.098848400171846,260.7407002002001,241.60740699991584,241.60740699991584,6.099137399811298,12.09908840013668,7394,Moral,2025-02-20_11h45.22.099,MoralCondition_v2,2022.2.5,29.944252802788412,
3,0,3,0,1,0,1,0,,,,,,,,,,,,,,,,,,,,,,,,,,,,,,,,,,,,,,,,,,,,,,,,,,,263.4910098002292,263.4910098002292,0.008531400002539158,0.11398130003362894,2.0,2.9731355998665094,,,,,,,,,,,,,,,7394,Moral,2025-02-20_11h45.22.099,MoralCondition_v2,2022.2.5,29.944252802788412,
3,0,3,0,2,0,2,0,,,,,,,,,,,,,,,,,,,,,,,,,,,,,,,,,,,,,,,,,,,,,,,,,,,266.4907221002504,266.4907221002504,0.007886200211942196,0.09915140038356185,3.0,2.7589906002394855,,,,,,,,,,,,,,,7394,Moral,2025-02-20_11h45.22.099,MoralCondition_v2,2022.2.5,29.944252802788412,
3,0,3,0,3,0,3,0,,,,,,,,,,,,,,,,,,,,,,,,,,,,,,,,,,,,,,,,,,,,,,,,,,,269.3075850000605,269.3075850000605,0.00848579965531826,0.11422789981588721,5.0,2.1401356998831034,,,,,,,,,,,,,,,7394,Moral,2025-02-20_11h45.22.099,MoralCondition_v2,2022.2.5,29.944252802788412,
3,0,3,0,4,0,4,0,,,,,,,,,,,,,,,,,,,,,,,,,,,,,,,,,,,,,,,,,,,,,,,,,,,271.49107880005613,271.49107880005613,0.008475999813526869,0.11438800022006035,6.0,2.5400793999433517,,,,,,,,,,,,,,,7394,Moral,2025-02-20_11h45.22.099,MoralCondition_v2,2022.2.5,29.944252802788412,
3,0,3,0,5,0,5,0,,,,,,,,,,,,,,,,,,,,,,,,,,,,,,,,,,,,,,,,,,,,,,,,,,,274.0572267998941,274.0572267998941,0.0075957998633384705,0.09762579994276166,4.0,1.8914406998082995,,,,,,,,,,,,,,,7394,Moral,2025-02-20_11h45.22.099,MoralCondition_v2,2022.2.5,29.944252802788412,
3,0,3,0,6,0,6,0,,,,,,,,,,,,,,,,,,,,,,,,,,,,,,,,,,,,,,,,,,,,,,,,,,,275.99063629982993,275.99063629982993,0.006725500337779522,0.0991473002359271,6.0,2.4934530998580158,,,,,,,,,,,,,,,7394,Moral,2025-02-20_11h45.22.099,MoralCondition_v2,2022.2.5,29.944252802788412,
3,0,3,0,,,,,,,,,,,,,,,,,,,,,,,,,,,,,,,,,,,,,,,,,,,,,,,,,,,,,,,,,,,,,278.5242583998479,278.5242583998479,0.0013197995722293854,0.09786849981173873,3.0,3.631075999699533,,,,,,,,,7394,Moral,2025-02-20_11h45.22.099,MoralCondition_v2,2022.2.5,29.944252802788412,
4,0,4,0,0,0,0,0,,,,,,,,,,,,,,,,,,,,,282.19095310010016,0.0002752002328634262,0.09821600001305342,288.1907251002267,6.031476099975407,288.407769900281,288.407769900281,0.10107599990442395,0.21471979981288314,6.015015000011772,294.47410449991,294.47410449991,294.47410449991,0.06862609973177314,0.1817071996629238,300.17411829996854,300.37405889993533,6.014815100003034,6.114833899773657,306.3740421002731,12.014796399977058,306.5073631000705,306.5073631000705,0.014902299735695124,0.11473659984767437,up,0.6052597998641431,307.17408030014485,5.179969593882561e-05,0.0979122999124229,313.1911952001974,313.1911952001974,0.025257499888539314,0.11440709978342056,3.0,2.990573300048709,,,,,,,306.45720480009913,306.45720480009913,,,,,,,7394,Moral,2025-02-20_11h45.22.099,MoralCondition_v2,2022.2.5,29.944252802788412,
4,0,4,0,1,0,1,0,,,,,,,,,,,,,,,,,,,,,,,,,,,,,,,,,,,,,,,,,,,,,,,,,,,316.2240172000602,316.2240172000602,0.007182899862527847,0.09825430018827319,4.0,1.8254211000166833,,,,,,,,,,,,,,,7394,Moral,2025-02-20_11h45.22.099,MoralCondition_v2,2022.2.5,29.944252802788412,
4,0,4,0,2,0,2,0,,,,,,,,,,,,,,,,,,,,,,,,,,,,,,,,,,,,,,,,,,,,,,,,,,,318.0906894998625,318.0906894998625,0.007456599734723568,0.09910900006070733,3.0,3.059334599878639,,,,,,,,,,,,,,,7394,Moral,2025-02-20_11h45.22.099,MoralCondition_v2,2022.2.5,29.944252802788412,
4,0,4,0,3,0,3,0,,,,,,,,,,,,,,,,,,,,,,,,,,,,,,,,,,,,,,,,,,,,,,,,,,,321.20766759989783,321.20766759989783,0.008432199712842703,0.11421129992231727,3.0,2.639939900022,,,,,,,,,,,,,,,7394,Moral,2025-02-20_11h45.22.099,MoralCondition_v2,2022.2.5,29.944252802788412,
4,0,4,0,4,0,4,0,,,,,,,,,,,,,,,,,,,,,,,,,,,,,,,,,,,,,,,,,,,,,,,,,,,323.8739944999106,323.8739944999106,0.007141199894249439,0.0985947996377945,4.0,2.6925073000602424,,,,,,,,,,,,,,,7394,Moral,2025-02-20_11h45.22.099,MoralCondition_v2,2022.2.5,29.944252802788412,
4,0,4,0,5,0,5,0,,,,,,,,,,,,,,,,,,,,,,,,,,,,,,,,,,,,,,,,,,,,,,,,,,,326.60728899994865,326.60728899994865,0.0065366001799702644,0.09931119997054338,5.0,2.1273027998395264,,,,,,,,,,,,,,,7394,Moral,2025-02-20_11h45.22.099,MoralCondition_v2,2022.2.5,29.944252802788412,
4,0,4,0,6,0,6,0,,,,,,,,,,,,,,,,,,,,,,,,,,,,,,,,,,,,,,,,,,,,,,,,,,,328.7741351998411,328.7741351998411,0.007458900101482868,0.0980659001506865,5.0,1.9914957000873983,,,,,,,,,,,,,,,7394,Moral,2025-02-20_11h45.22.099,MoralCondition_v2,2022.2.5,29.944252802788412,
4,0,4,0,,,,,,,,,,,,,,,,,,,,,,,,,,,,,,,,,,,,,,,,,,,,,,,,,,,,,,,,,,,,,330.8075212002732,330.8075212002732,0.0007599997334182262,0.09875879995524883,4.0,4.299525099806488,,,,,,,,,7394,Moral,2025-02-20_11h45.22.099,MoralCondition_v2,2022.2.5,29.944252802788412,
5,0,5,0,0,0,0,0,,,,,,,,,,,,,,,,,,,,,335.1410206002183,0.00013740034773945808,0.09936080034822226,341.1407763999887,5.999276400078088,341.3242746000178,341.3242746000178,0.06836039992049336,0.1829142002388835,6.015949400141835,347.4244114998728,347.4244114998728,347.4244114998728,0.07380759995430708,0.18276420002803206,353.12415659986436,353.32425650022924,6.016161299776286,6.1159648001194,359.3240694999695,12.015978999901563,359.4573897002265,359.4573897002265,0.016126299742609262,0.11593599990010262,down,0.05528229987248778,359.5573928998783,3.6700163036584854e-05,0.0980561999604106,365.5572834000923,365.5572834000923,0.007862700149416924,0.09815159998834133,5.0,4.92483130004257,,,,,,,359.42405210016295,359.42405210016295,6.0994180999696255,365.5572834000923,347.3240359001793,347.3240359001793,,,7394,Moral,2025-02-20_11h45.22.099,MoralCondition_v2,2022.2.5,29.944252802788412,
5,0,5,0,1,0,1,0,,,,,,,,,,,,,,,,,,,,,,,,,,,,,,,,,,,,,,,,,,,,,,,,,,,370.5240567000583,370.5240567000583,0.007544300053268671,0.09800279978662729,6.0,1.791476100217551,,,,,,,,,,,,,,,7394,Moral,2025-02-20_11h45.22.099,MoralCondition_v2,2022.2.5,29.944252802788412,
5,0,5,0,2,0,2,0,,,,,,,,,,,,,,,,,,,,,,,,,,,,,,,,,,,,,,,,,,,,,,,,,,,372.3575400998816,372.3575400998816,0.006845499854534864,0.09916350012645125,1.0,2.7267959001474082,,,,,,,,,,,,,,,7394,Moral,2025-02-20_11h45.22.099,MoralCondition_v2,2022.2.5,29.944252802788412,
5,0,5,0,3,0,3,0,,,,,,,,,,,,,,,,,,,,,,,,,,,,,,,,,,,,,,,,,,,,,,,,,,,375.1238811002113,375.1238811002113,0.006907099857926369,0.09729519998654723,6.0,1.8581892997026443,,,,,,,,,,,,,,,7394,Moral,2025-02-20_11h45.22.099,MoralCondition_v2,2022.2.5,29.944252802788412,
5,0,5,0,4,0,4,0,,,,,,,,,,,,,,,,,,,,,,,,,,,,,,,,,,,,,,,,,,,,,,,,,,,377.0407899999991,377.0407899999991,0.008005099836736917,0.11450179992243648,7.0,4.507556799799204,,,,,,,,,,,,,,,7394,Moral,2025-02-20_11h45.22.099,MoralCondition_v2,2022.2.5,29.944252802788412,
5,0,5,0,5,0,5,0,,,,,,,,,,,,,,,,,,,,,,,,,,,,,,,,,,,,,,,,,,,,,,,,,,,381.5907515999861,381.5907515999861,0.0079411999322474,0.11369200004264712,5.0,1.7402184000238776,,,,,,,,,,,,,,,7394,Moral,2025-02-20_11h45.22.099,MoralCondition_v2,2022.2.5,29.944252802788412,
5,0,5,0,6,0,6,0,,,,,,,,,,,,,,,,,,,,,,,,,,,,,,,,,,,,,,,,,,,,,,,,,,,383.3573753000237,383.3573753000237,0.006805500015616417,0.0994168003089726,3.0,2.860335399862379,,,,,,,,,,,,,,,7394,Moral,2025-02-20_11h45.22.099,MoralCondition_v2,2022.2.5,29.944252802788412,
5,0,5,0,,,,,,,,,,,,,,,,,,,,,,,,,,,,,,,,,,,,,,,,,,,,,,,,,,,,,,,,,,,,,386.2573104002513,386.2573104002513,0.0018293997272849083,0.09739340003579855,3.0,6.430072799790651,,,,,,,,,7394,Moral,2025-02-20_11h45.22.099,MoralCondition_v2,2022.2.5,29.944252802788412,
6,0,6,0,0,0,0,0,,,,,,,,,,,,,,,,,,,,,392.72400269983336,0.00023589981719851494,0.09822200005874038,398.7240443001501,6.031676199752837,398.90740319993347,398.90740319993347,0.07042869972065091,0.18183019990101457,6.015127399936318,405.0074646002613,405.0074646002613,405.0074646002613,0.0716317999176681,0.18184769991785288,410.70740209985524,410.9075750000775,6.015194799751043,6.115076499991119,416.90736109996215,12.014973899815232,417.040665499866,417.040665499866,0.01511929975822568,0.11492789955809712,up,0.376284200232476,417.47420349996537,6.100023165345192e-05,0.09788969997316599,423.50777020026,423.50777020026,0.026009100023657084,0.13118380028754473,3.0,7.806596599984914,,,,,,,417.00733759999275,417.00733759999275,,,404.90733650000766,404.90733650000766,,,7394,Moral,2025-02-20_11h45.22.099,MoralCondition_v2,2022.2.5,29.944252802788412,
6,0,6,0,1,0,1,0,,,,,,,,,,,,,,,,,,,,,,,,,,,,,,,,,,,,,,,,,,,,,,,,,,,431.34055279986933,431.34055279986933,0.009155400097370148,0.09926299983635545,6.0,2.2247635000385344,,,,,,,,,,,,,,,7394,Moral,2025-02-20_11h45.22.099,MoralCondition_v2,2022.2.5,29.944252802788412,
6,0,6,0,2,0,2,0,,,,,,,,,,,,,,,,,,,,,,,,,,,,,,,,,,,,,,,,,,,,,,,,,,,433.60711600026116,433.60711600026116,0.006993700284510851,0.09822050016373396,4.0,1.8589310999959707,,,,,,,,,,,,,,,7394,Moral,2025-02-20_11h45.22.099,MoralCondition_v2,2022.2.5,29.944252802788412,
6,0,6,0,3,0,3,0,,,,,,,,,,,,,,,,,,,,,,,,,,,,,,,,,,,,,,,,,,,,,,,,,,,435.5073283999227,435.5073283999227,0.006415899842977524,0.09914950001984835,3.0,2.9274359000846744,,,,,,,,,,,,,,,7394,Moral,2025-02-20_11h45.22.099,MoralCondition_v2,2022.2.5,29.944252802788412,
6,0,6,0,4,0,4,0,,,,,,,,,,,,,,,,,,,,,,,,,,,,,,,,,,,,,,,,,,,,,,,,,,,438.47388850012794,438.47388850012794,0.0065124002285301685,0.09935439983382821,2.0,2.326845900155604,,,,,,,,,,,,,,,7394,Moral,2025-02-20_11h45.22.099,MoralCondition_v2,2022.2.5,29.944252802788412,
6,0,6,0,5,0,5,0,,,,,,,,,,,,,,,,,,,,,,,,,,,,,,,,,,,,,,,,,,,,,,,,,,,440.84041329985484,440.84041329985484,0.0065553998574614525,0.0991559000685811,7.0,2.0270386999472976,,,,,,,,,,,,,,,7394,Moral,2025-02-20_11h45.22.099,MoralCondition_v2,2022.2.5,29.944252802788412,
6,0,6,0,6,0,6,0,,,,,,,,,,,,,,,,,,,,,,,,,,,,,,,,,,,,,,,,,,,,,,,,,,,442.9071559999138,442.9071559999138,0.008009399753063917,0.09772309986874461,3.0,1.9908452997915447,,,,,,,,,,,,,,,7394,Moral,2025-02-20_11h45.22.099,MoralCondition_v2,2022.2.5,29.944252802788412,
6,0,6,0,,,,,,,,,,,,,,,,,,,,,,,,,,,,,,,,,,,,,,,,,,,,,,,,,,,,,,,,,,,,,444.94053289992735,444.94053289992735,0.0015973998233675957,0.09745200024917722,2.0,3.5970727000385523,,,,,,,,,7394,Moral,2025-02-20_11h45.22.099,MoralCondition_v2,2022.2.5,29.944252802788412,
7,0,7,0,0,0,0,0,,,,,,,,,,,,,,,,,,,,,448.5742011000402,0.00031949998810887337,0.0979547998867929,454.5906107001938,6.014589999802411,454.74054409982637,454.74054409982637,0.06428969977423549,0.1646056999452412,6.031130999792367,460.87406670022756,460.87406670022756,460.87406670022756,0.084143599960953,0.1980076995678246,466.5739203998819,466.77405130025,6.031376999802887,6.1312225996516645,472.77392269996926,12.03123199986294,472.90727710025385,472.90727710025385,0.0315397996455431,0.13121839985251427,up,0.2533069998025894,473.20729289995506,4.810001701116562e-05,0.09773869998753071,479.20730330003425,479.20730330003425,0.007958000060170889,0.09756970033049583,7.0,6.390994599554688,,,,,,,472.874072200153,472.874072200153,,479.20730330003425,460.74062700010836,460.74062700010836,,,7394,Moral,2025-02-20_11h45.22.099,MoralCondition_v2,2022.2.5,29.944252802788412,
7,0,7,0,1,0,1,0,,,,,,,,,,,,,,,,,,,,,,,,,,,,,,,,,,,,,,,,,,,,,,,,,,,485.6409141002223,485.6409141002223,0.008645900059491396,0.09889280004426837,3.0,2.458214499987662,,,,,,,,,,,,,,,7394,Moral,2025-02-20_11h45.22.099,MoralCondition_v2,2022.2.5,29.944252802788412,
7,0,7,0,2,0,2,0,,,,,,,,,,,,,,,,,,,,,,,,,,,,,,,,,,,,,,,,,,,,,,,,,,,488.1406184001826,488.1406184001826,0.006735699716955423,0.09814819972962141,5.0,2.092512199655175,,,,,,,,,,,,,,,7394,Moral,2025-02-20_11h45.22.099,MoralCondition_v2,2022.2.5,29.944252802788412,
7,0,7,0,3,0,3,0,,,,,,,,,,,,,,,,,,,,,,,,,,,,,,,,,,,,,,,,,,,,,,,,,,,490.2738525001332,490.2738525001332,0.006031000055372715,0.09936970006674528,3.0,3.8607759000733495,,,,,,,,,,,,,,,7394,Moral,2025-02-20_11h45.22.099,MoralCondition_v2,2022.2.5,29.944252802788412,
7,0,7,0,4,0,4,0,,,,,,,,,,,,,,,,,,,,,,,,,,,,,,,,,,,,,,,,,,,,,,,,,,,494.17391959996894,494.17391959996894,0.0058883000165224075,0.09918739972636104,6.0,1.5277264998294413,,,,,,,,,,,,,,,7394,Moral,2025-02-20_11h45.22.099,MoralCondition_v2,2022.2.5,29.944252802788412,
7,0,7,0,5,0,5,0,,,,,,,,,,,,,,,,,,,,,,,,,,,,,,,,,,,,,,,,,,,,,,,,,,,495.74039860023186,495.74039860023186,0.007483999710530043,0.09780099987983704,2.0,3.757720499765128,,,,,,,,,,,,,,,7394,Moral,2025-02-20_11h45.22.099,MoralCondition_v2,2022.2.5,29.944252802788412,
7,0,7,0,6,0,6,0,,,,,,,,,,,,,,,,,,,,,,,,,,,,,,,,,,,,,,,,,,,,,,,,,,,499.54044270003214,499.54044270003214,0.008956599980592728,0.09739700006321073,3.0,2.056448500137776,,,,,,,,,,,,,,,7394,Moral,2025-02-20_11h45.22.099,MoralCondition_v2,2022.2.5,29.944252802788412,
7,0,7,0,,,,,,,,,,,,,,,,,,,,,,,,,,,,,,,,,,,,,,,,,,,,,,,,,,,,,,,,,,,,,501.64067200012505,501.64067200012505,0.0017256997525691986,0.09800389967858791,1.0,3.3974292003549635,,,,,,,,,7394,Moral,2025-02-20_11h45.22.099,MoralCondition_v2,2022.2.5,29.944252802788412,
8,0,8,0,0,0,0,0,,,,,,,,,,,,,,,,,,,,,505.0739559000358,0.0002978998236358166,0.09798640012741089,511.0571659998968,6.014511900022626,511.2572719999589,511.2572719999589,0.07057970017194748,0.18148969998583198,6.01455570012331,517.3570500002243,517.3570500002243,517.3570500002243,0.0722117000259459,0.18125119991600513,523.0571647998877,523.2574000000022,6.0148199000395834,6.114632199984044,529.2572067002766,12.014624000061303,529.3905432000756,529.3905432000756,0.014825899619609118,0.11452269973233342,up,0.5708834999240935,530.0239626001567,4.680035635828972e-05,0.09783390024676919,536.0406611999497,536.0406611999497,0.009111900348216295,0.11439700005576015,3.0,2.3730830997228622,,,,,,,529.3571918001398,529.3571918001398,6.0977918999269605,536.0406611999497,517.2572002001107,517.2572002001107,,,7394,Moral,2025-02-20_11h45.22.099,MoralCondition_v2,2022.2.5,29.944252802788412,
8,0,8,0,1,0,1,0,,,,,,,,,,,,,,,,,,,,,,,,,,,,,,,,,,,,,,,,,,,,,,,,,,,538.4403735999949,538.4403735999949,0.007593399845063686,0.09920120006427169,4.0,1.7592639001086354,,,,,,,,,,,,,,,7394,Moral,2025-02-20_11h45.22.099,MoralCondition_v2,2022.2.5,29.944252802788412,
8,0,8,0,2,0,2,0,,,,,,,,,,,,,,,,,,,,,,,,,,,,,,,,,,,,,,,,,,,,,,,,,,,540.240516600199,540.240516600199,0.00861999997869134,0.09907929971814156,4.0,1.8248962997458875,,,,,,,,,,,,,,,7394,Moral,2025-02-20_11h45.22.099,MoralCondition_v2,2022.2.5,29.944252802788412,
8,0,8,0,3,0,3,0,,,,,,,,,,,,,,,,,,,,,,,,,,,,,,,,,,,,,,,,,,,,,,,,,,,542.1239533000626,542.1239533000626,0.009015500079840422,0.11379860015586019,2.0,3.1059693000279367,,,,,,,,,,,,,,,7394,Moral,2025-02-20_11h45.22.099,MoralCondition_v2,2022.2.5,29.944252802788412,
8,0,8,0,4,0,4,0,,,,,,,,,,,,,,,,,,,,,,,,,,,,,,,,,,,,,,,,,,,,,,,,,,,545.2571542002261,545.2571542002261,0.0077124000526964664,0.09790239995345473,4.0,2.858104799874127,,,,,,,,,,,,,,,7394,Moral,2025-02-20_11h45.22.099,MoralCondition_v2,2022.2.5,29.944252802788412,
8,0,8,0,5,0,5,0,,,,,,,,,,,,,,,,,,,,,,,,,,,,,,,,,,,,,,,,,,,,,,,,,,,548.1572500001639,548.1572500001639,0.006807600148022175,0.0993902999907732,4.0,1.9943253002129495,,,,,,,,,,,,,,,7394,Moral,2025-02-20_11h45.22.099,MoralCondition_v2,2022.2.5,29.944252802788412,
8,0,8,0,6,0,6,0,,,,,,,,,,,,,,,,,,,,,,,,,,,,,,,,,,,,,,,,,,,,,,,,,,,550.1903686998412,550.1903686998412,0.006617500446736813,0.09892070014029741,6.0,2.160059000365436,,,,,,,,,,,,,,,7394,Moral,2025-02-20_11h45.22.099,MoralCondition_v2,2022.2.5,29.944252802788412,
8,0,8,0,,,,,,,,,,,,,,,,,,,,,,,,,,,,,,,,,,,,,,,,,,,,,,,,,,,,,,,,,,,,,552.3904229002073,552.3904229002073,0.0010688002221286297,0.09904620004817843,6.0,2.53239359986037,,,,,,,,,7394,Moral,2025-02-20_11h45.22.099,MoralCondition_v2,2022.2.5,29.944252802788412,
9,0,9,0,0,0,0,0,,,,,,,,,,,,,,,,,,,,,554.9573041000403,0.00015509966760873795,0.0990136000327766,560.9571207002737,5.999005199875683,561.1408677999862,561.1408677999862,0.07214289996773005,0.1823966996744275,6.015772799961269,567.24057310028,567.24057310028,567.24057310028,0.07438789959996939,0.18239189963787794,572.9404441001825,573.1404972998425,6.01576429978013,6.115662099793553,579.1404428002425,12.015706299804151,579.2905538999476,579.2905538999476,0.03244909970089793,0.13230509962886572,down,0.7185607999563217,580.0570656000637,4.2499974370002747e-05,0.09804830001667142,586.0568397999741,586.0568397999741,0.009591400157660246,0.09783570002764463,7.0,3.122727000154555,,,,,,,579.2237153998576,579.2237153998576,6.099134699907154,586.0568397999741,567.1405525999144,567.1405525999144,,,7394,Moral,2025-02-20_11h45.22.099,MoralCondition_v2,2022.2.5,29.944252802788412,
9,0,9,0,1,0,1,0,,,,,,,,,,,,,,,,,,,,,,,,,,,,,,,,,,,,,,,,,,,,,,,,,,,589.2235691999085,589.2235691999085,0.006917600054293871,0.09921750007197261,5.0,2.7933018002659082,,,,,,,,,,,,,,,7394,Moral,2025-02-20_11h45.22.099,MoralCondition_v2,2022.2.5,29.944252802788412,
9,0,9,0,2,0,2,0,,,,,,,,,,,,,,,,,,,,,,,,,,,,,,,,,,,,,,,,,,,,,,,,,,,592.0570175000466,592.0570175000466,0.007677499670535326,0.09811959974467754,2.0,2.458151699975133,,,,,,,,,,,,,,,7394,Moral,2025-02-20_11h45.22.099,MoralCondition_v2,2022.2.5,29.944252802788412,
9,0,9,0,3,0,3,0,,,,,,,,,,,,,,,,,,,,,,,,,,,,,,,,,,,,,,,,,,,,,,,,,,,594.5739533999003,594.5739533999003,0.00811769999563694,0.11457940004765987,5.0,1.9407599000260234,,,,,,,,,,,,,,,7394,Moral,2025-02-20_11h45.22.099,MoralCondition_v2,2022.2.5,29.944252802788412,
9,0,9,0,4,0,4,0,,,,,,,,,,,,,,,,,,,,,,,,,,,,,,,,,,,,,,,,,,,,,,,,,,,596.5570821999572,596.5570821999572,0.008397100027650595,0.11403749976307154,3.0,3.0732800997793674,,,,,,,,,,,,,,,7394,Moral,2025-02-20_11h45.22.099,MoralCondition_v2,2022.2.5,29.944252802788412,
9,0,9,0,5,0,5,0,,,,,,,,,,,,,,,,,,,,,,,,,,,,,,,,,,,,,,,,,,,,,,,,,,,599.6572803002782,599.6572803002782,0.00726129999384284,0.09784389985725284,4.0,3.2919016000814736,,,,,,,,,,,,,,,7394,Moral,2025-02-20_11h45.22.099,MoralCondition_v2,2022.2.5,29.944252802788412,
9,0,9,0,6,0,6,0,,,,,,,,,,,,,,,,,,,,,,,,,,,,,,,,,,,,,,,,,,,,,,,,,,,602.9903775998391,602.9903775998391,0.006511500105261803,0.0993189001455903,5.0,1.9606419000774622,,,,,,,,,,,,,,,7394,Moral,2025-02-20_11h45.22.099,MoralCondition_v2,2022.2.5,29.944252802788412,
9,0,9,0,,,,,,,,,,,,,,,,,,,,,,,,,,,,,,,,,,,,,,,,,,,,,,,,,,,,,,,,,,,,,604.9902470000088,604.9902470000088,0.0012468998320400715,0.09826460015028715,2.0,3.331360099837184,,,,,,,,,7394,Moral,2025-02-20_11h45.22.099,MoralCondition_v2,2022.2.5,29.944252802788412,
10,0,10,0,0,0,0,0,,,,,,,,,,,,,,,,,,,,,608.3571033999324,0.00013739988207817078,0.0993360998108983,614.357011700049,5.999259899836034,614.5236766999587,614.5236766999587,0.06541209993883967,0.16619580006226897,5.999493400100619,620.6235421998426,620.6235421998426,620.6235421998426,0.05604119971394539,0.16586389997974038,626.323630800005,626.5236153998412,5.999239199794829,6.099387599620968,632.5237658000551,11.999381199944764,632.6569349002093,632.6569349002093,0.00011069979518651962,0.09921619947999716,down,5.432431299705058,638.1402644999325,4.329998046159744e-05,0.09815360000357032,644.1571237002499,644.1571237002499,0.010281399823725224,0.11468430003151298,6.0,3.938843899872154,,,,,,,632.6236025001854,632.6236025001854,6.0991679998114705,644.1571237002499,620.5236157001927,620.5236157001927,6.099247399717569,12.099228999577463,7394,Moral,2025-02-20_11h45.22.099,MoralCondition_v2,2022.2.5,29.944252802788412,
10,0,10,0,1,0,1,0,,,,,,,,,,,,,,,,,,,,,,,,,,,,,,,,,,,,,,,,,,,,,,,,,,,648.1236990001053,648.1236990001053,0.007320699747651815,0.09804960014298558,5.0,1.5582280000671744,,,,,,,,,,,,,,,7394,Moral,2025-02-20_11h45.22.099,MoralCondition_v2,2022.2.5,29.944252802788412,
10,0,10,0,2,0,2,0,,,,,,,,,,,,,,,,,,,,,,,,,,,,,,,,,,,,,,,,,,,,,,,,,,,649.7239383999258,649.7239383999258,0.007110200356692076,0.09741720044985414,5.0,2.325074600055814,,,,,,,,,,,,,,,7394,Moral,2025-02-20_11h45.22.099,MoralCondition_v2,2022.2.5,29.944252802788412,
10,0,10,0,3,0,3,0,,,,,,,,,,,,,,,,,,,,,,,,,,,,,,,,,,,,,,,,,,,,,,,,,,,652.1070006000809,652.1070006000809,0.007315000053495169,0.11392829986289144,1.0,2.374776799697429,,,,,,,,,,,,,,,7394,Moral,2025-02-20_11h45.22.099,MoralCondition_v2,2022.2.5,29.944252802788412,
10,0,10,0,4,0,4,0,,,,,,,,,,,,,,,,,,,,,,,,,,,,,,,,,,,,,,,,,,,,,,,,,,,654.506705599837,654.506705599837,0.006223300006240606,0.09897139994427562,2.0,2.82709230016917,,,,,,,,,,,,,,,7394,Moral,2025-02-20_11h45.22.099,MoralCondition_v2,2022.2.5,29.944252802788412,
10,0,10,0,5,0,5,0,,,,,,,,,,,,,,,,,,,,,,,,,,,,,,,,,,,,,,,,,,,,,,,,,,,657.3733755000867,657.3733755000867,0.006481499876827002,0.09933929983526468,3.0,3.2937108003534377,,,,,,,,,,,,,,,7394,Moral,2025-02-20_11h45.22.099,MoralCondition_v2,2022.2.5,29.944252802788412,
10,0,10,0,6,0,6,0,,,,,,,,,,,,,,,,,,,,,,,,,,,,,,,,,,,,,,,,,,,,,,,,,,,660.7068524002098,660.7068524002098,0.006864599883556366,0.0972843999043107,7.0,1.5585900000296533,,,,,,,,,,,,,,,7394,Moral,2025-02-20_11h45.22.099,MoralCondition_v2,2022.2.5,29.944252802788412,
10,0,10,0,,,,,,,,,,,,,,,,,,,,,,,,,,,,,,,,,,,,,,,,,,,,,,,,,,,,,,,,,,,,,662.3067681002431,662.3067681002431,0.0007021003402769566,0.09927430003881454,3.0,4.732922800350934,,,,,,,,,7394,Moral,2025-02-20_11h45.22.099,MoralCondition_v2,2022.2.5,29.944252802788412,
11,0,11,0,0,0,0,0,,,,,,,,,,,,,,,,,,,,,667.073706400115,0.00013640010729432106,0.09908139985054731,673.090142800007,6.015766699798405,673.2568943998776,673.2568943998776,0.07879259996116161,0.18266799999400973,6.015886699780822,679.3568494999781,679.3568494999781,679.3568494999781,0.07120069954544306,0.1825261996127665,685.0567753999494,685.2569376002066,6.0159053998067975,6.115709999576211,691.2569224000908,12.015938599593937,691.3901174999774,691.3901174999774,0.015946299768984318,0.11568409949541092,up,0.2666279999539256,691.7067940998822,4.059961065649986e-05,0.0980643997900188,697.7065389002673,697.7065389002673,0.008931799791753292,0.09787379996851087,2.0,2.190435199998319,,,,,,,691.3567856000736,691.3567856000736,,697.7065389002673,679.2568328999914,679.2568328999914,,,7394,Moral,2025-02-20_11h45.22.099,MoralCondition_v2,2022.2.5,29.944252802788412,
11,0,11,0,1,0,1,0,,,,,,,,,,,,,,,,,,,,,,,,,,,,,,,,,,,,,,,,,,,,,,,,,,,699.9569068001583,699.9569068001583,0.008141199592500925,0.11477489955723286,2.0,2.3074622000567615,,,,,,,,,,,,,,,7394,Moral,2025-02-20_11h45.22.099,MoralCondition_v2,2022.2.5,29.944252802788412,
11,0,11,0,2,0,2,0,,,,,,,,,,,,,,,,,,,,,,,,,,,,,,,,,,,,,,,,,,,,,,,,,,,702.2899652002379,702.2899652002379,0.007910999935120344,0.09782049991190434,6.0,1.890915600117296,,,,,,,,,,,,,,,7394,Moral,2025-02-20_11h45.22.099,MoralCondition_v2,2022.2.5,29.944252802788412,
11,0,11,0,3,0,3,0,,,,,,,,,,,,,,,,,,,,,,,,,,,,,,,,,,,,,,,,,,,,,,,,,,,704.2233759001829,704.2233759001829,0.007492200005799532,0.09767619986087084,5.0,2.391272099688649,,,,,,,,,,,,,,,7394,Moral,2025-02-20_11h45.22.099,MoralCondition_v2,2022.2.5,29.944252802788412,
11,0,11,0,4,0,4,0,,,,,,,,,,,,,,,,,,,,,,,,,,,,,,,,,,,,,,,,,,,,,,,,,,,706.6567623000592,706.6567623000592,0.007714500185102224,0.09788249991834164,4.0,1.8579865000210702,,,,,,,,,,,,,,,7394,Moral,2025-02-20_11h45.22.099,MoralCondition_v2,2022.2.5,29.944252802788412,
11,0,11,0,5,0,5,0,,,,,,,,,,,,,,,,,,,,,,,,,,,,,,,,,,,,,,,,,,,,,,,,,,,708.5566120999865,708.5566120999865,0.0066975997760891914,0.0992557997815311,4.0,1.593897100072354,,,,,,,,,,,,,,,7394,Moral,2025-02-20_11h45.22.099,MoralCondition_v2,2022.2.5,29.944252802788412,
11,0,11,0,6,0,6,0,,,,,,,,,,,,,,,,,,,,,,,,,,,,,,,,,,,,,,,,,,,,,,,,,,,710.1899868999608,710.1899868999608,0.00696579972282052,0.0991742997430265,7.0,1.6600330998189747,,,,,,,,,,,,,,,7394,Moral,2025-02-20_11h45.22.099,MoralCondition_v2,2022.2.5,29.944252802788412,
11,0,11,0,,,,,,,,,,,,,,,,,,,,,,,,,,,,,,,,,,,,,,,,,,,,,,,,,,,,,,,,,,,,,711.8902153000236,711.8902153000236,0.000738899689167738,0.09878049977123737,6.0,2.7995929000899196,,,,,,,,,7394,Moral,2025-02-20_11h45.22.099,MoralCondition_v2,2022.2.5,29.944252802788412,
12,0,12,0,0,0,0,0,,,,,,,,,,,,,,,,,,,,,714.7235499001108,0.000255499966442585,0.09806889994069934,720.7399865998887,6.014772300142795,720.9066698001698,720.9066698001698,0.0746927997097373,0.1816206998191774,6.0149519997648895,727.0065371999517,727.0065371999517,727.0065371999517,0.06695199990645051,0.18141209986060858,732.7066772999242,732.9067965000868,6.014906900003552,6.11484029982239,738.9065467999317,12.01467559998855,739.0399731998332,739.0399731998332,0.014887599740177393,0.11476349970325828,up,1.7213813001289964,740.8233071002178,4.62997704744339e-05,0.09786889981478453,746.8398612001911,746.8398612001911,0.027316899970173836,0.1147032999433577,7.0,1.9883834002539515,,,,,,,739.006632400211,739.006632400211,,,726.8898570998572,726.8898570998572,,,7394,Moral,2025-02-20_11h45.22.099,MoralCondition_v2,2022.2.5,29.944252802788412,
12,0,12,0,1,0,1,0,,,,,,,,,,,,,,,,,,,,,,,,,,,,,,,,,,,,,,,,,,,,,,,,,,,748.8733371999115,748.8733371999115,0.007514599710702896,0.0975959999486804,6.0,2.25841260002926,,,,,,,,,,,,,,,7394,Moral,2025-02-20_11h45.22.099,MoralCondition_v2,2022.2.5,29.944252802788412,
12,0,12,0,2,0,2,0,,,,,,,,,,,,,,,,,,,,,,,,,,,,,,,,,,,,,,,,,,,,,,,,,,,751.1731448001228,751.1731448001228,0.007214600220322609,0.09775929991155863,5.0,3.2255695001222193,,,,,,,,,,,,,,,7394,Moral,2025-02-20_11h45.22.099,MoralCondition_v2,2022.2.5,29.944252802788412,
12,0,12,0,3,0,3,0,,,,,,,,,,,,,,,,,,,,,,,,,,,,,,,,,,,,,,,,,,,,,,,,,,,754.4403572999872,754.4403572999872,0.009167499840259552,0.09802700020372868,4.0,3.089851999655366,,,,,,,,,,,,,,,7394,Moral,2025-02-20_11h45.22.099,MoralCondition_v2,2022.2.5,29.944252802788412,
12,0,12,0,4,0,4,0,,,,,,,,,,,,,,,,,,,,,,,,,,,,,,,,,,,,,,,,,,,,,,,,,,,757.5901819001883,757.5901819001883,0.009885199833661318,0.11428650002926588,4.0,1.9720578999258578,,,,,,,,,,,,,,,7394,Moral,2025-02-20_11h45.22.099,MoralCondition_v2,2022.2.5,29.944252802788412,
12,0,12,0,5,0,5,0,,,,,,,,,,,,,,,,,,,,,,,,,,,,,,,,,,,,,,,,,,,,,,,,,,,759.5898171002045,759.5898171002045,0.006604299880564213,0.09919269988313317,4.0,2.8938337001018226,,,,,,,,,,,,,,,7394,Moral,2025-02-20_11h45.22.099,MoralCondition_v2,2022.2.5,29.944252802788412,
12,0,12,0,6,0,6,0,,,,,,,,,,,,,,,,,,,,,,,,,,,,,,,,,,,,,,,,,,,,,,,,,,,762.5231715999544,762.5231715999544,0.008676700294017792,0.09767220029607415,4.0,4.223604300059378,,,,,,,,,,,,,,,7394,Moral,2025-02-20_11h45.22.099,MoralCondition_v2,2022.2.5,29.944252802788412,
12,0,12,0,,,,,,,,,,,,,,,,,,,,,,,,,,,,,,,,,,,,,,,,,,,,,,,,,,,,,,,,,,,,,766.7901542000473,766.7901542000473,0.0006987000815570354,0.09932309994474053,6.0,2.799615299794823,,,,,,,,,7394,Moral,2025-02-20_11h45.22.099,MoralCondition_v2,2022.2.5,29.944252802788412,
13,0,13,0,0,0,0,0,,,,,,,,,,,,,,,,,,,,,769.6232584998943,0.00024369964376091957,0.09798839967697859,775.6233377000317,6.031501499935985,775.8233521999791,775.8233521999791,0.08545139990746975,0.19820629991590977,6.031353799626231,781.9231838998385,781.9231838998385,781.9231838998385,0.09698379971086979,0.19803589954972267,787.6231884001754,787.8231959999539,6.03135129949078,6.131320499815047,793.8231803998351,12.03133269958198,793.9564983998425,793.9564983998425,0.03170169936493039,0.131286199670285,up,0.9319592998363078,794.9232159000821,4.1599851101636887e-05,0.11448119999840856,800.9401751002297,800.9401751002297,0.024790999945253134,0.11464279983192682,1.0,3.7909872001037,,,,,,,793.9233733001165,793.9233733001165,,,781.823235699907,781.823235699907,,,7394,Moral,2025-02-20_11h45.22.099,MoralCondition_v2,2022.2.5,29.944252802788412,
13,0,13,0,1,0,1,0,,,,,,,,,,,,,,,,,,,,,,,,,,,,,,,,,,,,,,,,,,,,,,,,,,,804.7730121999048,804.7730121999048,0.006742600351572037,0.09915290027856827,6.0,2.0269489996135235,,,,,,,,,,,,,,,7394,Moral,2025-02-20_11h45.22.099,MoralCondition_v2,2022.2.5,29.944252802788412,
13,0,13,0,2,0,2,0,,,,,,,,,,,,,,,,,,,,,,,,,,,,,,,,,,,,,,,,,,,,,,,,,,,806.8396368999965,806.8396368999965,0.006470600143074989,0.0991555000655353,4.0,1.8603876996785402,,,,,,,,,,,,,,,7394,Moral,2025-02-20_11h45.22.099,MoralCondition_v2,2022.2.5,29.944252802788412,
13,0,13,0,3,0,3,0,,,,,,,,,,,,,,,,,,,,,,,,,,,,,,,,,,,,,,,,,,,,,,,,,,,808.739766899962,808.739766899962,0.006681600119918585,0.09900220017880201,7.0,1.8603028003126383,,,,,,,,,,,,,,,7394,Moral,2025-02-20_11h45.22.099,MoralCondition_v2,2022.2.5,29.944252802788412,
13,0,13,0,4,0,4,0,,,,,,,,,,,,,,,,,,,,,,,,,,,,,,,,,,,,,,,,,,,,,,,,,,,810.6398205999285,810.6398205999285,0.007226100191473961,0.09728159988299012,2.0,1.7911358000710607,,,,,,,,,,,,,,,7394,Moral,2025-02-20_11h45.22.099,MoralCondition_v2,2022.2.5,29.944252802788412,
13,0,13,0,5,0,5,0,,,,,,,,,,,,,,,,,,,,,,,,,,,,,,,,,,,,,,,,,,,,,,,,,,,812.4730397998355,812.4730397998355,0.006722699850797653,0.09816209971904755,4.0,2.2259202003479004,,,,,,,,,,,,,,,7394,Moral,2025-02-20_11h45.22.099,MoralCondition_v2,2022.2.5,29.944252802788412,
13,0,13,0,6,0,6,0,,,,,,,,,,,,,,,,,,,,,,,,,,,,,,,,,,,,,,,,,,,,,,,,,,,814.7566275000572,814.7566275000572,0.008594200015068054,0.11406029993668199,3.0,2.173834899906069,,,,,,,,,,,,,,,7394,Moral,2025-02-20_11h45.22.099,MoralCondition_v2,2022.2.5,29.944252802788412,
13,0,13,0,,,,,,,,,,,,,,,,,,,,,,,,,,,,,,,,,,,,,,,,,,,,,,,,,,,,,,,,,,,,,816.9563672002405,816.9563672002405,0.0019828001968562603,0.0975734000094235,2.0,2.496856300160289,,,,,,,,,7394,Moral,2025-02-20_11h45.22.099,MoralCondition_v2,2022.2.5,29.944252802788412,
14,0,14,0,0,0,0,0,,,,,,,,,,,,,,,,,,,,,819.4901367002167,0.000264899805188179,0.09781109960749745,825.4898175001144,6.031242599710822,825.6898285001516,825.6898285001516,0.09375629993155599,0.19778409972786903,6.031138499733061,831.7898701000959,831.7898701000959,831.7898701000959,0.08581989957019687,0.19778689974918962,837.4898367999122,837.6897550998256,6.031151199713349,6.131114899646491,843.6897160001099,12.031075899489224,843.8231529998593,843.8231529998593,0.03131609968841076,0.1310213995166123,up,0.8417464001104236,844.7230870001949,4.660012200474739e-05,0.11437400011345744,850.7397020999342,850.7397020999342,0.02528059994801879,0.11436629993841052,5.0,3.7233649999834597,,,,,,,843.7897348999977,843.7897348999977,,,831.6897336998954,831.6897336998954,,,7394,Moral,2025-02-20_11h45.22.099,MoralCondition_v2,2022.2.5,29.944252802788412,
14,0,14,0,1,0,1,0,,,,,,,,,,,,,,,,,,,,,,,,,,,,,,,,,,,,,,,,,,,,,,,,,,,854.5061964001507,854.5061964001507,0.006753299850970507,0.0991567000746727,6.0,2.260079899802804,,,,,,,,,,,,,,,7394,Moral,2025-02-20_11h45.22.099,MoralCondition_v2,2022.2.5,29.944252802788412,
14,0,14,0,2,0,2,0,,,,,,,,,,,,,,,,,,,,,,,,,,,,,,,,,,,,,,,,,,,,,,,,,,,856.82305180002,856.82305180002,0.008034099824726582,0.11465700017288327,6.0,3.941363299731165,,,,,,,,,,,,,,,7394,Moral,2025-02-20_11h45.22.099,MoralCondition_v2,2022.2.5,29.944252802788412,
14,0,14,0,3,0,3,0,,,,,,,,,,,,,,,,,,,,,,,,,,,,,,,,,,,,,,,,,,,,,,,,,,,860.7898960001767,860.7898960001767,0.007484099827706814,0.09914399962872267,5.0,1.7260247999802232,,,,,,,,,,,,,,,7394,Moral,2025-02-20_11h45.22.099,MoralCondition_v2,2022.2.5,29.944252802788412,
14,0,14,0,4,0,4,0,,,,,,,,,,,,,,,,,,,,,,,,,,,,,,,,,,,,,,,,,,,,,,,,,,,862.5563396001235,862.5563396001235,0.006492799613624811,0.09931149985641241,3.0,2.460722700227052,,,,,,,,,,,,,,,7394,Moral,2025-02-20_11h45.22.099,MoralCondition_v2,2022.2.5,29.944252802788412,
14,0,14,0,5,0,5,0,,,,,,,,,,,,,,,,,,,,,,,,,,,,,,,,,,,,,,,,,,,,,,,,,,,865.0565454000607,865.0565454000607,0.0074767000041902065,0.09799079969525337,3.0,1.8582647000439465,,,,,,,,,,,,,,,7394,Moral,2025-02-20_11h45.22.099,MoralCondition_v2,2022.2.5,29.944252802788412,
14,0,14,0,6,0,6,0,,,,,,,,,,,,,,,,,,,,,,,,,,,,,,,,,,,,,,,,,,,,,,,,,,,866.9563539000228,866.9563539000228,0.007590899709612131,0.09785129968076944,4.0,1.3587754997424781,,,,,,,,,,,,,,,7394,Moral,2025-02-20_11h45.22.099,MoralCondition_v2,2022.2.5,29.944252802788412,
14,0,14,0,,,,,,,,,,,,,,,,,,,,,,,,,,,,,,,,,,,,,,,,,,,,,,,,,,,,,,,,,,,,,868.3563446002081,868.3563446002081,0.0019169999286532402,0.09702679980546236,6.0,2.5963334999978542,,,,,,,,,7394,Moral,2025-02-20_11h45.22.099,MoralCondition_v2,2022.2.5,29.944252802788412,
15,0,15,0,0,0,0,0,,,,,,,,,,,,,,,,,,,,,870.9900242998265,0.00013539986684918404,0.09899380011484027,876.9728812002577,6.015590699855238,877.1562299998477,877.1562299998477,0.06481429981067777,0.1657301001250744,5.999272699933499,883.256286200136,883.256286200136,883.256286200136,0.05441610002890229,0.1656805998645723,888.9564911001362,889.1895983000286,6.03231929987669,6.132281200028956,895.1894748001359,12.03213860001415,895.2894393000752,895.2894393000752,0.015381899662315845,0.09878909960389137,up,0.8794015999883413,896.2061513001099,4.770001396536827e-05,0.09897230006754398,902.2229837002233,902.2229837002233,0.02666490012779832,0.11574849998578429,6.0,3.073650599922985,,,,,,,895.2394619998522,895.2394619998522,6.099053699988872,,883.1564485002309,883.1564485002309,6.099197099916637,,7394,Moral,2025-02-20_11h45.22.099,MoralCondition_v2,2022.2.5,29.944252802788412,
15,0,15,0,1,0,1,0,,,,,,,,,,,,,,,,,,,,,,,,,,,,,,,,,,,,,,,,,,,,,,,,,,,905.3396638999693,905.3396638999693,0.007114399690181017,0.09802949987351894,5.0,1.8587502003647387,,,,,,,,,,,,,,,7394,Moral,2025-02-20_11h45.22.099,MoralCondition_v2,2022.2.5,29.944252802788412,
15,0,15,0,2,0,2,0,,,,,,,,,,,,,,,,,,,,,,,,,,,,,,,,,,,,,,,,,,,,,,,,,,,907.2563785999082,907.2563785999082,0.00840020040050149,0.11446369998157024,6.0,3.8736111000180244,,,,,,,,,,,,,,,7394,Moral,2025-02-20_11h45.22.099,MoralCondition_v2,2022.2.5,29.944252802788412,
15,0,15,0,3,0,3,0,,,,,,,,,,,,,,,,,,,,,,,,,,,,,,,,,,,,,,,,,,,,,,,,,,,911.1562242000364,911.1562242000364,0.006798299960792065,0.09919050009921193,5.0,2.0267195999622345,,,,,,,,,,,,,,,7394,Moral,2025-02-20_11h45.22.099,MoralCondition_v2,2022.2.5,29.944252802788412,
15,0,15,0,4,0,4,0,,,,,,,,,,,,,,,,,,,,,,,,,,,,,,,,,,,,,,,,,,,,,,,,,,,913.2228733999655,913.2228733999655,0.006215299945324659,0.09890550002455711,6.0,1.8606038000434637,,,,,,,,,,,,,,,7394,Moral,2025-02-20_11h45.22.099,MoralCondition_v2,2022.2.5,29.944252802788412,
15,0,15,0,5,0,5,0,,,,,,,,,,,,,,,,,,,,,,,,,,,,,,,,,,,,,,,,,,,,,,,,,,,915.1229371000081,915.1229371000081,0.007231999654322863,0.09843620005995035,3.0,3.859004700090736,,,,,,,,,,,,,,,7394,Moral,2025-02-20_11h45.22.099,MoralCondition_v2,2022.2.5,29.944252802788412,
15,0,15,0,6,0,6,0,,,,,,,,,,,,,,,,,,,,,,,,,,,,,,,,,,,,,,,,,,,,,,,,,,,919.0397672001272,919.0397672001272,0.00824600039049983,0.11483990028500557,5.0,1.6741601997055113,,,,,,,,,,,,,,,7394,Moral,2025-02-20_11h45.22.099,MoralCondition_v2,2022.2.5,29.944252802788412,
15,0,15,0,,,,,,,,,,,,,,,,,,,,,,,,,,,,,,,,,,,,,,,,,,,,,,,,,,,,,,,,,,,,,920.7396527002566,920.7396527002566,0.0006556999869644642,0.09936679992824793,6.0,2.3330803997814655,,,,,,,,,7394,Moral,2025-02-20_11h45.22.099,MoralCondition_v2,2022.2.5,29.944252802788412,
16,0,16,0,0,0,0,0,,,,,,,,,,,,,,,,,,,,,923.1065050000325,0.000264500267803669,0.09841860039159656,929.0894565000199,6.0147844003513455,929.2893452001736,929.2893452001736,0.08082240028306842,0.18167980015277863,6.014764999970794,935.3894493002445,935.3894493002445,935.3894493002445,0.07469400018453598,0.18143119988963008,941.0894821998663,941.2894767001271,6.014804999809712,6.114944000262767,947.2895324998535,12.014882099814713,947.4225889001973,947.4225889001973,0.014946799725294113,0.13137289974838495,up,0.6666450002230704,948.1394118000753,8.990010246634483e-05,0.09757169988006353,954.1727094999515,954.1727094999515,0.028219999745488167,0.13152780011296272,6.0,3.170515100006014,,,,,,,947.3894052002579,947.3894052002579,,,935.2897041002288,935.2897041002288,,,7394,Moral,2025-02-20_11h45.22.099,MoralCondition_v2,2022.2.5,29.944252802788412,
16,0,16,0,1,0,1,0,,,,,,,,,,,,,,,,,,,,,,,,,,,,,,,,,,,,,,,,,,,,,,,,,,,957.372760000173,957.372760000173,0.006987399887293577,0.09717269986867905,5.0,4.49110719980672,,,,,,,,,,,,,,,7394,Moral,2025-02-20_11h45.22.099,MoralCondition_v2,2022.2.5,29.944252802788412,
16,0,16,0,2,0,2,0,,,,,,,,,,,,,,,,,,,,,,,,,,,,,,,,,,,,,,,,,,,,,,,,,,,961.9058789000846,961.9058789000846,0.007945300079882145,0.09756920021027327,4.0,2.290809200145304,,,,,,,,,,,,,,,7394,Moral,2025-02-20_11h45.22.099,MoralCondition_v2,2022.2.5,29.944252802788412,
16,0,16,0,3,0,3,0,,,,,,,,,,,,,,,,,,,,,,,,,,,,,,,,,,,,,,,,,,,,,,,,,,,964.2393736001104,964.2393736001104,0.0062061999924480915,0.09882479999214411,6.0,2.0936546996235847,,,,,,,,,,,,,,,7394,Moral,2025-02-20_11h45.22.099,MoralCondition_v2,2022.2.5,29.944252802788412,
16,0,16,0,4,0,4,0,,,,,,,,,,,,,,,,,,,,,,,,,,,,,,,,,,,,,,,,,,,,,,,,,,,966.3726147999987,966.3726147999987,0.006480999756604433,0.09933439968153834,7.0,1.5939690000377595,,,,,,,,,,,,,,,7394,Moral,2025-02-20_11h45.22.099,MoralCondition_v2,2022.2.5,29.944252802788412,
16,0,16,0,5,0,5,0,,,,,,,,,,,,,,,,,,,,,,,,,,,,,,,,,,,,,,,,,,,,,,,,,,,968.0058845002204,968.0058845002204,0.006642700172960758,0.09934129985049367,6.0,2.226962000131607,,,,,,,,,,,,,,,7394,Moral,2025-02-20_11h45.22.099,MoralCondition_v2,2022.2.5,29.944252802788412,
16,0,16,0,6,0,6,0,,,,,,,,,,,,,,,,,,,,,,,,,,,,,,,,,,,,,,,,,,,,,,,,,,,970.2727359998971,970.2727359998971,0.0075044999830424786,0.0976899997331202,2.0,2.1916033001616597,,,,,,,,,,,,,,,7394,Moral,2025-02-20_11h45.22.099,MoralCondition_v2,2022.2.5,29.944252802788412,
16,0,16,0,,,,,,,,,,,,,,,,,,,,,,,,,,,,,,,,,,,,,,,,,,,,,,,,,,,,,,,,,,,,,972.5059545999393,972.5059545999393,0.001256799791008234,0.09809589991346002,7.0,3.0310909003019333,,,,,,,,,7394,Moral,2025-02-20_11h45.22.099,MoralCondition_v2,2022.2.5,29.944252802788412,
17,0,17,0,0,0,0,0,,,,,,,,,,,,,,,,,,,,,975.5728384000249,0.0002576000988483429,0.09759239992126822,981.5893135000952,6.014443899970502,981.7724794000387,981.7724794000387,0.09301119996234775,0.1978796999901533,6.031114500015974,987.8725951998495,987.8725951998495,987.8725951998495,0.09252669988200068,0.19811940006911755,993.5728744999506,993.772541299928,6.030985299963504,6.131210499908775,999.7726203999482,12.031157999765128,999.8724169000052,999.8724169000052,0.014353599864989519,0.09772989992052317,up,1.0804133000783622,1001.0059314998798,4.3999869376420975e-05,0.09795300010591745,1007.0227248002775,1007.0227248002775,0.00930589996278286,0.11472730012610555,1.0,3.1398355001583695,,,,,,,999.85574979987,999.85574979987,,1007.0227248002775,987.7728844000958,987.7728844000958,,,7394,Moral,2025-02-20_11h45.22.099,MoralCondition_v2,2022.2.5,29.944252802788412,
17,0,17,0,1,0,1,0,,,,,,,,,,,,,,,,,,,,,,,,,,,,,,,,,,,,,,,,,,,,,,,,,,,1010.1892483001575,1010.1892483001575,0.007104000076651573,0.09940499998629093,7.0,1.9598880000412464,,,,,,,,,,,,,,,7394,Moral,2025-02-20_11h45.22.099,MoralCondition_v2,2022.2.5,29.944252802788412,
17,0,17,0,2,0,2,0,,,,,,,,,,,,,,,,,,,,,,,,,,,,,,,,,,,,,,,,,,,,,,,,,,,1012.1891765999608,1012.1891765999608,0.0065751997753977776,0.09914449974894524,6.0,1.5936194998212159,,,,,,,,,,,,,,,7394,Moral,2025-02-20_11h45.22.099,MoralCondition_v2,2022.2.5,29.944252802788412,
17,0,17,0,3,0,3,0,,,,,,,,,,,,,,,,,,,,,,,,,,,,,,,,,,,,,,,,,,,,,,,,,,,1013.8392822998576,1013.8392822998576,0.008612300269305706,0.11481710011139512,4.0,1.64057149970904,,,,,,,,,,,,,,,7394,Moral,2025-02-20_11h45.22.099,MoralCondition_v2,2022.2.5,29.944252802788412,
17,0,17,0,4,0,4,0,,,,,,,,,,,,,,,,,,,,,,,,,,,,,,,,,,,,,,,,,,,,,,,,,,,1015.5058574001305,1015.5058574001305,0.007277800235897303,0.09821079997345805,5.0,1.8252622000873089,,,,,,,,,,,,,,,7394,Moral,2025-02-20_11h45.22.099,MoralCondition_v2,2022.2.5,29.944252802788412,
17,0,17,0,5,0,5,0,,,,,,,,,,,,,,,,,,,,,,,,,,,,,,,,,,,,,,,,,,,,,,,,,,,1017.372498600278,1017.372498600278,0.006551600061357021,0.09917639987543225,7.0,1.6270677000284195,,,,,,,,,,,,,,,7394,Moral,2025-02-20_11h45.22.099,MoralCondition_v2,2022.2.5,29.944252802788412,
17,0,17,0,6,0,6,0,,,,,,,,,,,,,,,,,,,,,,,,,,,,,,,,,,,,,,,,,,,,,,,,,,,1019.0392060000449,1019.0392060000449,0.0069450996816158295,0.09935549972578883,4.0,3.2933889999985695,,,,,,,,,,,,,,,7394,Moral,2025-02-20_11h45.22.099,MoralCondition_v2,2022.2.5,29.944252802788412,
17,0,17,0,,,,,,,,,,,,,,,,,,,,,,,,,,,,,,,,,,,,,,,,,,,,,,,,,,,,,,,,,,,,,1022.3724952000193,1022.3724952000193,0.0010709003545343876,0.09826680039986968,7.0,2.0656844000332057,,,,,,,,,7394,Moral,2025-02-20_11h45.22.099,MoralCondition_v2,2022.2.5,29.944252802788412,
18,0,18,0,0,0,0,0,,,,,,,,,,,,,,,,,,,,,1024.4727377998643,0.00030030030757188797,0.09790390031412244,1030.4891448998824,6.014424500055611,1030.672695599962,1030.672695599962,0.09591459995135665,0.19777400000020862,6.031097299885005,1036.7726473002695,1036.7726473002695,1036.7726473002695,0.09001610008999705,0.19788900017738342,1042.4724306999706,1042.6724486001767,6.031079700216651,6.131056000012904,1048.672406699974,12.031038300134242,1048.805777200032,1048.805777200032,0.03126729978248477,0.13098039990291,down,0.8991442997939885,1049.7558703999966,4.6900007873773575e-05,0.09800950018689036,1055.7555276998319,1055.7555276998319,0.008886499796062708,0.09812219999730587,6.0,4.190573199652135,,,,,,,1048.7724350998178,1048.7724350998178,,1055.7555276998319,1036.6724522002041,1036.6724522002041,,,7394,Moral,2025-02-20_11h45.22.099,MoralCondition_v2,2022.2.5,29.944252802788412,
18,0,18,0,1,0,1,0,,,,,,,,,,,,,,,,,,,,,,,,,,,,,,,,,,,,,,,,,,,,,,,,,,,1060.0056829000823,1060.0056829000823,0.009377199690788984,0.11481940001249313,5.0,2.006459499709308,,,,,,,,,,,,,,,7394,Moral,2025-02-20_11h45.22.099,MoralCondition_v2,2022.2.5,29.944252802788412,
18,0,18,0,2,0,2,0,,,,,,,,,,,,,,,,,,,,,,,,,,,,,,,,,,,,,,,,,,,,,,,,,,,1062.0392764001153,1062.0392764001153,0.007521099876612425,0.0979820997454226,1.0,3.15799369988963,,,,,,,,,,,,,,,7394,Moral,2025-02-20_11h45.22.099,MoralCondition_v2,2022.2.5,29.944252802788412,
18,0,18,0,3,0,3,0,,,,,,,,,,,,,,,,,,,,,,,,,,,,,,,,,,,,,,,,,,,,,,,,,,,1065.255768199917,1065.255768199917,0.010087700095027685,0.11495750024914742,5.0,2.205638200044632,,,,,,,,,,,,,,,7394,Moral,2025-02-20_11h45.22.099,MoralCondition_v2,2022.2.5,29.944252802788412,
18,0,18,0,4,0,4,0,,,,,,,,,,,,,,,,,,,,,,,,,,,,,,,,,,,,,,,,,,,,,,,,,,,1067.5056489999406,1067.5056489999406,0.007816500030457973,0.11398769961670041,2.0,2.3075614999979734,,,,,,,,,,,,,,,7394,Moral,2025-02-20_11h45.22.099,MoralCondition_v2,2022.2.5,29.944252802788412,
18,0,18,0,5,0,5,0,,,,,,,,,,,,,,,,,,,,,,,,,,,,,,,,,,,,,,,,,,,,,,,,,,,1069.83896380011,1069.83896380011,0.006446699611842632,0.09878239966928959,3.0,2.3264933000318706,,,,,,,,,,,,,,,7394,Moral,2025-02-20_11h45.22.099,MoralCondition_v2,2022.2.5,29.944252802788412,
18,0,18,0,6,0,6,0,,,,,,,,,,,,,,,,,,,,,,,,,,,,,,,,,,,,,,,,,,,,,,,,,,,1072.2055303002708,1072.2055303002708,0.007644100114703178,0.09781700000166893,6.0,2.091267599724233,,,,,,,,,,,,,,,7394,Moral,2025-02-20_11h45.22.099,MoralCondition_v2,2022.2.5,29.944252802788412,
18,0,18,0,,,,,,,,,,,,,,,,,,,,,,,,,,,,,,,,,,,,,,,,,,,,,,,,,,,,,,,,,,,,,1074.3391040000133,1074.3391040000133,0.0011544004082679749,0.09818730037659407,2.0,3.231309300288558,,,,,,,,,7394,Moral,2025-02-20_11h45.22.099,MoralCondition_v2,2022.2.5,29.944252802788412,
19,0,19,0,0,0,0,0,,,,,,,,,,,,,,,,,,,,,1077.605967100244,0.00034169992431998253,0.09782769996672869,1083.6223013000563,6.014465000014752,1083.7890201001428,1083.7890201001428,0.07216320000588894,0.18117949971929193,6.014784200116992,1089.8888429999352,1089.8888429999352,1089.8888429999352,0.07342429971322417,0.18135059997439384,1095.5890458002687,1095.788945000153,6.014505899976939,6.114446399733424,1101.788984700106,12.014550299849361,1101.9222622001544,1101.9222622001544,0.014733599498867989,0.11441389983519912,up,0.8703157003037632,1102.8555601001717,4.7800131142139435e-05,0.09803880006074905,1108.8722198000178,1108.8722198000178,0.010518900118768215,0.11468530027195811,5.0,4.271717200055718,,,,,,,1101.8890137001872,1101.8890137001872,,1108.8722198000178,1089.78891450027,1089.78891450027,,,7394,Moral,2025-02-20_11h45.22.099,MoralCondition_v2,2022.2.5,29.944252802788412,
19,0,19,0,1,0,1,0,,,,,,,,,,,,,,,,,,,,,,,,,,,,,,,,,,,,,,,,,,,,,,,,,,,1113.1720126001164,1113.1720126001164,0.006457400042563677,0.09911609999835491,6.0,4.260198900010437,,,,,,,,,,,,,,,7394,Moral,2025-02-20_11h45.22.099,MoralCondition_v2,2022.2.5,29.944252802788412,
19,0,19,0,2,0,2,0,,,,,,,,,,,,,,,,,,,,,,,,,,,,,,,,,,,,,,,,,,,,,,,,,,,1117.4721348001622,1117.4721348001622,0.008121500257402658,0.09884029999375343,6.0,2.0248108999803662,,,,,,,,,,,,,,,7394,Moral,2025-02-20_11h45.22.099,MoralCondition_v2,2022.2.5,29.944252802788412,
19,0,19,0,3,0,3,0,,,,,,,,,,,,,,,,,,,,,,,,,,,,,,,,,,,,,,,,,,,,,,,,,,,1119.5557988001965,1119.5557988001965,0.009890600107610226,0.11422709980979562,5.0,2.5385447000153363,,,,,,,,,,,,,,,7394,Moral,2025-02-20_11h45.22.099,MoralCondition_v2,2022.2.5,29.944252802788412,
19,0,19,0,4,0,4,0,,,,,,,,,,,,,,,,,,,,,,,,,,,,,,,,,,,,,,,,,,,,,,,,,,,1122.1391003001481,1122.1391003001481,0.00801560003310442,0.1141273002140224,6.0,2.8404203997924924,,,,,,,,,,,,,,,7394,Moral,2025-02-20_11h45.22.099,MoralCondition_v2,2022.2.5,29.944252802788412,
19,0,19,0,5,0,5,0,,,,,,,,,,,,,,,,,,,,,,,,,,,,,,,,,,,,,,,,,,,,,,,,,,,1125.0054115001112,1125.0054115001112,0.006972999777644873,0.09815039997920394,5.0,2.5256528998725116,,,,,,,,,,,,,,,7394,Moral,2025-02-20_11h45.22.099,MoralCondition_v2,2022.2.5,29.944252802788412,
19,0,19,0,6,0,6,0,,,,,,,,,,,,,,,,,,,,,,,,,,,,,,,,,,,,,,,,,,,,,,,,,,,1127.5719810998999,1127.5719810998999,0.007323400117456913,0.09810499986633658,2.0,3.0252745002508163,,,,,,,,,,,,,,,7394,Moral,2025-02-20_11h45.22.099,MoralCondition_v2,2022.2.5,29.944252802788412,
19,0,19,0,,,,,,,,,,,,,,,,,,,,,,,,,,,,,,,,,,,,,,,,,,,,,,,,,,,,,,,,,,,,,1130.6388698001392,1130.6388698001392,0.001765699591487646,0.09781249985098839,6.0,3.1306173000484705,,,,,,,,,7394,Moral,2025-02-20_11h45.22.099,MoralCondition_v2,2022.2.5,29.944252802788412,
