loop.thisRepN,loop.thisTrialN,loop.thisN,loop.thisIndex,evaluate_all_emotions.thisRepN,evaluate_all_emotions.thisTrialN,evaluate_all_emotions.thisN,evaluate_all_emotions.thisIndex,sync_beep_1.started,p_port.started,p_port.stopped,sync_beep_2.started,sync_beep_2.stopped,sync_beep_3.started,sync_beep_3.stopped,sync_beep_4.started,sync_beep_4.stopped,baseline.started,p_port_2.started,p_port_2.stopped,baseline.stopped,p_port_3.started,Game_Start_Text.started,p_port_4.started,p_port_4.stopped,key_resp.started,key_resp.keys,key_resp.rt,fixation_cross.started,p_port_5.started,p_port_5.stopped,fixation_cross.stopped,p_port_6.started,player_image_intro.started,player_name_intro.started,p_port_7.started,p_port_7.stopped,p_port_8.started,player_image_offer.started,player_name_offer.started,proposed_split.started,p_port_9.started,p_port_9.stopped,proposed_split.stopped,accept_reject.started,p_port_15.started,p_port_15.stopped,accept_reject.stopped,p_port_10.started,arrow_instructions.started,offer_choice.started,p_port_11.started,p_port_11.stopped,offer_choice.keys,offer_choice.rt,Instructions_Affinity_Score.started,p_port_12.started,p_port_12.stopped,Instructions_Affinity_Score.stopped,Emotion_Image.started,AffinityScore.started,p_port_13.started,p_port_13.stopped,AffinityScore.response,AffinityScore.rt,Instruction.started,Moral_Disgust_Score.started,p_port_14.started,p_port_14.stopped,Moral_Disgust_Score.response,Moral_Disgust_Score.rt,player_image_intro.stopped,player_name_intro.stopped,player_image_offer.stopped,player_name_offer.stopped,p_port_6.stopped,p_port_8.stopped,p_port_10.stopped,participant,session,date,expName,psychopyVersion,frameRate,
,,,,,,,,20.83800365915522,0.0008709002286195755,0.10844360012561083,21.45333141973242,21.769965999759734,22.03665271960199,22.336632799822837,22.65343291964382,22.969875099603087,22.969875099603087,0.01374500012025237,0.10859260009601712,37.97000109963119,15.008565899915993,38.07005219999701,0.008446299936622381,0.10866789985448122,38.519849399570376,space,1.4260772005654871,,,,,,,,,,,,,,,,,,,,,,,,,,,,,,,,,,,,,,,,,,,,,,,,,,,7408,Moral,2024-08-24_10h23.12.850,MoralCondition_v2,2022.2.5,29.99738422214667,
0,0,0,0,0,0,0,0,,,,,,,,,,,,,,,,,,,,,39.98667169967666,0.011777900159358978,0.098441899754107,45.986615099944174,6.031620400026441,46.35309759993106,46.35309759993106,0.22414999967440963,0.3647797000594437,6.031788699794561,52.30338219972327,52.30338219972327,52.30338219972327,0.09280749969184399,0.2150993999093771,58.00331149995327,58.169867099728435,6.01481489976868,6.1149586997926235,64.16997139994055,12.014978499617428,64.3035673997365,64.3035673997365,0.015353499446064234,0.11492689978331327,up,1.3301354004070163,65.6699866997078,3.1200237572193146e-05,0.09795460011810064,71.68672719970345,71.68672719970345,71.68672719970345,0.011504600290209055,0.11480890028178692,5.0,7.371054699644446,,,,,,,,,,,,,,7408,Moral,2024-08-24_10h23.12.850,MoralCondition_v2,2022.2.5,29.99738422214667,
0,0,0,0,1,0,1,0,,,,,,,,,,,,,,,,,,,,,,,,,,,,,,,,,,,,,,,,,,,,,,,,,,,,79.10349569981918,79.10349569981918,0.011225900147110224,0.11433700006455183,1.0,4.887675600126386,,,,,,,,,,,,,,7408,Moral,2024-08-24_10h23.12.850,MoralCondition_v2,2022.2.5,29.99738422214667,
0,0,0,0,2,0,2,0,,,,,,,,,,,,,,,,,,,,,,,,,,,,,,,,,,,,,,,,,,,,,,,,,,,,84.03685749974102,84.03685749974102,0.009288399945944548,0.11466680001467466,5.0,2.5064205997623503,,,,,,,,,,,,,,7408,Moral,2024-08-24_10h23.12.850,MoralCondition_v2,2022.2.5,29.99738422214667,
0,0,0,0,3,0,3,0,,,,,,,,,,,,,,,,,,,,,,,,,,,,,,,,,,,,,,,,,,,,,,,,,,,,86.58708119997755,86.58708119997755,0.01143370009958744,0.11416420014575124,5.0,2.1038278001360595,,,,,,,,,,,,,,7408,Moral,2024-08-24_10h23.12.850,MoralCondition_v2,2022.2.5,29.99738422214667,
0,0,0,0,4,0,4,0,,,,,,,,,,,,,,,,,,,,,,,,,,,,,,,,,,,,,,,,,,,,,,,,,,,,88.73682679980993,88.73682679980993,0.012635100167244673,0.11389560019597411,4.0,3.7024220996536314,,,,,,,,,,,,,,7408,Moral,2024-08-24_10h23.12.850,MoralCondition_v2,2022.2.5,29.99738422214667,
0,0,0,0,5,0,5,0,,,,,,,,,,,,,,,,,,,,,,,,,,,,,,,,,,,,,,,,,,,,,,,,,,,,92.48671730002388,92.48671730002388,0.01040229992941022,0.11388029996305704,5.0,4.404682999942452,,,,,,,,,,,,,,7408,Moral,2024-08-24_10h23.12.850,MoralCondition_v2,2022.2.5,29.99738422214667,
0,0,0,0,6,0,6,0,,,,,,,,,,,,,,,,,,,,,,,,,,,,,,,,,,,,,,,,,,,,,,,,,,,,96.91997499996796,96.91997499996796,0.008720200043171644,0.0982511998154223,2.0,3.890756899956614,,,,,,,,,,,,,,7408,Moral,2024-08-24_10h23.12.850,MoralCondition_v2,2022.2.5,29.99738422214667,
0,0,0,0,,,,,,,,,,,,,,,,,,,,,,,,,,,,,,,,,,,,,,,,,,,,,,,,,,,,,,,,,,,,,,100.85319419996813,100.85319419996813,0.0007437998428940773,0.09912699973210692,2.0,10.149556799791753,,,,,,,,7408,Moral,2024-08-24_10h23.12.850,MoralCondition_v2,2022.2.5,29.99738422214667,
1,0,1,0,0,0,0,0,,,,,,,,,,,,,,,,,,,,,111.03687819978222,0.0003061997704207897,0.11410759994760156,117.05333459982648,6.014130199793726,117.21977259963751,117.21977259963751,0.07797209965065122,0.1805703998543322,6.014112299773842,123.32007289957255,123.32007289957255,123.32007289957255,0.07056579971686006,0.18080259952694178,129.0200099996291,129.21983739966527,6.013947499450296,6.114079099614173,135.22009879956022,12.014267599675804,135.36997789982706,135.36997789982706,0.030891799367964268,0.1307475995272398,up,2.3032142999581993,137.73663749964908,5.279993638396263e-05,0.09781820001080632,143.73646699963138,143.73646699963138,143.73646699963138,0.010897899977862835,0.09772250009700656,2.0,4.155029300134629,,,,,,,123.22010379983112,123.22010379983112,135.30328430002555,135.30328430002555,,,,7408,Moral,2024-08-24_10h23.12.850,MoralCondition_v2,2022.2.5,29.99738422214667,
1,0,1,0,1,0,1,0,,,,,,,,,,,,,,,,,,,,,,,,,,,,,,,,,,,,,,,,,,,,,,,,,,,,147.93703669961542,147.93703669961542,0.006966300308704376,0.09854290029034019,5.0,3.892550399992615,,,,,,,,,,,,,,7408,Moral,2024-08-24_10h23.12.850,MoralCondition_v2,2022.2.5,29.99738422214667,
1,0,1,0,2,0,2,0,,,,,,,,,,,,,,,,,,,,,,,,,,,,,,,,,,,,,,,,,,,,,,,,,,,,151.87011149991304,151.87011149991304,0.008972899988293648,0.09729519998654723,5.0,3.8229251001030207,,,,,,,,,,,,,,7408,Moral,2024-08-24_10h23.12.850,MoralCondition_v2,2022.2.5,29.99738422214667,
1,0,1,0,3,0,3,0,,,,,,,,,,,,,,,,,,,,,,,,,,,,,,,,,,,,,,,,,,,,,,,,,,,,155.7366231000051,155.7366231000051,0.0077980998903512955,0.0980448997579515,5.0,3.691007699817419,,,,,,,,,,,,,,7408,Moral,2024-08-24_10h23.12.850,MoralCondition_v2,2022.2.5,29.99738422214667,
1,0,1,0,4,0,4,0,,,,,,,,,,,,,,,,,,,,,,,,,,,,,,,,,,,,,,,,,,,,,,,,,,,,159.4699987997301,159.4699987997301,0.007328900042921305,0.09762830007821321,2.0,3.2247573998756707,,,,,,,,,,,,,,7408,Moral,2024-08-24_10h23.12.850,MoralCondition_v2,2022.2.5,29.99738422214667,
1,0,1,0,5,0,5,0,,,,,,,,,,,,,,,,,,,,,,,,,,,,,,,,,,,,,,,,,,,,,,,,,,,,162.75347569957376,162.75347569957376,0.008431999944150448,0.11346499994397163,4.0,7.072693599853665,,,,,,,,,,,,,,7408,Moral,2024-08-24_10h23.12.850,MoralCondition_v2,2022.2.5,29.99738422214667,
1,0,1,0,6,0,6,0,,,,,,,,,,,,,,,,,,,,,,,,,,,,,,,,,,,,,,,,,,,,,,,,,,,,169.8535569999367,169.8535569999367,0.008492799941450357,0.09733060002326965,6.0,4.5899175000377,,,,,,,,,,,,,,7408,Moral,2024-08-24_10h23.12.850,MoralCondition_v2,2022.2.5,29.99738422214667,
1,0,1,0,,,,,,,,,,,,,,,,,,,,,,,,,,,,,,,,,,,,,,,,,,,,,,,,,,,,,,,,,,,,,,174.48671059962362,174.48671059962362,0.0014642998576164246,0.09774969983845949,2.0,3.6308188000693917,,,,,,,,7408,Moral,2024-08-24_10h23.12.850,MoralCondition_v2,2022.2.5,29.99738422214667,
2,0,2,0,0,0,0,0,,,,,,,,,,,,,,,,,,,,,178.15331520000473,0.0003136000595986843,0.09689779998734593,184.15333829959854,6.030552099924535,184.40305409999564,184.40305409999564,0.14450829988345504,0.24715799978002906,6.013722300063819,190.4364960999228,190.4364960999228,190.4364960999228,0.07042260002344847,0.1805555997416377,196.13664479972795,196.33661709958687,6.0137800998054445,6.1137784998863935,202.3366286996752,12.013784399721771,202.46997299976647,202.46997299976647,0.014019199647009373,0.11374899977818131,up,2.1154390005394816,204.61990819964558,4.110019654035568e-05,0.11449790000915527,,210.63660109974444,210.63660109974444,0.027036700397729874,0.11457390012219548,2.0,4.755226300098002,,,,,,,,,202.43660179991275,202.43660179991275,,,,7408,Moral,2024-08-24_10h23.12.850,MoralCondition_v2,2022.2.5,29.99738422214667,
2,0,2,0,1,0,1,0,,,,,,,,,,,,,,,,,,,,,,,,,,,,,,,,,,,,,,,,,,,,,,,,,,,,215.43679449986666,215.43679449986666,0.008080499712377787,0.09811939997598529,3.0,4.423732599709183,,,,,,,,,,,,,,7408,Moral,2024-08-24_10h23.12.850,MoralCondition_v2,2022.2.5,29.99738422214667,
2,0,2,0,2,0,2,0,,,,,,,,,,,,,,,,,,,,,,,,,,,,,,,,,,,,,,,,,,,,,,,,,,,,219.9032310997136,219.9032310997136,0.007439299952238798,0.0991871003061533,2.0,2.592844500206411,,,,,,,,,,,,,,7408,Moral,2024-08-24_10h23.12.850,MoralCondition_v2,2022.2.5,29.99738422214667,
2,0,2,0,3,0,3,0,,,,,,,,,,,,,,,,,,,,,,,,,,,,,,,,,,,,,,,,,,,,,,,,,,,,222.53720559971407,222.53720559971407,0.0074791996739804745,0.09847950004041195,5.0,4.725155100226402,,,,,,,,,,,,,,7408,Moral,2024-08-24_10h23.12.850,MoralCondition_v2,2022.2.5,29.99738422214667,
2,0,2,0,4,0,4,0,,,,,,,,,,,,,,,,,,,,,,,,,,,,,,,,,,,,,,,,,,,,,,,,,,,,227.3201511995867,227.3201511995867,0.008095900062471628,0.11475149961188436,2.0,3.3411773000843823,,,,,,,,,,,,,,7408,Moral,2024-08-24_10h23.12.850,MoralCondition_v2,2022.2.5,29.99738422214667,
2,0,2,0,5,0,5,0,,,,,,,,,,,,,,,,,,,,,,,,,,,,,,,,,,,,,,,,,,,,,,,,,,,,230.70336699998006,230.70336699998006,0.008390399627387524,0.11401979997754097,5.0,5.806649600155652,,,,,,,,,,,,,,7408,Moral,2024-08-24_10h23.12.850,MoralCondition_v2,2022.2.5,29.99738422214667,
2,0,2,0,6,0,6,0,,,,,,,,,,,,,,,,,,,,,,,,,,,,,,,,,,,,,,,,,,,,,,,,,,,,236.5366722997278,236.5366722997278,0.008538500405848026,0.09787060040980577,2.0,3.590361400041729,,,,,,,,,,,,,,7408,Moral,2024-08-24_10h23.12.850,MoralCondition_v2,2022.2.5,29.99738422214667,
2,0,2,0,,,,,,,,,,,,,,,,,,,,,,,,,,,,,,,,,,,,,,,,,,,,,,,,,,,,,,,,,,,,,,240.17012139968574,240.17012139968574,0.001276299823075533,0.09747919999063015,7.0,5.36413999972865,,,,,,,,7408,Moral,2024-08-24_10h23.12.850,MoralCondition_v2,2022.2.5,29.99738422214667,
3,0,3,0,0,0,0,0,,,,,,,,,,,,,,,,,,,,,245.5701881996356,0.00027270009741187096,0.09742909995839,251.56998099992052,6.030928699765354,251.80358779989183,251.80358779989183,0.12086409982293844,0.2309642997570336,6.030852099880576,257.86986099975184,257.86986099975184,257.86986099975184,0.08571029966697097,0.19752459973096848,263.5699657998048,263.76994939986616,6.030907299835235,6.130877399817109,269.7699548997916,12.030982099939138,269.9033753997646,269.9033753997646,0.031074799597263336,0.1308836997486651,up,1.5778699005022645,271.51994739985093,4.2300205677747726e-05,0.09789530001580715,,277.53657749993727,277.53657749993727,0.026485600043088198,0.1146058002486825,6.0,4.789469399955124,,,,,,,,,269.86994679970667,269.86994679970667,,,,7408,Moral,2024-08-24_10h23.12.850,MoralCondition_v2,2022.2.5,29.99738422214667,
3,0,3,0,1,0,1,0,,,,,,,,,,,,,,,,,,,,,,,,,,,,,,,,,,,,,,,,,,,,,,,,,,,,282.3699197997339,282.3699197997339,0.007289899978786707,0.0977543001063168,2.0,4.391600999981165,,,,,,,,,,,,,,7408,Moral,2024-08-24_10h23.12.850,MoralCondition_v2,2022.2.5,29.99738422214667,
3,0,3,0,2,0,2,0,,,,,,,,,,,,,,,,,,,,,,,,,,,,,,,,,,,,,,,,,,,,,,,,,,,,286.803298600018,286.803298600018,0.0066259996965527534,0.09900559997186065,1.0,3.69330140016973,,,,,,,,,,,,,,7408,Moral,2024-08-24_10h23.12.850,MoralCondition_v2,2022.2.5,29.99738422214667,
3,0,3,0,3,0,3,0,,,,,,,,,,,,,,,,,,,,,,,,,,,,,,,,,,,,,,,,,,,,,,,,,,,,290.53643530001864,290.53643530001864,0.007213999982923269,0.09780550003051758,1.0,6.191741300281137,,,,,,,,,,,,,,7408,Moral,2024-08-24_10h23.12.850,MoralCondition_v2,2022.2.5,29.99738422214667,
3,0,3,0,4,0,4,0,,,,,,,,,,,,,,,,,,,,,,,,,,,,,,,,,,,,,,,,,,,,,,,,,,,,296.76997699961066,296.76997699961066,0.007691300008445978,0.09797289967536926,5.0,3.0246345000341535,,,,,,,,,,,,,,7408,Moral,2024-08-24_10h23.12.850,MoralCondition_v2,2022.2.5,29.99738422214667,
3,0,3,0,5,0,5,0,,,,,,,,,,,,,,,,,,,,,,,,,,,,,,,,,,,,,,,,,,,,,,,,,,,,299.8366413996555,299.8366413996555,0.006854800041764975,0.09828019980341196,2.0,4.992643299978226,,,,,,,,,,,,,,7408,Moral,2024-08-24_10h23.12.850,MoralCondition_v2,2022.2.5,29.99738422214667,
3,0,3,0,6,0,6,0,,,,,,,,,,,,,,,,,,,,,,,,,,,,,,,,,,,,,,,,,,,,,,,,,,,,304.8699820996262,304.8699820996262,0.008712900336831808,0.09799400018528104,1.0,2.1238126000389457,,,,,,,,,,,,,,7408,Moral,2024-08-24_10h23.12.850,MoralCondition_v2,2022.2.5,29.99738422214667,
3,0,3,0,,,,,,,,,,,,,,,,,,,,,,,,,,,,,,,,,,,,,,,,,,,,,,,,,,,,,,,,,,,,,,307.0367790996097,307.0367790996097,0.0015554996207356453,0.0974836996756494,7.0,9.130720500368625,,,,,,,,7408,Moral,2024-08-24_10h23.12.850,MoralCondition_v2,2022.2.5,29.99738422214667,
4,0,4,0,0,0,0,0,,,,,,,,,,,,,,,,,,,,,316.20349119976163,0.0002644001506268978,0.0977500001899898,322.2199785998091,6.014266199897975,322.3867762996815,322.3867762996815,0.07216309988871217,0.1811147998087108,6.014319700188935,328.48641279991716,328.48641279991716,328.48641279991716,0.0703643998131156,0.18089690012857318,334.1866131997667,334.38658609986305,6.014293699990958,6.114268799778074,340.3865874996409,12.014293099753559,340.51996719976887,340.51996719976887,0.014591400045901537,0.1142376996576786,up,2.1775059001520276,342.75350609980524,4.590023308992386e-05,0.09786339988932014,,348.78674959996715,348.78674959996715,0.026512800250202417,0.13100640010088682,5.0,4.738702999893576,,,,,,,328.3866041000001,328.3866041000001,340.4866654998623,340.4866654998623,,,,7408,Moral,2024-08-24_10h23.12.850,MoralCondition_v2,2022.2.5,29.99738422214667,
4,0,4,0,1,0,1,0,,,,,,,,,,,,,,,,,,,,,,,,,,,,,,,,,,,,,,,,,,,,,,,,,,,,353.55326809966937,353.55326809966937,0.006926900241523981,0.0991157004609704,5.0,4.8266066000796854,,,,,,,,,,,,,,7408,Moral,2024-08-24_10h23.12.850,MoralCondition_v2,2022.2.5,29.99738422214667,
4,0,4,0,2,0,2,0,,,,,,,,,,,,,,,,,,,,,,,,,,,,,,,,,,,,,,,,,,,,,,,,,,,,358.4199207997881,358.4199207997881,0.007491800002753735,0.0976728000678122,5.0,10.924855599645525,,,,,,,,,,,,,,7408,Moral,2024-08-24_10h23.12.850,MoralCondition_v2,2022.2.5,29.99738422214667,
4,0,4,0,3,0,3,0,,,,,,,,,,,,,,,,,,,,,,,,,,,,,,,,,,,,,,,,,,,,,,,,,,,,369.38646389963105,369.38646389963105,0.007031000219285488,0.09939760016277432,4.0,4.126674700062722,,,,,,,,,,,,,,7408,Moral,2024-08-24_10h23.12.850,MoralCondition_v2,2022.2.5,29.99738422214667,
4,0,4,0,4,0,4,0,,,,,,,,,,,,,,,,,,,,,,,,,,,,,,,,,,,,,,,,,,,,,,,,,,,,373.55323409987614,373.55323409987614,0.006463600322604179,0.09953150013461709,2.0,5.360271000303328,,,,,,,,,,,,,,7408,Moral,2024-08-24_10h23.12.850,MoralCondition_v2,2022.2.5,29.99738422214667,
4,0,4,0,5,0,5,0,,,,,,,,,,,,,,,,,,,,,,,,,,,,,,,,,,,,,,,,,,,,,,,,,,,,378.953051999677,378.953051999677,0.005877799820154905,0.09896899992600083,2.0,2.260882600210607,,,,,,,,,,,,,,7408,Moral,2024-08-24_10h23.12.850,MoralCondition_v2,2022.2.5,29.99738422214667,
4,0,4,0,6,0,6,0,,,,,,,,,,,,,,,,,,,,,,,,,,,,,,,,,,,,,,,,,,,,,,,,,,,,381.2530911997892,381.2530911997892,0.006725700106471777,0.0991278002038598,5.0,3.1600648001767695,,,,,,,,,,,,,,7408,Moral,2024-08-24_10h23.12.850,MoralCondition_v2,2022.2.5,29.99738422214667,
4,0,4,0,,,,,,,,,,,,,,,,,,,,,,,,,,,,,,,,,,,,,,,,,,,,,,,,,,,,,,,,,,,,,,384.4533624998294,384.4533624998294,0.0009310999885201454,0.0989928999915719,2.0,7.732554300222546,,,,,,,,7408,Moral,2024-08-24_10h23.12.850,MoralCondition_v2,2022.2.5,29.99738422214667,
5,0,5,0,0,0,0,0,,,,,,,,,,,,,,,,,,,,,392.2202653000131,0.00013320008292794228,0.09914790000766516,398.219845299609,5.999183400068432,398.36961689963937,398.36961689963937,0.05028710002079606,0.14917600015178323,6.015835499856621,404.50308999978006,404.50308999978006,404.50308999978006,0.06791969994083047,0.18251469964161515,410.2032369999215,410.40329219959676,6.015993599779904,6.116140999831259,416.403177799657,12.015861199703068,416.53646729979664,416.53646729979664,0.015980799682438374,0.11579689988866448,up,1.0093622002750635,417.6031877999194,3.910018131136894e-05,0.09793230006471276,423.6200953000225,423.6200953000225,423.6200953000225,0.01017760019749403,0.11469710012897849,6.0,4.072274200152606,,,,,,,404.37012249976397,404.37012249976397,416.50313689978793,416.50313689978793,6.099400199949741,,,7408,Moral,2024-08-24_10h23.12.850,MoralCondition_v2,2022.2.5,29.99738422214667,
5,0,5,0,1,0,1,0,,,,,,,,,,,,,,,,,,,,,,,,,,,,,,,,,,,,,,,,,,,,,,,,,,,,427.71968329977244,427.71968329977244,0.007502000313252211,0.09790350031107664,5.0,2.8248501997441053,,,,,,,,,,,,,,7408,Moral,2024-08-24_10h23.12.850,MoralCondition_v2,2022.2.5,29.99738422214667,
5,0,5,0,2,0,2,0,,,,,,,,,,,,,,,,,,,,,,,,,,,,,,,,,,,,,,,,,,,,,,,,,,,,430.5863891998306,430.5863891998306,0.007058999966830015,0.09957939991727471,5.0,4.426556000020355,,,,,,,,,,,,,,7408,Moral,2024-08-24_10h23.12.850,MoralCondition_v2,2022.2.5,29.99738422214667,
5,0,5,0,3,0,3,0,,,,,,,,,,,,,,,,,,,,,,,,,,,,,,,,,,,,,,,,,,,,,,,,,,,,435.05316509958357,435.05316509958357,0.0065346998162567616,0.0989589998498559,5.0,5.393574300222099,,,,,,,,,,,,,,7408,Moral,2024-08-24_10h23.12.850,MoralCondition_v2,2022.2.5,29.99738422214667,
5,0,5,0,4,0,4,0,,,,,,,,,,,,,,,,,,,,,,,,,,,,,,,,,,,,,,,,,,,,,,,,,,,,440.48639899957925,440.48639899957925,0.006748099811375141,0.09930639993399382,5.0,2.160163900349289,,,,,,,,,,,,,,7408,Moral,2024-08-24_10h23.12.850,MoralCondition_v2,2022.2.5,29.99738422214667,
5,0,5,0,5,0,5,0,,,,,,,,,,,,,,,,,,,,,,,,,,,,,,,,,,,,,,,,,,,,,,,,,,,,442.6863459995948,442.6863459995948,0.008027200121432543,0.0977321001701057,4.0,6.090729699935764,,,,,,,,,,,,,,7408,Moral,2024-08-24_10h23.12.850,MoralCondition_v2,2022.2.5,29.99738422214667,
5,0,5,0,6,0,6,0,,,,,,,,,,,,,,,,,,,,,,,,,,,,,,,,,,,,,,,,,,,,,,,,,,,,448.83669499959797,448.83669499959797,0.007522100117057562,0.11477540014311671,4.0,5.308008200023323,,,,,,,,,,,,,,7408,Moral,2024-08-24_10h23.12.850,MoralCondition_v2,2022.2.5,29.99738422214667,
5,0,5,0,,,,,,,,,,,,,,,,,,,,,,,,,,,,,,,,,,,,,,,,,,,,,,,,,,,,,,,,,,,,,,454.16965859988704,454.16965859988704,0.0022475002333521843,0.097223199903965,2.0,6.162805099971592,,,,,,,,7408,Moral,2024-08-24_10h23.12.850,MoralCondition_v2,2022.2.5,29.99738422214667,
6,0,6,0,0,0,0,0,,,,,,,,,,,,,,,,,,,,,460.3697870997712,0.00043789995834231377,0.09738160017877817,466.38646309962496,6.01406820025295,466.5530526000075,466.5530526000075,0.07082989998161793,0.18105270015075803,6.013960900250822,472.6532207997516,472.6532207997516,472.6532207997516,0.06804849999025464,0.1808902001939714,478.3530787997879,478.5529950996861,6.013914600014687,6.114151699934155,484.5530840996653,12.014014599844813,484.68637589970604,484.68637589970604,0.013946999795734882,0.11391100008040667,up,0.7228887001983821,485.4530814997852,5.099968984723091e-05,0.09770809998735785,,491.48657389963046,491.48657389963046,0.025591599754989147,0.13117649964988232,4.0,5.23977220011875,,,,,,,472.553081699647,472.553081699647,484.6362668997608,484.6362668997608,,,,7408,Moral,2024-08-24_10h23.12.850,MoralCondition_v2,2022.2.5,29.99738422214667,
6,0,6,0,1,0,1,0,,,,,,,,,,,,,,,,,,,,,,,,,,,,,,,,,,,,,,,,,,,,,,,,,,,,496.7530857999809,496.7530857999809,0.007568700239062309,0.09751609992235899,1.0,5.957734700292349,,,,,,,,,,,,,,7408,Moral,2024-08-24_10h23.12.850,MoralCondition_v2,2022.2.5,29.99738422214667,
6,0,6,0,2,0,2,0,,,,,,,,,,,,,,,,,,,,,,,,,,,,,,,,,,,,,,,,,,,,,,,,,,,,502.77009839983657,502.77009839983657,0.007592400070279837,0.11440550023689866,5.0,3.041100100148469,,,,,,,,,,,,,,7408,Moral,2024-08-24_10h23.12.850,MoralCondition_v2,2022.2.5,29.99738422214667,
6,0,6,0,3,0,3,0,,,,,,,,,,,,,,,,,,,,,,,,,,,,,,,,,,,,,,,,,,,,,,,,,,,,505.83615079987794,505.83615079987794,0.008851499762386084,0.09800759982317686,1.0,2.4235252998769283,,,,,,,,,,,,,,7408,Moral,2024-08-24_10h23.12.850,MoralCondition_v2,2022.2.5,29.99738422214667,
6,0,6,0,4,0,4,0,,,,,,,,,,,,,,,,,,,,,,,,,,,,,,,,,,,,,,,,,,,,,,,,,,,,508.3199576996267,508.3199576996267,0.008023600094020367,0.11465100012719631,2.0,3.841354999691248,,,,,,,,,,,,,,7408,Moral,2024-08-24_10h23.12.850,MoralCondition_v2,2022.2.5,29.99738422214667,
6,0,6,0,5,0,5,0,,,,,,,,,,,,,,,,,,,,,,,,,,,,,,,,,,,,,,,,,,,,,,,,,,,,512.1862242999487,512.1862242999487,0.006550299935042858,0.09933390002697706,1.0,3.3276967997662723,,,,,,,,,,,,,,7408,Moral,2024-08-24_10h23.12.850,MoralCondition_v2,2022.2.5,29.99738422214667,
6,0,6,0,6,0,6,0,,,,,,,,,,,,,,,,,,,,,,,,,,,,,,,,,,,,,,,,,,,,,,,,,,,,515.5696062999777,515.5696062999777,0.010057299863547087,0.1156049002893269,5.0,5.80659699998796,,,,,,,,,,,,,,7408,Moral,2024-08-24_10h23.12.850,MoralCondition_v2,2022.2.5,29.99738422214667,
6,0,6,0,,,,,,,,,,,,,,,,,,,,,,,,,,,,,,,,,,,,,,,,,,,,,,,,,,,,,,,,,,,,,,521.4031915999949,521.4031915999949,0.0011100000701844692,0.09934459999203682,7.0,3.9992215000092983,,,,,,,,7408,Moral,2024-08-24_10h23.12.850,MoralCondition_v2,2022.2.5,29.99738422214667,
7,0,7,0,0,0,0,0,,,,,,,,,,,,,,,,,,,,,525.4364120997488,0.00013649975880980492,0.09929919987916946,531.4363119998015,5.999334399588406,531.6028888998553,531.6028888998553,0.0578143997117877,0.16622479958459735,5.99929969990626,537.7027766997926,537.7027766997926,537.7027766997926,0.05571089964359999,0.16591859981417656,543.4031453998759,543.6033564996906,5.999757599551231,6.0992661993950605,549.6028866996057,11.999266799539328,549.7362808999605,549.7362808999605,0.0005349996499717236,0.09946649940684438,up,1.312720600515604,551.0862820995972,4.429975524544716e-05,0.09777599992230535,,557.1028021997772,557.1028021997772,0.023699500132352114,0.114504000172019,3.0,4.725311500020325,,,,,,,537.6029391996562,537.6029391996562,549.7029480999336,549.7029480999336,6.099436499644071,6.099325999617577,12.099364399444312,7408,Moral,2024-08-24_10h23.12.850,MoralCondition_v2,2022.2.5,29.99738422214667,
7,0,7,0,1,0,1,0,,,,,,,,,,,,,,,,,,,,,,,,,,,,,,,,,,,,,,,,,,,,,,,,,,,,561.8696068995632,561.8696068995632,0.0067517999559640884,0.0993403997272253,2.0,5.9601032002829015,,,,,,,,,,,,,,7408,Moral,2024-08-24_10h23.12.850,MoralCondition_v2,2022.2.5,29.99738422214667,
7,0,7,0,2,0,2,0,,,,,,,,,,,,,,,,,,,,,,,,,,,,,,,,,,,,,,,,,,,,,,,,,,,,567.8695623995736,567.8695623995736,0.0068025002256035805,0.09918620018288493,2.0,5.926763500086963,,,,,,,,,,,,,,7408,Moral,2024-08-24_10h23.12.850,MoralCondition_v2,2022.2.5,29.99738422214667,
7,0,7,0,3,0,3,0,,,,,,,,,,,,,,,,,,,,,,,,,,,,,,,,,,,,,,,,,,,,,,,,,,,,573.8361184997484,573.8361184997484,0.006896500010043383,0.09908349998295307,5.0,5.293316800147295,,,,,,,,,,,,,,7408,Moral,2024-08-24_10h23.12.850,MoralCondition_v2,2022.2.5,29.99738422214667,
7,0,7,0,4,0,4,0,,,,,,,,,,,,,,,,,,,,,,,,,,,,,,,,,,,,,,,,,,,,,,,,,,,,579.16961049987,579.16961049987,0.007403400260955095,0.09778909990563989,5.0,2.0581264002248645,,,,,,,,,,,,,,7408,Moral,2024-08-24_10h23.12.850,MoralCondition_v2,2022.2.5,29.99738422214667,
7,0,7,0,5,0,5,0,,,,,,,,,,,,,,,,,,,,,,,,,,,,,,,,,,,,,,,,,,,,,,,,,,,,581.2695322996005,581.2695322996005,0.006685299798846245,0.09927729982882738,2.0,3.62672120006755,,,,,,,,,,,,,,7408,Moral,2024-08-24_10h23.12.850,MoralCondition_v2,2022.2.5,29.99738422214667,
7,0,7,0,6,0,6,0,,,,,,,,,,,,,,,,,,,,,,,,,,,,,,,,,,,,,,,,,,,,,,,,,,,,584.9360559997149,584.9360559997149,0.007945300079882145,0.09786539990454912,4.0,7.457514700014144,,,,,,,,,,,,,,7408,Moral,2024-08-24_10h23.12.850,MoralCondition_v2,2022.2.5,29.99738422214667,
7,0,7,0,,,,,,,,,,,,,,,,,,,,,,,,,,,,,,,,,,,,,,,,,,,,,,,,,,,,,,,,,,,,,,592.4362074998207,592.4362074998207,0.0012493999674916267,0.09726909967139363,2.0,6.363846900407225,,,,,,,,7408,Moral,2024-08-24_10h23.12.850,MoralCondition_v2,2022.2.5,29.99738422214667,
8,0,8,0,0,0,0,0,,,,,,,,,,,,,,,,,,,,,598.8362727998756,0.0002255002036690712,0.09778010006994009,604.8527874997817,6.0143660004250705,605.0860360995866,605.0860360995866,0.1425109002739191,0.2477373001165688,6.014343299902976,611.1191968997009,611.1191968997009,611.1191968997009,0.07353720022365451,0.1809350000694394,616.8193824999034,617.0193698997609,6.014263200107962,6.114240699913353,623.0193755999207,12.014258699957281,623.1526801995933,623.1526801995933,0.014493599999696016,0.11426329985260963,up,0.7769220005720854,623.9506297996268,2.2499822080135345e-05,0.08406649995595217,,629.9692102000117,629.9692102000117,0.008910099975764751,0.10255589988082647,6.0,8.694715300109237,,,,,,,,,623.119437799789,623.119437799789,,,,7408,Moral,2024-08-24_10h23.12.850,MoralCondition_v2,2022.2.5,29.99738422214667,
8,0,8,0,1,0,1,0,,,,,,,,,,,,,,,,,,,,,,,,,,,,,,,,,,,,,,,,,,,,,,,,,,,,638.7028011996299,638.7028011996299,0.0075566996820271015,0.09921319968998432,4.0,3.959114800207317,,,,,,,,,,,,,,7408,Moral,2024-08-24_10h23.12.850,MoralCondition_v2,2022.2.5,29.99738422214667,
8,0,8,0,2,0,2,0,,,,,,,,,,,,,,,,,,,,,,,,,,,,,,,,,,,,,,,,,,,,,,,,,,,,642.7198556996882,642.7198556996882,0.007924100384116173,0.1144904000684619,5.0,3.3073456999845803,,,,,,,,,,,,,,7408,Moral,2024-08-24_10h23.12.850,MoralCondition_v2,2022.2.5,29.99738422214667,
8,0,8,0,3,0,3,0,,,,,,,,,,,,,,,,,,,,,,,,,,,,,,,,,,,,,,,,,,,,,,,,,,,,646.0525330998935,646.0525330998935,0.009058000054210424,0.09928379999473691,2.0,6.357702100183815,,,,,,,,,,,,,,7408,Moral,2024-08-24_10h23.12.850,MoralCondition_v2,2022.2.5,29.99738422214667,
8,0,8,0,4,0,4,0,,,,,,,,,,,,,,,,,,,,,,,,,,,,,,,,,,,,,,,,,,,,,,,,,,,,652.4694856000133,652.4694856000133,0.00911100022494793,0.11384100001305342,1.0,2.538977100048214,,,,,,,,,,,,,,7408,Moral,2024-08-24_10h23.12.850,MoralCondition_v2,2022.2.5,29.99738422214667,
8,0,8,0,5,0,5,0,,,,,,,,,,,,,,,,,,,,,,,,,,,,,,,,,,,,,,,,,,,,,,,,,,,,655.0359365995973,655.0359365995973,0.007341600023210049,0.09772940026596189,5.0,2.825016399845481,,,,,,,,,,,,,,7408,Moral,2024-08-24_10h23.12.850,MoralCondition_v2,2022.2.5,29.99738422214667,
8,0,8,0,6,0,6,0,,,,,,,,,,,,,,,,,,,,,,,,,,,,,,,,,,,,,,,,,,,,,,,,,,,,657.9025405999273,657.9025405999273,0.009195299819111824,0.0990065997466445,3.0,4.924437900073826,,,,,,,,,,,,,,7408,Moral,2024-08-24_10h23.12.850,MoralCondition_v2,2022.2.5,29.99738422214667,
8,0,8,0,,,,,,,,,,,,,,,,,,,,,,,,,,,,,,,,,,,,,,,,,,,,,,,,,,,,,,,,,,,,,,662.8693448998965,662.8693448998965,0.0014224997721612453,0.09757349966093898,2.0,3.4801667002029717,,,,,,,,7408,Moral,2024-08-24_10h23.12.850,MoralCondition_v2,2022.2.5,29.99738422214667,
9,0,9,0,0,0,0,0,,,,,,,,,,,,,,,,,,,,,666.3857905999757,9.169988334178925e-05,0.0987257999368012,672.402557299938,6.015616899821907,672.5693789999932,672.5693789999932,0.08033469971269369,0.1825589998625219,6.015787599608302,678.6692412998527,678.6692412998527,678.6692412998527,0.07890359964221716,0.18264269968494773,684.3692412995733,684.5692030997016,6.015626599546522,6.115683499723673,690.5692203999497,12.015635499730706,690.7025249996223,690.7025249996223,0.01594099961221218,0.11554989963769913,up,1.2425538003444672,692.0025247996673,5.020014941692352e-05,0.09801140008494258,,698.0360481999815,698.0360481999815,0.02779940003529191,0.13142430037260056,2.0,4.137991799972951,,,,,,,678.5692691998556,678.5692691998556,690.669380299747,690.669380299747,,,,7408,Moral,2024-08-24_10h23.12.850,MoralCondition_v2,2022.2.5,29.99738422214667,
9,0,9,0,1,0,1,0,,,,,,,,,,,,,,,,,,,,,,,,,,,,,,,,,,,,,,,,,,,,,,,,,,,,702.2024494996294,702.2024494996294,0.007342800032347441,0.09863869985565543,5.0,3.1256673000752926,,,,,,,,,,,,,,7408,Moral,2024-08-24_10h23.12.850,MoralCondition_v2,2022.2.5,29.99738422214667,
9,0,9,0,2,0,2,0,,,,,,,,,,,,,,,,,,,,,,,,,,,,,,,,,,,,,,,,,,,,,,,,,,,,705.3690560995601,705.3690560995601,0.007186099886894226,0.09808889962732792,6.0,4.658430499956012,,,,,,,,,,,,,,7408,Moral,2024-08-24_10h23.12.850,MoralCondition_v2,2022.2.5,29.99738422214667,
9,0,9,0,3,0,3,0,,,,,,,,,,,,,,,,,,,,,,,,,,,,,,,,,,,,,,,,,,,,,,,,,,,,710.0690764999017,710.0690764999017,0.0068282997235655785,0.09957179985940456,2.0,5.026884800288826,,,,,,,,,,,,,,7408,Moral,2024-08-24_10h23.12.850,MoralCondition_v2,2022.2.5,29.99738422214667,
9,0,9,0,4,0,4,0,,,,,,,,,,,,,,,,,,,,,,,,,,,,,,,,,,,,,,,,,,,,,,,,,,,,715.1526958998293,715.1526958998293,0.009744300041347742,0.1138359997421503,2.0,2.0050766998901963,,,,,,,,,,,,,,7408,Moral,2024-08-24_10h23.12.850,MoralCondition_v2,2022.2.5,29.99738422214667,
9,0,9,0,5,0,5,0,,,,,,,,,,,,,,,,,,,,,,,,,,,,,,,,,,,,,,,,,,,,,,,,,,,,717.1862107999623,717.1862107999623,0.0074767000041902065,0.09764479985460639,1.0,2.258018100168556,,,,,,,,,,,,,,7408,Moral,2024-08-24_10h23.12.850,MoralCondition_v2,2022.2.5,29.99738422214667,
9,0,9,0,6,0,6,0,,,,,,,,,,,,,,,,,,,,,,,,,,,,,,,,,,,,,,,,,,,,,,,,,,,,719.5023970999755,719.5023970999755,0.00918320007622242,0.11429920000955462,1.0,1.8060368997976184,,,,,,,,,,,,,,7408,Moral,2024-08-24_10h23.12.850,MoralCondition_v2,2022.2.5,29.99738422214667,
9,0,9,0,,,,,,,,,,,,,,,,,,,,,,,,,,,,,,,,,,,,,,,,,,,,,,,,,,,,,,,,,,,,,,721.3359472998418,721.3359472998418,0.0007107001729309559,0.09911199985072017,7.0,4.232992200180888,,,,,,,,7408,Moral,2024-08-24_10h23.12.850,MoralCondition_v2,2022.2.5,29.99738422214667,
10,0,10,0,0,0,0,0,,,,,,,,,,,,,,,,,,,,,725.6026363996789,0.00013250019401311874,0.09905049996450543,731.6026645000093,5.999156599864364,731.7690745997243,731.7690745997243,0.060440899804234505,0.16592830000445247,6.032355200033635,737.9025152996182,737.9025152996182,737.9025152996182,0.0922177997417748,0.19920239970088005,743.6024972996674,743.8024331997149,6.032383599784225,6.132471399847418,749.8025028998964,12.0324637000449,749.9357195999473,749.9357195999473,0.03248209971934557,0.1323008998297155,up,1.4737614002078772,751.4691052995622,4.989979788661003e-05,0.09770959988236427,,757.5025081997737,757.5025081997737,0.026737499982118607,0.13093349989503622,1.0,3.9718557000160217,,,,,,,737.7692372999154,737.7692372999154,749.9023758997209,749.9023758997209,6.099074000027031,,,7408,Moral,2024-08-24_10h23.12.850,MoralCondition_v2,2022.2.5,29.99738422214667,
10,0,10,0,1,0,1,0,,,,,,,,,,,,,,,,,,,,,,,,,,,,,,,,,,,,,,,,,,,,,,,,,,,,761.5024561998434,761.5024561998434,0.007769400253891945,0.09760430036112666,1.0,2.39103680010885,,,,,,,,,,,,,,7408,Moral,2024-08-24_10h23.12.850,MoralCondition_v2,2022.2.5,29.99738422214667,
10,0,10,0,2,0,2,0,,,,,,,,,,,,,,,,,,,,,,,,,,,,,,,,,,,,,,,,,,,,,,,,,,,,763.9526537000202,763.9526537000202,0.007893300149589777,0.11395350005477667,5.0,2.7404493000358343,,,,,,,,,,,,,,7408,Moral,2024-08-24_10h23.12.850,MoralCondition_v2,2022.2.5,29.99738422214667,
10,0,10,0,3,0,3,0,,,,,,,,,,,,,,,,,,,,,,,,,,,,,,,,,,,,,,,,,,,,,,,,,,,,766.7191418996081,766.7191418996081,0.007398400455713272,0.09779120003804564,6.0,4.424819299951196,,,,,,,,,,,,,,7408,Moral,2024-08-24_10h23.12.850,MoralCondition_v2,2022.2.5,29.99738422214667,
10,0,10,0,4,0,4,0,,,,,,,,,,,,,,,,,,,,,,,,,,,,,,,,,,,,,,,,,,,,,,,,,,,,771.1856425995938,771.1856425995938,0.0076418002136051655,0.09758340008556843,1.0,2.991172700189054,,,,,,,,,,,,,,7408,Moral,2024-08-24_10h23.12.850,MoralCondition_v2,2022.2.5,29.99738422214667,
10,0,10,0,5,0,5,0,,,,,,,,,,,,,,,,,,,,,,,,,,,,,,,,,,,,,,,,,,,,,,,,,,,,774.2191009996459,774.2191009996459,0.00852429959923029,0.09792539989575744,1.0,3.6237896997481585,,,,,,,,,,,,,,7408,Moral,2024-08-24_10h23.12.850,MoralCondition_v2,2022.2.5,29.99738422214667,
10,0,10,0,6,0,6,0,,,,,,,,,,,,,,,,,,,,,,,,,,,,,,,,,,,,,,,,,,,,,,,,,,,,777.8857339997776,777.8857339997776,0.007816399913281202,0.09773779986426234,3.0,5.09114640019834,,,,,,,,,,,,,,7408,Moral,2024-08-24_10h23.12.850,MoralCondition_v2,2022.2.5,29.99738422214667,
10,0,10,0,,,,,,,,,,,,,,,,,,,,,,,,,,,,,,,,,,,,,,,,,,,,,,,,,,,,,,,,,,,,,,783.019118399825,783.019118399825,0.0014764000661671162,0.09706959966570139,7.0,2.630068500060588,,,,,,,,7408,Moral,2024-08-24_10h23.12.850,MoralCondition_v2,2022.2.5,29.99738422214667,
11,0,11,0,0,0,0,0,,,,,,,,,,,,,,,,,,,,,785.6860230998136,0.00036509986966848373,0.09805119968950748,791.6856622998603,6.031234299764037,791.918996299617,791.918996299617,0.11724919965490699,0.23142219986766577,6.031158399768174,797.9689399995841,797.9689399995841,797.9689399995841,0.08185309963300824,0.18137369956821203,803.6689447998069,803.8689305996522,6.014521199744195,6.114468399900943,809.8689033999108,12.014478399883956,810.0022610998712,810.0022610998712,0.01465659961104393,0.11435789940878749,up,1.7994622006081045,811.8527912995778,2.0899809896945953e-05,0.09966670023277402,,817.8687370996922,817.8687370996922,0.02599160000681877,0.1159204002469778,1.0,3.99098140001297,,,,,,,,,809.9689173996449,809.9689173996449,,,,7408,Moral,2024-08-24_10h23.12.850,MoralCondition_v2,2022.2.5,29.99738422214667,
11,0,11,0,1,0,1,0,,,,,,,,,,,,,,,,,,,,,,,,,,,,,,,,,,,,,,,,,,,,,,,,,,,,821.9021326997317,821.9021326997317,0.00656449981033802,0.09902699990198016,1.0,2.0605697999708354,,,,,,,,,,,,,,7408,Moral,2024-08-24_10h23.12.850,MoralCondition_v2,2022.2.5,29.99738422214667,
11,0,11,0,2,0,2,0,,,,,,,,,,,,,,,,,,,,,,,,,,,,,,,,,,,,,,,,,,,,,,,,,,,,824.0021164999343,824.0021164999343,0.00657479977235198,0.09910380002111197,4.0,2.8935787002556026,,,,,,,,,,,,,,7408,Moral,2024-08-24_10h23.12.850,MoralCondition_v2,2022.2.5,29.99738422214667,
11,0,11,0,3,0,3,0,,,,,,,,,,,,,,,,,,,,,,,,,,,,,,,,,,,,,,,,,,,,,,,,,,,,826.9356637997553,826.9356637997553,0.007936100009828806,0.09717029985040426,1.0,2.090343799907714,,,,,,,,,,,,,,7408,Moral,2024-08-24_10h23.12.850,MoralCondition_v2,2022.2.5,29.99738422214667,
11,0,11,0,4,0,4,0,,,,,,,,,,,,,,,,,,,,,,,,,,,,,,,,,,,,,,,,,,,,,,,,,,,,829.0688119996339,829.0688119996339,0.006912699900567532,0.0993329999037087,1.0,2.0933699002489448,,,,,,,,,,,,,,7408,Moral,2024-08-24_10h23.12.850,MoralCondition_v2,2022.2.5,29.99738422214667,
11,0,11,0,5,0,5,0,,,,,,,,,,,,,,,,,,,,,,,,,,,,,,,,,,,,,,,,,,,,,,,,,,,,831.2023097998463,831.2023097998463,0.007408399600535631,0.0975109999999404,1.0,2.5578211001120508,,,,,,,,,,,,,,7408,Moral,2024-08-24_10h23.12.850,MoralCondition_v2,2022.2.5,29.99738422214667,
11,0,11,0,6,0,6,0,,,,,,,,,,,,,,,,,,,,,,,,,,,,,,,,,,,,,,,,,,,,,,,,,,,,833.8024249998853,833.8024249998853,0.007150299847126007,0.09732369985431433,4.0,2.791017399635166,,,,,,,,,,,,,,7408,Moral,2024-08-24_10h23.12.850,MoralCondition_v2,2022.2.5,29.99738422214667,
11,0,11,0,,,,,,,,,,,,,,,,,,,,,,,,,,,,,,,,,,,,,,,,,,,,,,,,,,,,,,,,,,,,,,836.6355289998464,836.6355289998464,0.0006943000480532646,0.09927230002358556,7.0,2.1330943000502884,,,,,,,,7408,Moral,2024-08-24_10h23.12.850,MoralCondition_v2,2022.2.5,29.99738422214667,
12,0,12,0,0,0,0,0,,,,,,,,,,,,,,,,,,,,,838.8024414000101,0.00015169987455010414,0.09939279966056347,844.8188606998883,6.016303399577737,845.0023741996847,845.0023741996847,0.08500129962339997,0.1994408997707069,5.9993358994834125,851.0687989997678,851.0687989997678,851.0687989997678,0.05507939960807562,0.16621889965608716,856.7690324997529,856.9688070998527,5.999440999701619,6.099284599535167,862.9687609998509,11.999334199819714,863.1020813998766,863.1020813998766,0.0005433997139334679,0.09925819933414459,up,1.195254200603813,864.3354158997536,3.860006108880043e-05,0.09783719992265105,870.3353620995767,870.3353620995767,870.3353620995767,0.009137500077486038,0.09777710027992725,5.0,4.1231741001829505,,,,,,,851.0687989997678,851.0687989997678,863.0687806997448,863.0687806997448,,6.0993333999067545,12.099386499729007,7408,Moral,2024-08-24_10h23.12.850,MoralCondition_v2,2022.2.5,29.99738422214667,
12,0,12,0,1,0,1,0,,,,,,,,,,,,,,,,,,,,,,,,,,,,,,,,,,,,,,,,,,,,,,,,,,,,874.5020596999675,874.5020596999675,0.007257699966430664,0.09913609968498349,1.0,1.8929677000269294,,,,,,,,,,,,,,7408,Moral,2024-08-24_10h23.12.850,MoralCondition_v2,2022.2.5,29.99738422214667,
12,0,12,0,2,0,2,0,,,,,,,,,,,,,,,,,,,,,,,,,,,,,,,,,,,,,,,,,,,,,,,,,,,,876.4351936997846,876.4351936997846,0.008070299867540598,0.09789769956842065,3.0,5.357496900018305,,,,,,,,,,,,,,7408,Moral,2024-08-24_10h23.12.850,MoralCondition_v2,2022.2.5,29.99738422214667,
12,0,12,0,3,0,3,0,,,,,,,,,,,,,,,,,,,,,,,,,,,,,,,,,,,,,,,,,,,,,,,,,,,,881.8354538995773,881.8354538995773,0.007428999990224838,0.09810870001092553,1.0,2.192016299813986,,,,,,,,,,,,,,7408,Moral,2024-08-24_10h23.12.850,MoralCondition_v2,2022.2.5,29.99738422214667,
12,0,12,0,4,0,4,0,,,,,,,,,,,,,,,,,,,,,,,,,,,,,,,,,,,,,,,,,,,,,,,,,,,,884.0687897996977,884.0687897996977,0.006799799855798483,0.09847729979082942,1.0,1.7927040001377463,,,,,,,,,,,,,,7408,Moral,2024-08-24_10h23.12.850,MoralCondition_v2,2022.2.5,29.99738422214667,
12,0,12,0,5,0,5,0,,,,,,,,,,,,,,,,,,,,,,,,,,,,,,,,,,,,,,,,,,,,,,,,,,,,885.9022547998466,885.9022547998466,0.010390199720859528,0.09898580005392432,4.0,2.756675499957055,,,,,,,,,,,,,,7408,Moral,2024-08-24_10h23.12.850,MoralCondition_v2,2022.2.5,29.99738422214667,
12,0,12,0,6,0,6,0,,,,,,,,,,,,,,,,,,,,,,,,,,,,,,,,,,,,,,,,,,,,,,,,,,,,888.702556299977,888.702556299977,0.0066605000756680965,0.0986524997279048,1.0,1.5928865000605583,,,,,,,,,,,,,,7408,Moral,2024-08-24_10h23.12.850,MoralCondition_v2,2022.2.5,29.99738422214667,
12,0,12,0,,,,,,,,,,,,,,,,,,,,,,,,,,,,,,,,,,,,,,,,,,,,,,,,,,,,,,,,,,,,,,890.3354724999517,890.3354724999517,0.0014816001057624817,0.09752919990569353,7.0,3.1973590003326535,,,,,,,,7408,Moral,2024-08-24_10h23.12.850,MoralCondition_v2,2022.2.5,29.99738422214667,
13,0,13,0,0,0,0,0,,,,,,,,,,,,,,,,,,,,,893.5690247998573,0.0002864999696612358,0.09787200018763542,899.5853990996256,6.014449900016189,899.751957600005,899.751957600005,0.07918970007449389,0.18119890009984374,6.014408700168133,905.8518899995834,905.8518899995834,905.8518899995834,0.07531910017132759,0.18124220008030534,911.5519539997913,911.7519202996045,6.014403400011361,6.114405300002545,917.751943399664,12.01444029994309,917.8852580999956,917.8852580999956,0.014580899849534035,0.1143429996445775,up,1.3168844999745488,919.2352377995849,4.029972478747368e-05,0.09748280001804233,,925.2520902999677,925.2520902999677,0.02508879965171218,0.11411149986088276,2.0,4.89012819994241,,,,,,,905.7519839997403,905.7519839997403,917.8519394998439,917.8519394998439,,,,7408,Moral,2024-08-24_10h23.12.850,MoralCondition_v2,2022.2.5,29.99738422214667,
13,0,13,0,1,0,1,0,,,,,,,,,,,,,,,,,,,,,,,,,,,,,,,,,,,,,,,,,,,,,,,,,,,,930.1852837996557,930.1852837996557,0.007371899671852589,0.09795469976961613,4.0,2.925147899892181,,,,,,,,,,,,,,7408,Moral,2024-08-24_10h23.12.850,MoralCondition_v2,2022.2.5,29.99738422214667,
13,0,13,0,2,0,2,0,,,,,,,,,,,,,,,,,,,,,,,,,,,,,,,,,,,,,,,,,,,,,,,,,,,,933.1518190000206,933.1518190000206,0.006685500033199787,0.0990701001137495,3.0,2.560384599957615,,,,,,,,,,,,,,7408,Moral,2024-08-24_10h23.12.850,MoralCondition_v2,2022.2.5,29.99738422214667,
13,0,13,0,3,0,3,0,,,,,,,,,,,,,,,,,,,,,,,,,,,,,,,,,,,,,,,,,,,,,,,,,,,,935.7517622997984,935.7517622997984,0.006525599863380194,0.09918930009007454,4.0,4.826966400258243,,,,,,,,,,,,,,7408,Moral,2024-08-24_10h23.12.850,MoralCondition_v2,2022.2.5,29.99738422214667,
13,0,13,0,4,0,4,0,,,,,,,,,,,,,,,,,,,,,,,,,,,,,,,,,,,,,,,,,,,,,,,,,,,,940.635184600018,940.635184600018,0.007770600263029337,0.11419890029355884,4.0,1.8076331000775099,,,,,,,,,,,,,,7408,Moral,2024-08-24_10h23.12.850,MoralCondition_v2,2022.2.5,29.99738422214667,
13,0,13,0,5,0,5,0,,,,,,,,,,,,,,,,,,,,,,,,,,,,,,,,,,,,,,,,,,,,,,,,,,,,942.468393899966,942.468393899966,0.006692599970847368,0.0991453998722136,5.0,6.793436599895358,,,,,,,,,,,,,,7408,Moral,2024-08-24_10h23.12.850,MoralCondition_v2,2022.2.5,29.99738422214667,
13,0,13,0,6,0,6,0,,,,,,,,,,,,,,,,,,,,,,,,,,,,,,,,,,,,,,,,,,,,,,,,,,,,949.3017138997093,949.3017138997093,0.006660900078713894,0.09929129993543029,1.0,1.89381660008803,,,,,,,,,,,,,,7408,Moral,2024-08-24_10h23.12.850,MoralCondition_v2,2022.2.5,29.99738422214667,
13,0,13,0,,,,,,,,,,,,,,,,,,,,,,,,,,,,,,,,,,,,,,,,,,,,,,,,,,,,,,,,,,,,,,951.2353562996723,951.2353562996723,0.0014718002639710903,0.09777009999379516,2.0,8.597650300245732,,,,,,,,7408,Moral,2024-08-24_10h23.12.850,MoralCondition_v2,2022.2.5,29.99738422214667,
14,0,14,0,0,0,0,0,,,,,,,,,,,,,,,,,,,,,959.8688791999593,0.0002652001567184925,0.09798180032521486,965.8851174996234,6.014551400206983,966.0519104995765,966.0519104995765,0.07900660019367933,0.18143530003726482,6.0144257000647485,972.1518345000222,972.1518345000222,972.1518345000222,0.06852860003709793,0.1812427002005279,977.8517461996526,978.0518188998103,6.014544200152159,6.1147419000044465,984.0517491996288,12.014558400027454,984.185017099604,984.185017099604,0.014529299922287464,0.11436389992013574,up,1.1920764003880322,985.4350615995936,4.280032590031624e-05,0.0981053002178669,991.4349634996615,991.4349634996615,991.4349634996615,0.006788400001823902,0.09814560040831566,2.0,5.358954700175673,,,,,,,972.0349369999021,972.0349369999021,984.1516758999787,984.1516758999787,,,,7408,Moral,2024-08-24_10h23.12.850,MoralCondition_v2,2022.2.5,29.99738422214667,
14,0,14,0,1,0,1,0,,,,,,,,,,,,,,,,,,,,,,,,,,,,,,,,,,,,,,,,,,,,,,,,,,,,996.8351666997187,996.8351666997187,0.006572199985384941,0.09911560034379363,3.0,8.193753800354898,,,,,,,,,,,,,,7408,Moral,2024-08-24_10h23.12.850,MoralCondition_v2,2022.2.5,29.99738422214667,
14,0,14,0,2,0,2,0,,,,,,,,,,,,,,,,,,,,,,,,,,,,,,,,,,,,,,,,,,,,,,,,,,,,1005.0682396995835,1005.0682396995835,0.006753799971193075,0.0993630001321435,1.0,1.760298099834472,,,,,,,,,,,,,,7408,Moral,2024-08-24_10h23.12.850,MoralCondition_v2,2022.2.5,29.99738422214667,
14,0,14,0,3,0,3,0,,,,,,,,,,,,,,,,,,,,,,,,,,,,,,,,,,,,,,,,,,,,,,,,,,,,1006.8683417998254,1006.8683417998254,0.00851200008764863,0.09795810002833605,2.0,1.9906895998865366,,,,,,,,,,,,,,7408,Moral,2024-08-24_10h23.12.850,MoralCondition_v2,2022.2.5,29.99738422214667,
14,0,14,0,4,0,4,0,,,,,,,,,,,,,,,,,,,,,,,,,,,,,,,,,,,,,,,,,,,,,,,,,,,,1008.9014506996609,1008.9014506996609,0.008420899976044893,0.09907240001484752,4.0,4.358518599998206,,,,,,,,,,,,,,7408,Moral,2024-08-24_10h23.12.850,MoralCondition_v2,2022.2.5,29.99738422214667,
14,0,14,0,5,0,5,0,,,,,,,,,,,,,,,,,,,,,,,,,,,,,,,,,,,,,,,,,,,,,,,,,,,,1013.301632499788,1013.301632499788,0.006957100238651037,0.09913749992847443,4.0,3.2932234997861087,,,,,,,,,,,,,,7408,Moral,2024-08-24_10h23.12.850,MoralCondition_v2,2022.2.5,29.99738422214667,
14,0,14,0,6,0,6,0,,,,,,,,,,,,,,,,,,,,,,,,,,,,,,,,,,,,,,,,,,,,,,,,,,,,1016.6518127997406,1016.6518127997406,0.009813699871301651,0.11407520016655326,4.0,2.805312399752438,,,,,,,,,,,,,,7408,Moral,2024-08-24_10h23.12.850,MoralCondition_v2,2022.2.5,29.99738422214667,
14,0,14,0,,,,,,,,,,,,,,,,,,,,,,,,,,,,,,,,,,,,,,,,,,,,,,,,,,,,,,,,,,,,,,1019.4850162998773,1019.4850162998773,0.001632599625736475,0.09720519976690412,2.0,2.663728700019419,,,,,,,,7408,Moral,2024-08-24_10h23.12.850,MoralCondition_v2,2022.2.5,29.99738422214667,
15,0,15,0,0,0,0,0,,,,,,,,,,,,,,,,,,,,,1022.1850691996515,0.00013010017573833466,0.09920629998669028,1028.2015625997446,6.015919600147754,1028.368067999836,1028.368067999836,0.07705930015072227,0.18267170013859868,6.01577669987455,1034.4682628000155,1034.4682628000155,1034.4682628000155,0.06839969987049699,0.18276569992303848,1040.168195499573,1040.3681646999903,6.0157995000481606,6.115780799649656,1046.3683702996932,12.016034400090575,1046.501480399631,1046.501480399631,0.016097699757665396,0.11571009969338775,up,0.7076980001293123,1047.2681834995747,4.9800146371126175e-05,0.09799030004069209,,1053.284742699936,1053.284742699936,0.025117500219494104,0.11454650014638901,3.0,6.957247199956328,,,,,,,1034.3515565996058,1034.3515565996058,1046.4682302996516,1046.4682302996516,,,,7408,Moral,2024-08-24_10h23.12.850,MoralCondition_v2,2022.2.5,29.99738422214667,
15,0,15,0,1,0,1,0,,,,,,,,,,,,,,,,,,,,,,,,,,,,,,,,,,,,,,,,,,,,,,,,,,,,1060.2847590995952,1060.2847590995952,0.006353599950671196,0.0991189000196755,1.0,1.9605305003933609,,,,,,,,,,,,,,7408,Moral,2024-08-24_10h23.12.850,MoralCondition_v2,2022.2.5,29.99738422214667,
15,0,15,0,2,0,2,0,,,,,,,,,,,,,,,,,,,,,,,,,,,,,,,,,,,,,,,,,,,,,,,,,,,,1062.284879299812,1062.284879299812,0.006440199911594391,0.09902979992330074,2.0,3.1603598999790847,,,,,,,,,,,,,,7408,Moral,2024-08-24_10h23.12.850,MoralCondition_v2,2022.2.5,29.99738422214667,
15,0,15,0,3,0,3,0,,,,,,,,,,,,,,,,,,,,,,,,,,,,,,,,,,,,,,,,,,,,,,,,,,,,1065.484877999872,1065.484877999872,0.007821700070053339,0.09785979986190796,4.0,7.291101499926299,,,,,,,,,,,,,,7408,Moral,2024-08-24_10h23.12.850,MoralCondition_v2,2022.2.5,29.99738422214667,
15,0,15,0,4,0,4,0,,,,,,,,,,,,,,,,,,,,,,,,,,,,,,,,,,,,,,,,,,,,,,,,,,,,1072.8180329999886,1072.8180329999886,0.0066650002263486385,0.09920939989387989,4.0,2.7270621000789106,,,,,,,,,,,,,,7408,Moral,2024-08-24_10h23.12.850,MoralCondition_v2,2022.2.5,29.99738422214667,
15,0,15,0,5,0,5,0,,,,,,,,,,,,,,,,,,,,,,,,,,,,,,,,,,,,,,,,,,,,,,,,,,,,1075.584529099986,1075.584529099986,0.006565500050783157,0.09932520007714629,3.0,2.860475900117308,,,,,,,,,,,,,,7408,Moral,2024-08-24_10h23.12.850,MoralCondition_v2,2022.2.5,29.99738422214667,
15,0,15,0,6,0,6,0,,,,,,,,,,,,,,,,,,,,,,,,,,,,,,,,,,,,,,,,,,,,,,,,,,,,1078.484712000005,1078.484712000005,0.006810000166296959,0.09890499990433455,1.0,4.293219999875873,,,,,,,,,,,,,,7408,Moral,2024-08-24_10h23.12.850,MoralCondition_v2,2022.2.5,29.99738422214667,
15,0,15,0,,,,,,,,,,,,,,,,,,,,,,,,,,,,,,,,,,,,,,,,,,,,,,,,,,,,,,,,,,,,,,1082.8181494995952,1082.8181494995952,0.001217399723827839,0.09772149985656142,2.0,2.631064999848604,,,,,,,,7408,Moral,2024-08-24_10h23.12.850,MoralCondition_v2,2022.2.5,29.99738422214667,
16,0,16,0,0,0,0,0,,,,,,,,,,,,,,,,,,,,,1085.4849001998082,0.00015399977564811707,0.0986984996125102,1091.484660399612,6.032015199773014,1091.7013864996843,1091.7013864996843,0.1017083995975554,0.21554339956492186,6.015303499531001,1097.7679698998109,1097.7679698998109,1097.7679698998109,0.0688968994654715,0.1819529994390905,1103.467945299577,1103.6679155998863,6.015263899695128,6.1152644995599985,1109.6679124999791,12.01525679975748,1109.8012347999029,1109.8012347999029,0.015429699327796698,0.11509869946166873,up,1.960058600641787,1111.8012192999013,5.460018292069435e-05,0.09748610015958548,,1117.8179252999835,1117.8179252999835,0.025506299920380116,0.11416150024160743,5.0,4.856325599830598,,,,,,,,,1109.7679158998653,1109.7679158998653,,,,7408,Moral,2024-08-24_10h23.12.850,MoralCondition_v2,2022.2.5,29.99738422214667,
16,0,16,0,1,0,1,0,,,,,,,,,,,,,,,,,,,,,,,,,,,,,,,,,,,,,,,,,,,,,,,,,,,,1122.7178135998547,1122.7178135998547,0.006361600011587143,0.09862180007621646,2.0,4.226678699720651,,,,,,,,,,,,,,7408,Moral,2024-08-24_10h23.12.850,MoralCondition_v2,2022.2.5,29.99738422214667,
16,0,16,0,2,0,2,0,,,,,,,,,,,,,,,,,,,,,,,,,,,,,,,,,,,,,,,,,,,,,,,,,,,,1126.9843486999162,1126.9843486999162,0.007484199944883585,0.09784540021792054,1.0,3.4251059000380337,,,,,,,,,,,,,,7408,Moral,2024-08-24_10h23.12.850,MoralCondition_v2,2022.2.5,29.99738422214667,
16,0,16,0,3,0,3,0,,,,,,,,,,,,,,,,,,,,,,,,,,,,,,,,,,,,,,,,,,,,,,,,,,,,1130.4513294999488,1130.4513294999488,0.007390799932181835,0.09785129968076944,4.0,4.791641199961305,,,,,,,,,,,,,,7408,Moral,2024-08-24_10h23.12.850,MoralCondition_v2,2022.2.5,29.99738422214667,
16,0,16,0,4,0,4,0,,,,,,,,,,,,,,,,,,,,,,,,,,,,,,,,,,,,,,,,,,,,,,,,,,,,1135.2845259997994,1135.2845259997994,0.0067667001858353615,0.09897720022127032,2.0,2.793621299788356,,,,,,,,,,,,,,7408,Moral,2024-08-24_10h23.12.850,MoralCondition_v2,2022.2.5,29.99738422214667,
16,0,16,0,5,0,5,0,,,,,,,,,,,,,,,,,,,,,,,,,,,,,,,,,,,,,,,,,,,,,,,,,,,,1138.1177955996245,1138.1177955996245,0.007441400084644556,0.09800990018993616,1.0,1.6250958000309765,,,,,,,,,,,,,,7408,Moral,2024-08-24_10h23.12.850,MoralCondition_v2,2022.2.5,29.99738422214667,
16,0,16,0,6,0,6,0,,,,,,,,,,,,,,,,,,,,,,,,,,,,,,,,,,,,,,,,,,,,,,,,,,,,1139.7843145998195,1139.7843145998195,0.006841899827122688,0.09939750004559755,5.0,1.9934378997422755,,,,,,,,,,,,,,7408,Moral,2024-08-24_10h23.12.850,MoralCondition_v2,2022.2.5,29.99738422214667,
16,0,16,0,,,,,,,,,,,,,,,,,,,,,,,,,,,,,,,,,,,,,,,,,,,,,,,,,,,,,,,,,,,,,,1141.817873199936,1141.817873199936,0.0013713003136217594,0.09741639997810125,2.0,2.9973212997429073,,,,,,,,7408,Moral,2024-08-24_10h23.12.850,MoralCondition_v2,2022.2.5,29.99738422214667,
17,0,17,0,0,0,0,0,,,,,,,,,,,,,,,,,,,,,1144.851316199638,0.0001321001909673214,0.09900730010122061,1150.8677754998207,6.015632400289178,1151.0343436999246,1151.0343436999246,0.07884870003908873,0.1825628001242876,6.015598100144416,1157.1345212999731,1157.1345212999731,1157.1345212999731,0.06963340006768703,0.1824504998512566,1162.8343764999881,1163.0343743995763,6.015663600061089,6.11571880010888,1169.0343716996722,12.015565500129014,1169.1677220999263,1169.1677220999263,0.015781200025230646,0.11550949979573488,up,0.9456605003215373,1170.1677098996006,6.440002471208572e-05,0.09777830028906465,1176.167787599843,1176.167787599843,1176.167787599843,0.008725299965590239,0.09799760021269321,6.0,2.9235772998072207,,,,,,,1157.0344073995948,1157.0344073995948,1169.1343697998673,1169.1343697998673,,,,7408,Moral,2024-08-24_10h23.12.850,MoralCondition_v2,2022.2.5,29.99738422214667,
17,0,17,0,1,0,1,0,,,,,,,,,,,,,,,,,,,,,,,,,,,,,,,,,,,,,,,,,,,,,,,,,,,,1179.1343241999857,1179.1343241999857,0.006987500004470348,0.09857699973508716,5.0,2.75938790012151,,,,,,,,,,,,,,7408,Moral,2024-08-24_10h23.12.850,MoralCondition_v2,2022.2.5,29.99738422214667,
17,0,17,0,2,0,2,0,,,,,,,,,,,,,,,,,,,,,,,,,,,,,,,,,,,,,,,,,,,,,,,,,,,,1181.9342840998434,1181.9342840998434,0.006955699995160103,0.09933680016547441,4.0,3.92668249970302,,,,,,,,,,,,,,7408,Moral,2024-08-24_10h23.12.850,MoralCondition_v2,2022.2.5,29.99738422214667,
17,0,17,0,3,0,3,0,,,,,,,,,,,,,,,,,,,,,,,,,,,,,,,,,,,,,,,,,,,,,,,,,,,,1185.9009050996974,1185.9009050996974,0.007041300181299448,0.09910479979589581,2.0,2.459853499662131,,,,,,,,,,,,,,7408,Moral,2024-08-24_10h23.12.850,MoralCondition_v2,2022.2.5,29.99738422214667,
17,0,17,0,4,0,4,0,,,,,,,,,,,,,,,,,,,,,,,,,,,,,,,,,,,,,,,,,,,,,,,,,,,,1188.4010630999692,1188.4010630999692,0.006805000361055136,0.09667540015652776,2.0,4.191125700250268,,,,,,,,,,,,,,7408,Moral,2024-08-24_10h23.12.850,MoralCondition_v2,2022.2.5,29.99738422214667,
17,0,17,0,5,0,5,0,,,,,,,,,,,,,,,,,,,,,,,,,,,,,,,,,,,,,,,,,,,,,,,,,,,,1192.6345284995623,1192.6345284995623,0.008345599751919508,0.09746660012751818,1.0,1.6569819999858737,,,,,,,,,,,,,,7408,Moral,2024-08-24_10h23.12.850,MoralCondition_v2,2022.2.5,29.99738422214667,
17,0,17,0,6,0,6,0,,,,,,,,,,,,,,,,,,,,,,,,,,,,,,,,,,,,,,,,,,,,,,,,,,,,1194.3341405997053,1194.3341405997053,0.006912600249052048,0.09836689988151193,1.0,1.4931944999843836,,,,,,,,,,,,,,7408,Moral,2024-08-24_10h23.12.850,MoralCondition_v2,2022.2.5,29.99738422214667,
17,0,17,0,,,,,,,,,,,,,,,,,,,,,,,,,,,,,,,,,,,,,,,,,,,,,,,,,,,,,,,,,,,,,,1195.86748669995,1195.86748669995,0.000997699797153473,0.09837020002305508,2.0,3.8983856001868844,,,,,,,,7408,Moral,2024-08-24_10h23.12.850,MoralCondition_v2,2022.2.5,29.99738422214667,
18,0,18,0,0,0,0,0,,,,,,,,,,,,,,,,,,,,,1199.8012395999394,0.00037160003557801247,0.09776009991765022,1205.801112699788,6.031189600005746,1206.0179185997695,1206.0179185997695,0.1005103001371026,0.21453400002792478,6.014222499914467,1212.0841762996279,1212.0841762996279,1212.0841762996279,0.07233959995210171,0.1812154999934137,1217.7841702997684,1217.9842109996825,6.014314599800855,6.114223700016737,1223.984166899696,12.014312599785626,1224.1177116995677,1224.1177116995677,0.014740499667823315,0.11418809974566102,up,2.0759522006846964,1226.2341669998132,5.13000413775444e-05,0.09751999983564019,,1232.250887000002,1232.250887000002,0.02550539979711175,0.11399869993329048,1.0,3.0243457998149097,,,,,,,,,1224.084433299955,1224.084433299955,,,,7408,Moral,2024-08-24_10h23.12.850,MoralCondition_v2,2022.2.5,29.99738422214667,
18,0,18,0,1,0,1,0,,,,,,,,,,,,,,,,,,,,,,,,,,,,,,,,,,,,,,,,,,,,,,,,,,,,1235.3341208999045,1235.3341208999045,0.010376399848610163,0.11419649980962276,4.0,6.438163799699396,,,,,,,,,,,,,,7408,Moral,2024-08-24_10h23.12.850,MoralCondition_v2,2022.2.5,29.99738422214667,
18,0,18,0,2,0,2,0,,,,,,,,,,,,,,,,,,,,,,,,,,,,,,,,,,,,,,,,,,,,,,,,,,,,1241.8007296998985,1241.8007296998985,0.007741800043731928,0.0978303998708725,2.0,3.157887399662286,,,,,,,,,,,,,,7408,Moral,2024-08-24_10h23.12.850,MoralCondition_v2,2022.2.5,29.99738422214667,
18,0,18,0,3,0,3,0,,,,,,,,,,,,,,,,,,,,,,,,,,,,,,,,,,,,,,,,,,,,,,,,,,,,1245.0174350999296,1245.0174350999296,0.009442700073122978,0.11425400013104081,5.0,3.5392030999064445,,,,,,,,,,,,,,7408,Moral,2024-08-24_10h23.12.850,MoralCondition_v2,2022.2.5,29.99738422214667,
18,0,18,0,4,0,4,0,,,,,,,,,,,,,,,,,,,,,,,,,,,,,,,,,,,,,,,,,,,,,,,,,,,,1248.6010888996534,1248.6010888996534,0.008219200186431408,0.11443630000576377,1.0,1.7739308001473546,,,,,,,,,,,,,,7408,Moral,2024-08-24_10h23.12.850,MoralCondition_v2,2022.2.5,29.99738422214667,
18,0,18,0,5,0,5,0,,,,,,,,,,,,,,,,,,,,,,,,,,,,,,,,,,,,,,,,,,,,,,,,,,,,1250.417386399582,1250.417386399582,0.00885740015655756,0.11423109984025359,6.0,1.872785100247711,,,,,,,,,,,,,,7408,Moral,2024-08-24_10h23.12.850,MoralCondition_v2,2022.2.5,29.99738422214667,
18,0,18,0,6,0,6,0,,,,,,,,,,,,,,,,,,,,,,,,,,,,,,,,,,,,,,,,,,,,,,,,,,,,1252.3172770999372,1252.3172770999372,0.006621100008487701,0.09904660005122423,5.0,3.2936461996287107,,,,,,,,,,,,,,7408,Moral,2024-08-24_10h23.12.850,MoralCondition_v2,2022.2.5,29.99738422214667,
18,0,18,0,,,,,,,,,,,,,,,,,,,,,,,,,,,,,,,,,,,,,,,,,,,,,,,,,,,,,,,,,,,,,,1255.650736299809,1255.650736299809,0.0007762000896036625,0.09922860004007816,2.0,2.9996682996861637,,,,,,,,7408,Moral,2024-08-24_10h23.12.850,MoralCondition_v2,2022.2.5,29.99738422214667,
19,0,19,0,0,0,0,0,,,,,,,,,,,,,,,,,,,,,1258.684253399726,0.0002490999177098274,0.0977012999355793,1264.7006820999086,6.014351699966937,1264.8840932999738,1264.8840932999738,0.08381089987233281,0.19771589990705252,6.030945799779147,1270.9842208996415,1270.9842208996415,1270.9842208996415,0.09212279971688986,0.1977576999925077,1276.6840023999102,1276.8839761996642,6.031001599971205,6.13093480002135,1282.8839892996475,12.03112809965387,1283.017270699609,1283.017270699609,0.031111799646168947,0.13093609968200326,up,1.1119692004285753,1284.1839675996453,4.840036854147911e-05,0.09772510034963489,,1290.2009132998064,1290.2009132998064,0.02485440019518137,0.11447850009426475,5.0,3.1573010003194213,,,,,,,1270.884024199564,1270.884024199564,1282.9839293998666,1282.9839293998666,,,,7408,Moral,2024-08-24_10h23.12.850,MoralCondition_v2,2022.2.5,29.99738422214667,
19,0,19,0,1,0,1,0,,,,,,,,,,,,,,,,,,,,,,,,,,,,,,,,,,,,,,,,,,,,,,,,,,,,1293.4173464998603,1293.4173464998603,0.007341799791902304,0.11411410011351109,5.0,3.2077689999714494,,,,,,,,,,,,,,7408,Moral,2024-08-24_10h23.12.850,MoralCondition_v2,2022.2.5,29.99738422214667,
19,0,19,0,2,0,2,0,,,,,,,,,,,,,,,,,,,,,,,,,,,,,,,,,,,,,,,,,,,,,,,,,,,,1296.667459699791,1296.667459699791,0.007886199746280909,0.11373779969289899,2.0,2.0069023999385536,,,,,,,,,,,,,,7408,Moral,2024-08-24_10h23.12.850,MoralCondition_v2,2022.2.5,29.99738422214667,
19,0,19,0,3,0,3,0,,,,,,,,,,,,,,,,,,,,,,,,,,,,,,,,,,,,,,,,,,,,,,,,,,,,1298.7173490999267,1298.7173490999267,0.009523000102490187,0.1142583996988833,1.0,1.5393353998661041,,,,,,,,,,,,,,7408,Moral,2024-08-24_10h23.12.850,MoralCondition_v2,2022.2.5,29.99738422214667,
19,0,19,0,4,0,4,0,,,,,,,,,,,,,,,,,,,,,,,,,,,,,,,,,,,,,,,,,,,,,,,,,,,,1300.2837931998074,1300.2837931998074,0.008346299640834332,0.0978116998448968,1.0,2.290382199920714,,,,,,,,,,,,,,7408,Moral,2024-08-24_10h23.12.850,MoralCondition_v2,2022.2.5,29.99738422214667,
19,0,19,0,5,0,5,0,,,,,,,,,,,,,,,,,,,,,,,,,,,,,,,,,,,,,,,,,,,,,,,,,,,,1302.634012399707,1302.634012399707,0.007574200164526701,0.11425590002909303,1.0,1.6408781995996833,,,,,,,,,,,,,,7408,Moral,2024-08-24_10h23.12.850,MoralCondition_v2,2022.2.5,29.99738422214667,
19,0,19,0,6,0,6,0,,,,,,,,,,,,,,,,,,,,,,,,,,,,,,,,,,,,,,,,,,,,,,,,,,,,1304.3006841996685,1304.3006841996685,0.008138699922710657,0.09728879993781447,1.0,1.3904951997101307,,,,,,,,,,,,,,7408,Moral,2024-08-24_10h23.12.850,MoralCondition_v2,2022.2.5,29.99738422214667,
19,0,19,0,,,,,,,,,,,,,,,,,,,,,,,,,,,,,,,,,,,,,,,,,,,,,,,,,,,,,,,,,,,,,,1305.7340168999508,1305.7340168999508,0.00111440010368824,0.09798940038308501,7.0,1.9647470000199974,,,,,,,,7408,Moral,2024-08-24_10h23.12.850,MoralCondition_v2,2022.2.5,29.99738422214667,
