loop.thisRepN,loop.thisTrialN,loop.thisN,loop.thisIndex,evaluate_all_emotions.thisRepN,evaluate_all_emotions.thisTrialN,evaluate_all_emotions.thisN,evaluate_all_emotions.thisIndex,sync_beep_1.started,p_port.started,p_port.stopped,sync_beep_1.stopped,sync_beep_2.started,sync_beep_2.stopped,sync_beep_3.started,sync_beep_3.stopped,sync_beep_4.started,sync_beep_4.stopped,baseline.started,p_port_2.started,p_port_2.stopped,baseline.stopped,p_port_3.started,p_port_3.stopped,Game_Start_Text.started,p_port_4.started,p_port_4.stopped,key_resp.started,key_resp.keys,key_resp.rt,fixation_cross.started,p_port_5.started,p_port_5.stopped,fixation_cross.stopped,p_port_6.started,player_image_intro.started,player_name_intro.started,p_port_7.started,p_port_7.stopped,p_port_8.started,player_image_offer.started,player_name_offer.started,proposed_split.started,p_port_9.started,p_port_9.stopped,proposed_split.stopped,accept_reject.started,p_port_15.started,p_port_15.stopped,accept_reject.stopped,p_port_10.started,player_image_offer.stopped,player_name_offer.stopped,arrow_instructions.started,offer_choice.started,p_port_11.started,p_port_11.stopped,offer_choice.keys,offer_choice.rt,Instructions_Affinity_Score.started,p_port_12.started,p_port_12.stopped,Emotion_Image.started,AffinityScore.started,p_port_13.started,p_port_13.stopped,AffinityScore.response,AffinityScore.rt,Instruction.started,Moral_Disgust_Score.started,p_port_14.started,p_port_14.stopped,Moral_Disgust_Score.response,Moral_Disgust_Score.rt,player_image_intro.stopped,player_name_intro.stopped,Instructions_Affinity_Score.stopped,p_port_6.stopped,p_port_8.stopped,p_port_10.stopped,participant,session,date,expName,psychopyVersion,frameRate,
,,,,,,,,16.42839721045457,0.0008001001551747322,0.10685440013185143,16.747434800025076,17.04754932965152,17.34728719992563,17.630445430008695,17.94739199988544,18.23045462970622,18.563909399788827,18.563909399788827,0.04017100017517805,0.14018729981034994,33.547170099802315,15.00676769996062,15.090084599796683,33.64744189986959,0.023839700035750866,0.12337859999388456,34.130599400028586,space,5.232507500331849,,,,,,,,,,,,,,,,,,,,,,,,,,,,,,,,,,,,,,,,,,,,,,,,,,,7451,Moral,2025-02-10_09h30.23.177,MoralCondition_v2,2022.2.5,29.95830101974062,
0,0,0,0,0,0,0,0,,,,,,,,,,,,,,,,,,,,,,,39.41393549973145,0.019338299985975027,0.11492899991571903,45.41394349979237,6.015000999905169,45.68065889971331,45.68065889971331,0.14412730000913143,0.2816067999228835,6.014952699653804,51.69735849974677,51.69735849974677,51.69735849974677,0.07289589988067746,0.19858139986172318,57.397278499789536,57.59726949967444,6.031646399758756,6.13179719960317,63.59727369993925,12.031626999843866,63.69742949958891,63.69742949958891,63.73058999981731,63.73058999981731,0.03195109963417053,0.13158049946650863,up,1.9681501002050936,65.74734629970044,4.439987242221832e-05,0.09767739987000823,71.78067849995568,71.78067849995568,0.027639499865472317,0.13110159989446402,3.0,8.187642199918628,,,,,,,,,,,,,7451,Moral,2025-02-10_09h30.23.177,MoralCondition_v2,2022.2.5,29.95830101974062,
0,0,0,0,1,0,1,0,,,,,,,,,,,,,,,,,,,,,,,,,,,,,,,,,,,,,,,,,,,,,,,,,,,,,,,80.01407509995624,80.01407509995624,0.009852600283920765,0.11468659993261099,3.0,5.205945999827236,,,,,,,,,,,,,7451,Moral,2025-02-10_09h30.23.177,MoralCondition_v2,2022.2.5,29.95830101974062,
0,0,0,0,2,0,2,0,,,,,,,,,,,,,,,,,,,,,,,,,,,,,,,,,,,,,,,,,,,,,,,,,,,,,,,85.26408089976758,85.26408089976758,0.01141069969162345,0.11456779995933175,3.0,4.604189100209624,,,,,,,,,,,,,7451,Moral,2025-02-10_09h30.23.177,MoralCondition_v2,2022.2.5,29.95830101974062,
0,0,0,0,3,0,3,0,,,,,,,,,,,,,,,,,,,,,,,,,,,,,,,,,,,,,,,,,,,,,,,,,,,,,,,89.89742129994556,89.89742129994556,0.00908120023086667,0.09914090018719435,1.0,2.191107999999076,,,,,,,,,,,,,7451,Moral,2025-02-10_09h30.23.177,MoralCondition_v2,2022.2.5,29.95830101974062,
0,0,0,0,4,0,4,0,,,,,,,,,,,,,,,,,,,,,,,,,,,,,,,,,,,,,,,,,,,,,,,,,,,,,,,92.14723119977862,92.14723119977862,0.010627900250256062,0.11407450027763844,4.0,2.537620899733156,,,,,,,,,,,,,7451,Moral,2025-02-10_09h30.23.177,MoralCondition_v2,2022.2.5,29.95830101974062,
0,0,0,0,5,0,5,0,,,,,,,,,,,,,,,,,,,,,,,,,,,,,,,,,,,,,,,,,,,,,,,,,,,,,,,94.73072819970548,94.73072819970548,0.009572099894285202,0.11474579991772771,2.0,1.9726901999674737,,,,,,,,,,,,,7451,Moral,2025-02-10_09h30.23.177,MoralCondition_v2,2022.2.5,29.95830101974062,
0,0,0,0,6,0,6,0,,,,,,,,,,,,,,,,,,,,,,,,,,,,,,,,,,,,,,,,,,,,,,,,,,,,,,,96.7474346999079,96.7474346999079,0.009069700259715319,0.11437859991565347,1.0,2.3064624997787178,,,,,,,,,,,,,7451,Moral,2025-02-10_09h30.23.177,MoralCondition_v2,2022.2.5,29.95830101974062,
0,0,0,0,,,,,,,,,,,,,,,,,,,,,,,,,,,,,,,,,,,,,,,,,,,,,,,,,,,,,,,,,,,,,,,,,99.08068499993533,99.08068499993533,0.0007536998018622398,0.09929959988221526,4.0,2.6662036003544927,,,,,,,7451,Moral,2025-02-10_09h30.23.177,MoralCondition_v2,2022.2.5,29.95830101974062,
1,0,1,0,0,0,0,0,,,,,,,,,,,,,,,,,,,,,,,101.78081849962473,0.0002882997505366802,0.09799919975921512,107.79728089971468,6.014387299772352,107.96398779982701,107.96398779982701,0.07746489997953176,0.18144680000841618,6.014450499787927,114.04718599980697,114.04718599980697,114.04718599980697,0.06816719984635711,0.16449879948049784,119.7474205000326,119.98059529997408,6.0310361995361745,6.131216099485755,125.98056019982323,12.03101349947974,126.04728419985622,126.04728419985622,126.11405989993364,126.11405989993364,0.031249499414116144,0.13107609981670976,up,1.488795899786055,127.6639826996252,5.699973553419113e-05,0.09789309976622462,133.6803993997164,133.6803993997164,0.025665299966931343,0.11472299974411726,5.0,3.3231736002489924,,,,,,,113.96380539983511,113.96380539983511,,,,,7451,Moral,2025-02-10_09h30.23.177,MoralCondition_v2,2022.2.5,29.95830101974062,
1,0,1,0,1,0,1,0,,,,,,,,,,,,,,,,,,,,,,,,,,,,,,,,,,,,,,,,,,,,,,,,,,,,,,,137.06416529975832,137.06416529975832,0.007366100326180458,0.11402099998667836,4.0,3.907696899957955,,,,,,,,,,,,,7451,Moral,2025-02-10_09h30.23.177,MoralCondition_v2,2022.2.5,29.95830101974062,
1,0,1,0,2,0,2,0,,,,,,,,,,,,,,,,,,,,,,,,,,,,,,,,,,,,,,,,,,,,,,,,,,,,,,,140.99728959985077,140.99728959985077,0.006716399919241667,0.09934149961918592,4.0,2.1934223999269307,,,,,,,,,,,,,7451,Moral,2025-02-10_09h30.23.177,MoralCondition_v2,2022.2.5,29.95830101974062,
1,0,1,0,3,0,3,0,,,,,,,,,,,,,,,,,,,,,,,,,,,,,,,,,,,,,,,,,,,,,,,,,,,,,,,143.23067789990455,143.23067789990455,0.006340800318866968,0.09917689999565482,5.0,2.3273891997523606,,,,,,,,,,,,,7451,Moral,2025-02-10_09h30.23.177,MoralCondition_v2,2022.2.5,29.95830101974062,
1,0,1,0,4,0,4,0,,,,,,,,,,,,,,,,,,,,,,,,,,,,,,,,,,,,,,,,,,,,,,,,,,,,,,,145.59732949966565,145.59732949966565,0.007613399997353554,0.0976451002061367,3.0,2.1243467000313103,,,,,,,,,,,,,7451,Moral,2025-02-10_09h30.23.177,MoralCondition_v2,2022.2.5,29.95830101974062,
1,0,1,0,5,0,5,0,,,,,,,,,,,,,,,,,,,,,,,,,,,,,,,,,,,,,,,,,,,,,,,,,,,,,,,147.76403449987993,147.76403449987993,0.007197499740868807,0.09791569970548153,3.0,3.558728300035,,,,,,,,,,,,,7451,Moral,2025-02-10_09h30.23.177,MoralCondition_v2,2022.2.5,29.95830101974062,
1,0,1,0,6,0,6,0,,,,,,,,,,,,,,,,,,,,,,,,,,,,,,,,,,,,,,,,,,,,,,,,,,,,,,,151.3639028999023,151.3639028999023,0.007616300135850906,0.09761880012229085,4.0,1.9912772001698613,,,,,,,,,,,,,7451,Moral,2025-02-10_09h30.23.177,MoralCondition_v2,2022.2.5,29.95830101974062,
1,0,1,0,,,,,,,,,,,,,,,,,,,,,,,,,,,,,,,,,,,,,,,,,,,,,,,,,,,,,,,,,,,,,,,,,153.3972454997711,153.3972454997711,0.0016886000521481037,0.09835310000926256,3.0,4.7644556001760066,,,,,,,7451,Moral,2025-02-10_09h30.23.177,MoralCondition_v2,2022.2.5,29.95830101974062,
2,0,2,0,0,0,0,0,,,,,,,,,,,,,,,,,,,,,,,158.19763309974223,0.0002978998236358166,0.09787820000201464,164.21395789971575,6.01478789979592,164.46424110000953,164.46424110000953,0.15112729975953698,0.2648898996412754,6.031327299773693,170.49731949996203,170.49731949996203,170.49731949996203,0.08637719973921776,0.19822069955989718,176.19730479968712,176.39732400001958,6.031305499840528,6.131107999943197,182.39728369982913,12.031320299953222,182.49740009987727,182.49740009987727,182.530512499623,182.530512499623,0.031481499783694744,0.13116899970918894,up,1.6002197000198066,184.18058559997007,4.1800085455179214e-05,0.0981111996807158,190.21385109983385,190.21385109983385,0.026047099847346544,0.1314338999800384,3.0,4.006240699905902,,,,,,,,,,,,,7451,Moral,2025-02-10_09h30.23.177,MoralCondition_v2,2022.2.5,29.95830101974062,
2,0,2,0,1,0,1,0,,,,,,,,,,,,,,,,,,,,,,,,,,,,,,,,,,,,,,,,,,,,,,,,,,,,,,,194.247327900026,194.247327900026,0.00670179957523942,0.09836489986628294,3.0,1.259488900192082,,,,,,,,,,,,,7451,Moral,2025-02-10_09h30.23.177,MoralCondition_v2,2022.2.5,29.95830101974062,
2,0,2,0,2,0,2,0,,,,,,,,,,,,,,,,,,,,,,,,,,,,,,,,,,,,,,,,,,,,,,,,,,,,,,,195.54723259992898,195.54723259992898,0.007331599947065115,0.098346299957484,4.0,3.7585611999966204,,,,,,,,,,,,,7451,Moral,2025-02-10_09h30.23.177,MoralCondition_v2,2022.2.5,29.95830101974062,
2,0,2,0,3,0,3,0,,,,,,,,,,,,,,,,,,,,,,,,,,,,,,,,,,,,,,,,,,,,,,,,,,,,,,,199.34710290003568,199.34710290003568,0.006248900201171637,0.09933080011978745,2.0,1.7940732999704778,,,,,,,,,,,,,7451,Moral,2025-02-10_09h30.23.177,MoralCondition_v2,2022.2.5,29.95830101974062,
2,0,2,0,4,0,4,0,,,,,,,,,,,,,,,,,,,,,,,,,,,,,,,,,,,,,,,,,,,,,,,,,,,,,,,201.18077969970182,201.18077969970182,0.007617199793457985,0.09794839983806014,3.0,2.5581048000603914,,,,,,,,,,,,,7451,Moral,2025-02-10_09h30.23.177,MoralCondition_v2,2022.2.5,29.95830101974062,
2,0,2,0,5,0,5,0,,,,,,,,,,,,,,,,,,,,,,,,,,,,,,,,,,,,,,,,,,,,,,,,,,,,,,,203.79756289999932,203.79756289999932,0.008083400316536427,0.11465700017288327,4.0,1.540820199996233,,,,,,,,,,,,,7451,Moral,2025-02-10_09h30.23.177,MoralCondition_v2,2022.2.5,29.95830101974062,
2,0,2,0,6,0,6,0,,,,,,,,,,,,,,,,,,,,,,,,,,,,,,,,,,,,,,,,,,,,,,,,,,,,,,,205.38093779981136,205.38093779981136,0.009045499842613935,0.11435920000076294,2.0,2.1397047000937164,,,,,,,,,,,,,7451,Moral,2025-02-10_09h30.23.177,MoralCondition_v2,2022.2.5,29.95830101974062,
2,0,2,0,,,,,,,,,,,,,,,,,,,,,,,,,,,,,,,,,,,,,,,,,,,,,,,,,,,,,,,,,,,,,,,,,207.54741539992392,207.54741539992392,0.0017221001908183098,0.09800210036337376,5.0,3.296774399932474,,,,,,,7451,Moral,2025-02-10_09h30.23.177,MoralCondition_v2,2022.2.5,29.95830101974062,
3,0,3,0,0,0,0,0,,,,,,,,,,,,,,,,,,,,,,,210.88094539986923,0.00027690036222338676,0.09777240036055446,216.88063509995118,6.031088400166482,217.09717709990218,217.09717709990218,0.10765520017594099,0.21463390020653605,6.014391100034118,223.1636993996799,223.1636993996799,223.1636993996799,0.07942119985818863,0.1810669000260532,228.86396139999852,229.06435249978676,6.014810499735177,6.1148123000748456,235.0640103998594,12.014469100162387,235.16386199975386,235.16386199975386,235.19726259959862,235.19726259959862,0.014456700067967176,0.11439060000702739,up,1.2702619000338018,236.53064929973334,4.2499974370002747e-05,0.09807459963485599,242.54747510002926,242.54747510002926,0.008215299807488918,0.11481279972940683,3.0,4.540961700025946,,,,,,,,,242.54747510002926,,,,7451,Moral,2025-02-10_09h30.23.177,MoralCondition_v2,2022.2.5,29.95830101974062,
3,0,3,0,1,0,1,0,,,,,,,,,,,,,,,,,,,,,,,,,,,,,,,,,,,,,,,,,,,,,,,,,,,,,,,247.11398429982364,247.11398429982364,0.008850899990648031,0.09908529976382852,2.0,2.1245260001160204,,,,,,,,,,,,,7451,Moral,2025-02-10_09h30.23.177,MoralCondition_v2,2022.2.5,29.95830101974062,
3,0,3,0,2,0,2,0,,,,,,,,,,,,,,,,,,,,,,,,,,,,,,,,,,,,,,,,,,,,,,,,,,,,,,,249.28068259963766,249.28068259963766,0.007402900140732527,0.09792099986225367,2.0,1.058549600187689,,,,,,,,,,,,,7451,Moral,2025-02-10_09h30.23.177,MoralCondition_v2,2022.2.5,29.95830101974062,
3,0,3,0,3,0,3,0,,,,,,,,,,,,,,,,,,,,,,,,,,,,,,,,,,,,,,,,,,,,,,,,,,,,,,,250.39742049993947,250.39742049993947,0.010877600405365229,0.11439900007098913,2.0,1.2711436999961734,,,,,,,,,,,,,7451,Moral,2025-02-10_09h30.23.177,MoralCondition_v2,2022.2.5,29.95830101974062,
3,0,3,0,4,0,4,0,,,,,,,,,,,,,,,,,,,,,,,,,,,,,,,,,,,,,,,,,,,,,,,,,,,,,,,251.6971283997409,251.6971283997409,0.006608299911022186,0.09889109991490841,3.0,2.493318900000304,,,,,,,,,,,,,7451,Moral,2025-02-10_09h30.23.177,MoralCondition_v2,2022.2.5,29.95830101974062,
3,0,3,0,5,0,5,0,,,,,,,,,,,,,,,,,,,,,,,,,,,,,,,,,,,,,,,,,,,,,,,,,,,,,,,254.2305627996102,254.2305627996102,0.006873699836432934,0.09916030010208488,4.0,1.7265773001126945,,,,,,,,,,,,,7451,Moral,2025-02-10_09h30.23.177,MoralCondition_v2,2022.2.5,29.95830101974062,
3,0,3,0,6,0,6,0,,,,,,,,,,,,,,,,,,,,,,,,,,,,,,,,,,,,,,,,,,,,,,,,,,,,,,,255.99731809971854,255.99731809971854,0.007486000191420317,0.09829739993438125,4.0,1.1936042997986078,,,,,,,,,,,,,7451,Moral,2025-02-10_09h30.23.177,MoralCondition_v2,2022.2.5,29.95830101974062,
3,0,3,0,,,,,,,,,,,,,,,,,,,,,,,,,,,,,,,,,,,,,,,,,,,,,,,,,,,,,,,,,,,,,,,,,257.23057789960876,257.23057789960876,0.0009682001546025276,0.09862470021471381,5.0,3.3654326000250876,,,,,,,7451,Moral,2025-02-10_09h30.23.177,MoralCondition_v2,2022.2.5,29.95830101974062,
4,0,4,0,0,0,0,0,,,,,,,,,,,,,,,,,,,,,,,260.63082839967683,0.00039219995960593224,0.09719339990988374,266.6306113996543,6.030514100100845,266.8308297996409,266.8308297996409,0.08138869982212782,0.197163799777627,6.030381899792701,272.9308138997294,272.9308138997294,272.9308138997294,0.0843728999607265,0.19722239999100566,278.63091279985383,278.83071210002527,6.0305809997953475,6.130393899977207,284.83062919974327,12.030475999694318,284.93059569969773,284.93059569969773,284.96392360003665,284.96392360003665,0.03059599967673421,0.130405199714005,up,1.054947099648416,286.06397519959137,4.83999028801918e-05,0.09812509967014194,292.0808510999195,292.0808510999195,0.00886439997702837,0.11475759977474809,2.0,4.8068678001873195,,,,,,,272.83073679963127,272.83073679963127,292.0808510999195,,,,7451,Moral,2025-02-10_09h30.23.177,MoralCondition_v2,2022.2.5,29.95830101974062,
4,0,4,0,1,0,1,0,,,,,,,,,,,,,,,,,,,,,,,,,,,,,,,,,,,,,,,,,,,,,,,,,,,,,,,296.9306046999991,296.9306046999991,0.009425399824976921,0.11599919991567731,2.0,3.4740180000662804,,,,,,,,,,,,,7451,Moral,2025-02-10_09h30.23.177,MoralCondition_v2,2022.2.5,29.95830101974062,
4,0,4,0,2,0,2,0,,,,,,,,,,,,,,,,,,,,,,,,,,,,,,,,,,,,,,,,,,,,,,,,,,,,,,,300.44758159993216,300.44758159993216,0.008508999831974506,0.11402780003845692,4.0,1.6063359999097884,,,,,,,,,,,,,7451,Moral,2025-02-10_09h30.23.177,MoralCondition_v2,2022.2.5,29.95830101974062,
4,0,4,0,3,0,3,0,,,,,,,,,,,,,,,,,,,,,,,,,,,,,,,,,,,,,,,,,,,,,,,,,,,,,,,302.08050409983844,302.08050409983844,0.007704600226134062,0.09780720015987754,4.0,1.3578662001527846,,,,,,,,,,,,,7451,Moral,2025-02-10_09h30.23.177,MoralCondition_v2,2022.2.5,29.95830101974062,
4,0,4,0,4,0,4,0,,,,,,,,,,,,,,,,,,,,,,,,,,,,,,,,,,,,,,,,,,,,,,,,,,,,,,,303.48069209977984,303.48069209977984,0.006682100240141153,0.09906060015782714,2.0,3.3601871002465487,,,,,,,,,,,,,7451,Moral,2025-02-10_09h30.23.177,MoralCondition_v2,2022.2.5,29.95830101974062,
4,0,4,0,5,0,5,0,,,,,,,,,,,,,,,,,,,,,,,,,,,,,,,,,,,,,,,,,,,,,,,,,,,,,,,306.8975947997533,306.8975947997533,0.00815129978582263,0.1144864996895194,3.0,3.708948700223118,,,,,,,,,,,,,7451,Moral,2025-02-10_09h30.23.177,MoralCondition_v2,2022.2.5,29.95830101974062,
4,0,4,0,6,0,6,0,,,,,,,,,,,,,,,,,,,,,,,,,,,,,,,,,,,,,,,,,,,,,,,,,,,,,,,310.63059609988704,310.63059609988704,0.007431200239807367,0.09855919983237982,3.0,2.192126899957657,,,,,,,,,,,,,7451,Moral,2025-02-10_09h30.23.177,MoralCondition_v2,2022.2.5,29.95830101974062,
4,0,4,0,,,,,,,,,,,,,,,,,,,,,,,,,,,,,,,,,,,,,,,,,,,,,,,,,,,,,,,,,,,,,,,,,312.8642539996654,312.8642539996654,0.001348700374364853,0.0976303000934422,6.0,2.2307795002125204,,,,,,,7451,Moral,2025-02-10_09h30.23.177,MoralCondition_v2,2022.2.5,29.95830101974062,
5,0,5,0,0,0,0,0,,,,,,,,,,,,,,,,,,,,,,,315.13079189974815,0.00010999990627169609,0.09916990017518401,321.1305972998962,5.999231200199574,321.2972873998806,321.2972873998806,0.05660009989514947,0.16592400008812547,5.999145700130612,327.39744199998677,327.39744199998677,327.39744199998677,0.051804499700665474,0.16592950001358986,333.09734850004315,333.3305460996926,5.999190399888903,6.099045899696648,339.3305836999789,11.999206199776381,339.397176399827,339.397176399827,339.43067689985037,339.43067689985037,-0.00013280007988214493,0.09917869977653027,up,1.1011406001634896,340.597331199795,4.930002614855766e-05,0.11459050001576543,346.63063919963315,346.63063919963315,0.02804010035470128,0.13132920023053885,2.0,7.471216300036758,,,,,,,327.29735079966486,327.29735079966486,,6.099038300104439,6.099233199842274,12.099038499873132,7451,Moral,2025-02-10_09h30.23.177,MoralCondition_v2,2022.2.5,29.95830101974062,
5,0,5,0,1,0,1,0,,,,,,,,,,,,,,,,,,,,,,,,,,,,,,,,,,,,,,,,,,,,,,,,,,,,,,,354.13044779980555,354.13044779980555,0.007551899645477533,0.09795559989288449,5.0,4.457740200217813,,,,,,,,,,,,,7451,Moral,2025-02-10_09h30.23.177,MoralCondition_v2,2022.2.5,29.95830101974062,
5,0,5,0,2,0,2,0,,,,,,,,,,,,,,,,,,,,,,,,,,,,,,,,,,,,,,,,,,,,,,,,,,,,,,,358.6304599000141,358.6304599000141,0.007052999921143055,0.09848809987306595,4.0,1.2257901998236775,,,,,,,,,,,,,7451,Moral,2025-02-10_09h30.23.177,MoralCondition_v2,2022.2.5,29.95830101974062,
5,0,5,0,3,0,3,0,,,,,,,,,,,,,,,,,,,,,,,,,,,,,,,,,,,,,,,,,,,,,,,,,,,,,,,359.89709079964086,359.89709079964086,0.006733600050210953,0.09919600002467632,4.0,1.9269089000299573,,,,,,,,,,,,,7451,Moral,2025-02-10_09h30.23.177,MoralCondition_v2,2022.2.5,29.95830101974062,
5,0,5,0,4,0,4,0,,,,,,,,,,,,,,,,,,,,,,,,,,,,,,,,,,,,,,,,,,,,,,,,,,,,,,,361.8639340996742,361.8639340996742,0.007114199921488762,0.09941079979762435,2.0,1.726352000143379,,,,,,,,,,,,,7451,Moral,2025-02-10_09h30.23.177,MoralCondition_v2,2022.2.5,29.95830101974062,
5,0,5,0,5,0,5,0,,,,,,,,,,,,,,,,,,,,,,,,,,,,,,,,,,,,,,,,,,,,,,,,,,,,,,,363.63053969992325,363.63053969992325,0.007531899958848953,0.09791320003569126,2.0,0.9581645997241139,,,,,,,,,,,,,7451,Moral,2025-02-10_09h30.23.177,MoralCondition_v2,2022.2.5,29.95830101974062,
5,0,5,0,6,0,6,0,,,,,,,,,,,,,,,,,,,,,,,,,,,,,,,,,,,,,,,,,,,,,,,,,,,,,,,364.6305972998962,364.6305972998962,0.007134599611163139,0.09845759999006987,3.0,1.8255634000524879,,,,,,,,,,,,,7451,Moral,2025-02-10_09h30.23.177,MoralCondition_v2,2022.2.5,29.95830101974062,
5,0,5,0,,,,,,,,,,,,,,,,,,,,,,,,,,,,,,,,,,,,,,,,,,,,,,,,,,,,,,,,,,,,,,,,,366.4973517996259,366.4973517996259,0.001542000100016594,0.09746570000424981,6.0,1.6641028998419642,,,,,,,7451,Moral,2025-02-10_09h30.23.177,MoralCondition_v2,2022.2.5,29.95830101974062,
6,0,6,0,0,0,0,0,,,,,,,,,,,,,,,,,,,,,,,368.1971395998262,0.00032510003075003624,0.0978136002086103,374.19717910001054,6.031176200136542,374.39716429961845,374.39716429961845,0.08383949985727668,0.1977276001125574,6.031270199920982,380.4636370996013,380.4636370996013,380.4636370996013,0.06428069993853569,0.16437319992110133,386.16400899970904,386.3972298000008,6.031223999802023,6.13103809999302,392.39716419996694,12.031188999768347,392.4638596996665,392.4638596996665,392.5304908999242,392.5304908999242,0.031410399824380875,0.13102999981492758,up,1.4087232002057135,393.99715119972825,6.370013579726219e-05,0.09782990021631122,400.0138518996537,400.0138518996537,0.009468200150877237,0.11466520000249147,4.0,2.739416299853474,,,,,,,380.38043529959396,380.38043529959396,400.0138518996537,,,,7451,Moral,2025-02-10_09h30.23.177,MoralCondition_v2,2022.2.5,29.95830101974062,
6,0,6,0,1,0,1,0,,,,,,,,,,,,,,,,,,,,,,,,,,,,,,,,,,,,,,,,,,,,,,,,,,,,,,,402.79715859983116,402.79715859983116,0.009062299970537424,0.11498870002105832,4.0,2.773258699569851,,,,,,,,,,,,,7451,Moral,2025-02-10_09h30.23.177,MoralCondition_v2,2022.2.5,29.95830101974062,
6,0,6,0,2,0,2,0,,,,,,,,,,,,,,,,,,,,,,,,,,,,,,,,,,,,,,,,,,,,,,,,,,,,,,,405.5969666996971,405.5969666996971,0.006602500099688768,0.09898209990933537,4.0,1.3267880999483168,,,,,,,,,,,,,7451,Moral,2025-02-10_09h30.23.177,MoralCondition_v2,2022.2.5,29.95830101974062,
6,0,6,0,3,0,3,0,,,,,,,,,,,,,,,,,,,,,,,,,,,,,,,,,,,,,,,,,,,,,,,,,,,,,,,406.96380269993097,406.96380269993097,0.008656799793243408,0.09731750003993511,2.0,2.62410969985649,,,,,,,,,,,,,7451,Moral,2025-02-10_09h30.23.177,MoralCondition_v2,2022.2.5,29.95830101974062,
6,0,6,0,4,0,4,0,,,,,,,,,,,,,,,,,,,,,,,,,,,,,,,,,,,,,,,,,,,,,,,,,,,,,,,409.6305029997602,409.6305029997602,0.007319099735468626,0.09858349990099669,2.0,0.8254959001205862,,,,,,,,,,,,,7451,Moral,2025-02-10_09h30.23.177,MoralCondition_v2,2022.2.5,29.95830101974062,
6,0,6,0,5,0,5,0,,,,,,,,,,,,,,,,,,,,,,,,,,,,,,,,,,,,,,,,,,,,,,,,,,,,,,,410.5138228996657,410.5138228996657,0.007528599817305803,0.11396879982203245,2.0,0.9742728997953236,,,,,,,,,,,,,7451,Moral,2025-02-10_09h30.23.177,MoralCondition_v2,2022.2.5,29.95830101974062,
6,0,6,0,6,0,6,0,,,,,,,,,,,,,,,,,,,,,,,,,,,,,,,,,,,,,,,,,,,,,,,,,,,,,,,411.5137753998861,411.5137753998861,0.00701160030439496,0.0991559000685811,2.0,1.9935060003772378,,,,,,,,,,,,,7451,Moral,2025-02-10_09h30.23.177,MoralCondition_v2,2022.2.5,29.95830101974062,
6,0,6,0,,,,,,,,,,,,,,,,,,,,,,,,,,,,,,,,,,,,,,,,,,,,,,,,,,,,,,,,,,,,,,,,,413.54706889996305,413.54706889996305,0.0006812000647187233,0.09941920032724738,6.0,2.066352800000459,,,,,,,7451,Moral,2025-02-10_09h30.23.177,MoralCondition_v2,2022.2.5,29.95830101974062,
7,0,7,0,0,0,0,0,,,,,,,,,,,,,,,,,,,,,,,415.6476648999378,0.00015070009976625443,0.09926150040701032,421.66380879981443,6.015801600180566,421.8303369996138,421.8303369996138,0.07305940007790923,0.18267530016601086,6.015770100057125,427.93060499988496,427.93060499988496,427.93060499988496,0.06977970013394952,0.18250230001285672,433.6304334998131,433.8304413999431,6.015845399815589,6.115714800078422,439.83039359981194,12.01584570016712,439.9304208997637,439.9304208997637,439.96377159981057,439.96377159981057,0.015964800026267767,0.11558749992400408,up,1.5433664000593126,441.5472774999216,4.119984805583954e-05,0.09727409994229674,447.58040179964155,447.58040179964155,0.026596599724143744,0.13051249971613288,5.0,3.105049700010568,,,,,,,427.83046009996906,427.83046009996906,,,,,7451,Moral,2025-02-10_09h30.23.177,MoralCondition_v2,2022.2.5,29.95830101974062,
7,0,7,0,1,0,1,0,,,,,,,,,,,,,,,,,,,,,,,,,,,,,,,,,,,,,,,,,,,,,,,,,,,,,,,450.7136548999697,450.7136548999697,0.007320200093090534,0.0976685001514852,2.0,3.0581775000318885,,,,,,,,,,,,,7451,Moral,2025-02-10_09h30.23.177,MoralCondition_v2,2022.2.5,29.95830101974062,
7,0,7,0,2,0,2,0,,,,,,,,,,,,,,,,,,,,,,,,,,,,,,,,,,,,,,,,,,,,,,,,,,,,,,,453.81361029995605,453.81361029995605,0.008641399908810854,0.0992417000234127,6.0,3.4252925999462605,,,,,,,,,,,,,7451,Moral,2025-02-10_09h30.23.177,MoralCondition_v2,2022.2.5,29.95830101974062,
7,0,7,0,3,0,3,0,,,,,,,,,,,,,,,,,,,,,,,,,,,,,,,,,,,,,,,,,,,,,,,,,,,,,,,457.2803240995854,457.2803240995854,0.006485799793154001,0.09943189984187484,4.0,1.8605638002045453,,,,,,,,,,,,,7451,Moral,2025-02-10_09h30.23.177,MoralCondition_v2,2022.2.5,29.95830101974062,
7,0,7,0,4,0,4,0,,,,,,,,,,,,,,,,,,,,,,,,,,,,,,,,,,,,,,,,,,,,,,,,,,,,,,,459.19710879959166,459.19710879959166,0.007785700261592865,0.11433200025931001,4.0,1.2074373001232743,,,,,,,,,,,,,7451,Moral,2025-02-10_09h30.23.177,MoralCondition_v2,2022.2.5,29.95830101974062,
7,0,7,0,5,0,5,0,,,,,,,,,,,,,,,,,,,,,,,,,,,,,,,,,,,,,,,,,,,,,,,,,,,,,,,460.43018459994346,460.43018459994346,0.006696399766951799,0.0993474000133574,2.0,2.76074910024181,,,,,,,,,,,,,7451,Moral,2025-02-10_09h30.23.177,MoralCondition_v2,2022.2.5,29.95830101974062,
7,0,7,0,6,0,6,0,,,,,,,,,,,,,,,,,,,,,,,,,,,,,,,,,,,,,,,,,,,,,,,,,,,,,,,463.23043909994885,463.23043909994885,0.00764299975708127,0.09819329995661974,5.0,5.957904899958521,,,,,,,,,,,,,7451,Moral,2025-02-10_09h30.23.177,MoralCondition_v2,2022.2.5,29.95830101974062,
7,0,7,0,,,,,,,,,,,,,,,,,,,,,,,,,,,,,,,,,,,,,,,,,,,,,,,,,,,,,,,,,,,,,,,,,469.23031829996035,469.23031829996035,0.0007262001745402813,0.09913300024345517,3.0,3.999852600041777,,,,,,,7451,Moral,2025-02-10_09h30.23.177,MoralCondition_v2,2022.2.5,29.95830101974062,
8,0,8,0,0,0,0,0,,,,,,,,,,,,,,,,,,,,,,,473.2640575999394,0.0001408001407980919,0.09884380036965013,479.24696129979566,6.015648799948394,479.48022949974984,479.48022949974984,0.10422029998153448,0.2156797000207007,6.015680199954659,485.5470513999462,485.5470513999462,485.5470513999462,0.07808020012453198,0.18229269981384277,491.2470031999983,491.44699979992583,6.015693599823862,6.116006599739194,497.4469741997309,12.015661700163037,497.546934499871,497.546934499871,497.58028179965913,497.58028179965913,0.015948799904435873,0.11558050010353327,up,2.67889320012182,500.3135371999815,1.2599863111972809e-05,0.09942690003663301,506.34733959985897,506.34733959985897,0.027397899888455868,0.13290640013292432,5.0,3.473122699651867,,,,,,,,,,,,,7451,Moral,2025-02-10_09h30.23.177,MoralCondition_v2,2022.2.5,29.95830101974062,
8,0,8,0,1,0,1,0,,,,,,,,,,,,,,,,,,,,,,,,,,,,,,,,,,,,,,,,,,,,,,,,,,,,,,,509.86368469987065,509.86368469987065,0.009200700093060732,0.11431889981031418,5.0,1.5726564000360668,,,,,,,,,,,,,7451,Moral,2025-02-10_09h30.23.177,MoralCondition_v2,2022.2.5,29.95830101974062,
8,0,8,0,2,0,2,0,,,,,,,,,,,,,,,,,,,,,,,,,,,,,,,,,,,,,,,,,,,,,,,,,,,,,,,511.4638127000071,511.4638127000071,0.006553300190716982,0.09917510021477938,4.0,2.294076600112021,,,,,,,,,,,,,7451,Moral,2025-02-10_09h30.23.177,MoralCondition_v2,2022.2.5,29.95830101974062,
8,0,8,0,3,0,3,0,,,,,,,,,,,,,,,,,,,,,,,,,,,,,,,,,,,,,,,,,,,,,,,,,,,,,,,513.7969380998984,513.7969380998984,0.00637929979711771,0.0993173997849226,2.0,1.9939128998667002,,,,,,,,,,,,,7451,Moral,2025-02-10_09h30.23.177,MoralCondition_v2,2022.2.5,29.95830101974062,
8,0,8,0,4,0,4,0,,,,,,,,,,,,,,,,,,,,,,,,,,,,,,,,,,,,,,,,,,,,,,,,,,,,,,,515.8470916999504,515.8470916999504,0.006619499996304512,0.11307029984891415,2.0,0.8076716000214219,,,,,,,,,,,,,7451,Moral,2025-02-10_09h30.23.177,MoralCondition_v2,2022.2.5,29.95830101974062,
8,0,8,0,5,0,5,0,,,,,,,,,,,,,,,,,,,,,,,,,,,,,,,,,,,,,,,,,,,,,,,,,,,,,,,516.6803327999078,516.6803327999078,0.006473000161349773,0.09902130020782351,2.0,1.7268142998218536,,,,,,,,,,,,,7451,Moral,2025-02-10_09h30.23.177,MoralCondition_v2,2022.2.5,29.95830101974062,
8,0,8,0,6,0,6,0,,,,,,,,,,,,,,,,,,,,,,,,,,,,,,,,,,,,,,,,,,,,,,,,,,,,,,,518.4470278997906,518.4470278997906,0.007301999721676111,0.0975702996365726,2.0,0.7914395001716912,,,,,,,,,,,,,7451,Moral,2025-02-10_09h30.23.177,MoralCondition_v2,2022.2.5,29.95830101974062,
8,0,8,0,,,,,,,,,,,,,,,,,,,,,,,,,,,,,,,,,,,,,,,,,,,,,,,,,,,,,,,,,,,,,,,,,519.2805180000141,519.2805180000141,0.0012429999187588692,0.09844379965215921,6.0,2.298191100358963,,,,,,,7451,Moral,2025-02-10_09h30.23.177,MoralCondition_v2,2022.2.5,29.95830101974062,
9,0,9,0,0,0,0,0,,,,,,,,,,,,,,,,,,,,,,,521.6139150997624,0.0003240997903048992,0.09751270012930036,527.5967335999012,6.014113300014287,527.7635785997845,527.7635785997845,0.04839080013334751,0.1478248001076281,6.014210499823093,533.8802753998898,533.8802753998898,533.8802753998898,0.06905919965356588,0.16462429985404015,539.5802106996998,539.8135506999679,6.031039800029248,6.131012499798089,545.8135279999115,12.030927799642086,545.8801523000002,545.8801523000002,545.946829199791,545.946829199791,0.031010099686682224,0.1308485995978117,up,1.8004478001967072,547.8135347999632,4.5600347220897675e-05,0.09786610025912523,553.8134016999975,553.8134016999975,0.006758099887520075,0.097917300183326,5.0,5.558716199826449,,,,,,,533.7635426996276,533.7635426996276,553.8134016999975,6.097349899820983,,,7451,Moral,2025-02-10_09h30.23.177,MoralCondition_v2,2022.2.5,29.95830101974062,
9,0,9,0,1,0,1,0,,,,,,,,,,,,,,,,,,,,,,,,,,,,,,,,,,,,,,,,,,,,,,,,,,,,,,,559.413507799618,559.413507799618,0.007163700181990862,0.09933520015329123,5.0,1.1265395004302263,,,,,,,,,,,,,7451,Moral,2025-02-10_09h30.23.177,MoralCondition_v2,2022.2.5,29.95830101974062,
9,0,9,0,2,0,2,0,,,,,,,,,,,,,,,,,,,,,,,,,,,,,,,,,,,,,,,,,,,,,,,,,,,,,,,560.580152799841,560.580152799841,0.007708299905061722,0.0983361997641623,2.0,2.292063099797815,,,,,,,,,,,,,7451,Moral,2025-02-10_09h30.23.177,MoralCondition_v2,2022.2.5,29.95830101974062,
9,0,9,0,3,0,3,0,,,,,,,,,,,,,,,,,,,,,,,,,,,,,,,,,,,,,,,,,,,,,,,,,,,,,,,562.9134847996756,562.9134847996756,0.006697699893265963,0.09927119966596365,6.0,2.2602661000564694,,,,,,,,,,,,,7451,Moral,2025-02-10_09h30.23.177,MoralCondition_v2,2022.2.5,29.95830101974062,
9,0,9,0,4,0,4,0,,,,,,,,,,,,,,,,,,,,,,,,,,,,,,,,,,,,,,,,,,,,,,,,,,,,,,,565.2134968996979,565.2134968996979,0.00677089998498559,0.09926050016656518,4.0,1.8601909996941686,,,,,,,,,,,,,7451,Moral,2025-02-10_09h30.23.177,MoralCondition_v2,2022.2.5,29.95830101974062,
9,0,9,0,5,0,5,0,,,,,,,,,,,,,,,,,,,,,,,,,,,,,,,,,,,,,,,,,,,,,,,,,,,,,,,567.1300424998626,567.1300424998626,0.009309099987149239,0.11396099999547005,3.0,2.205786499660462,,,,,,,,,,,,,7451,Moral,2025-02-10_09h30.23.177,MoralCondition_v2,2022.2.5,29.95830101974062,
9,0,9,0,6,0,6,0,,,,,,,,,,,,,,,,,,,,,,,,,,,,,,,,,,,,,,,,,,,,,,,,,,,,,,,569.363476799801,569.363476799801,0.0075910999439656734,0.09742080001160502,6.0,2.1240733000449836,,,,,,,,,,,,,7451,Moral,2025-02-10_09h30.23.177,MoralCondition_v2,2022.2.5,29.95830101974062,
9,0,9,0,,,,,,,,,,,,,,,,,,,,,,,,,,,,,,,,,,,,,,,,,,,,,,,,,,,,,,,,,,,,,,,,,571.530241499655,571.530241499655,0.0012471000663936138,0.09773680008947849,2.0,3.731004699598998,,,,,,,7451,Moral,2025-02-10_09h30.23.177,MoralCondition_v2,2022.2.5,29.95830101974062,
10,0,10,0,0,0,0,0,,,,,,,,,,,,,,,,,,,,,,,575.2971317996271,0.0001384001225233078,0.09908309997990727,581.3135206997395,6.015728400088847,581.5636946996674,581.5636946996674,0.15264909993857145,0.265994600020349,5.999031099956483,587.5965327997692,587.5965327997692,587.5965327997692,0.08691509999334812,0.19901390001177788,593.2966986997053,593.4968536999077,5.999066699761897,6.0989979999139905,599.4967743996531,11.999087899923325,599.5966990999877,599.5966990999877,599.5966990999877,599.5966990999877,5.997717380523682e-07,0.09903049981221557,up,1.8619892001152039,601.4970828997903,6.899982690811157e-05,0.09777869982644916,607.5301831997931,607.5301831997931,0.02515790006145835,0.13087249966338277,6.0,5.390934100374579,,,,,,,,,,,6.099033200182021,12.099088700022548,7451,Moral,2025-02-10_09h30.23.177,MoralCondition_v2,2022.2.5,29.95830101974062,
10,0,10,0,1,0,1,0,,,,,,,,,,,,,,,,,,,,,,,,,,,,,,,,,,,,,,,,,,,,,,,,,,,,,,,612.9463419998065,612.9463419998065,0.006552000064402819,0.0989496000111103,4.0,2.093211700208485,,,,,,,,,,,,,7451,Moral,2025-02-10_09h30.23.177,MoralCondition_v2,2022.2.5,29.95830101974062,
10,0,10,0,2,0,2,0,,,,,,,,,,,,,,,,,,,,,,,,,,,,,,,,,,,,,,,,,,,,,,,,,,,,,,,615.0796784996055,615.0796784996055,0.007463200017809868,0.09817390004172921,5.0,1.6585312997922301,,,,,,,,,,,,,7451,Moral,2025-02-10_09h30.23.177,MoralCondition_v2,2022.2.5,29.95830101974062,
10,0,10,0,3,0,3,0,,,,,,,,,,,,,,,,,,,,,,,,,,,,,,,,,,,,,,,,,,,,,,,,,,,,,,,616.796531799715,616.796531799715,0.007982799783349037,0.11422869982197881,3.0,2.5404127002693713,,,,,,,,,,,,,7451,Moral,2025-02-10_09h30.23.177,MoralCondition_v2,2022.2.5,29.95830101974062,
10,0,10,0,4,0,4,0,,,,,,,,,,,,,,,,,,,,,,,,,,,,,,,,,,,,,,,,,,,,,,,,,,,,,,,619.3632199997082,619.3632199997082,0.007521499879658222,0.09856039984151721,6.0,1.7919228002429008,,,,,,,,,,,,,7451,Moral,2025-02-10_09h30.23.177,MoralCondition_v2,2022.2.5,29.95830101974062,
10,0,10,0,5,0,5,0,,,,,,,,,,,,,,,,,,,,,,,,,,,,,,,,,,,,,,,,,,,,,,,,,,,,,,,621.196543299593,621.196543299593,0.006233599968254566,0.09713399969041348,4.0,6.0586110996082425,,,,,,,,,,,,,7451,Moral,2025-02-10_09h30.23.177,MoralCondition_v2,2022.2.5,29.95830101974062,
10,0,10,0,6,0,6,0,,,,,,,,,,,,,,,,,,,,,,,,,,,,,,,,,,,,,,,,,,,,,,,,,,,,,,,627.2965893000364,627.2965893000364,0.007767399773001671,0.09768520016223192,6.0,1.6575452997349203,,,,,,,,,,,,,7451,Moral,2025-02-10_09h30.23.177,MoralCondition_v2,2022.2.5,29.95830101974062,
10,0,10,0,,,,,,,,,,,,,,,,,,,,,,,,,,,,,,,,,,,,,,,,,,,,,,,,,,,,,,,,,,,,,,,,,628.9966601999477,628.9966601999477,0.0010063000954687595,0.0986536000855267,2.0,1.9991643000394106,,,,,,,7451,Moral,2025-02-10_09h30.23.177,MoralCondition_v2,2022.2.5,29.95830101974062,
11,0,11,0,0,0,0,0,,,,,,,,,,,,,,,,,,,,,,,631.0301656997763,0.0002585998736321926,0.09804080007597804,637.0465516997501,6.0148013001307845,637.2133811996318,637.2133811996318,0.0696662999689579,0.18140590004622936,6.0146869998425245,643.3134532999247,643.3134532999247,643.3134532999247,0.06970039987936616,0.1813772995956242,649.0132839996368,649.2133457995951,6.014837799593806,6.114644799847156,655.2131939996034,12.014690699987113,655.3132038996555,655.3132038996555,655.346560199745,655.346560199745,0.014871199615299702,0.11463839979842305,up,1.9849505997262895,657.37984639965,5.030026659369469e-05,0.09785080002620816,663.379844899755,663.379844899755,0.008317300118505955,0.0980082000605762,6.0,3.8238833998329937,,,,,,,643.2132184999064,643.2132184999064,663.379844899755,,,,7451,Moral,2025-02-10_09h30.23.177,MoralCondition_v2,2022.2.5,29.95830101974062,
11,0,11,0,1,0,1,0,,,,,,,,,,,,,,,,,,,,,,,,,,,,,,,,,,,,,,,,,,,,,,,,,,,,,,,667.2465177997947,667.2465177997947,0.007395499851554632,0.09696340002119541,3.0,2.257286499720067,,,,,,,,,,,,,7451,Moral,2025-02-10_09h30.23.177,MoralCondition_v2,2022.2.5,29.95830101974062,
11,0,11,0,2,0,2,0,,,,,,,,,,,,,,,,,,,,,,,,,,,,,,,,,,,,,,,,,,,,,,,,,,,,,,,669.5465148999356,669.5465148999356,0.008329299744218588,0.0973978997208178,3.0,2.0900647998787463,,,,,,,,,,,,,7451,Moral,2025-02-10_09h30.23.177,MoralCondition_v2,2022.2.5,29.95830101974062,
11,0,11,0,3,0,3,0,,,,,,,,,,,,,,,,,,,,,,,,,,,,,,,,,,,,,,,,,,,,,,,,,,,,,,,671.6966903996654,671.6966903996654,0.00915060006082058,0.11384660005569458,4.0,3.772368799895048,,,,,,,,,,,,,7451,Moral,2025-02-10_09h30.23.177,MoralCondition_v2,2022.2.5,29.95830101974062,
11,0,11,0,4,0,4,0,,,,,,,,,,,,,,,,,,,,,,,,,,,,,,,,,,,,,,,,,,,,,,,,,,,,,,,675.513535999693,675.513535999693,0.00822839979082346,0.1146026998758316,6.0,1.9407144002616405,,,,,,,,,,,,,7451,Moral,2025-02-10_09h30.23.177,MoralCondition_v2,2022.2.5,29.95830101974062,
11,0,11,0,5,0,5,0,,,,,,,,,,,,,,,,,,,,,,,,,,,,,,,,,,,,,,,,,,,,,,,,,,,,,,,677.4966114000417,677.4966114000417,0.008254500105977058,0.11404910031706095,3.0,1.90670259995386,,,,,,,,,,,,,7451,Moral,2025-02-10_09h30.23.177,MoralCondition_v2,2022.2.5,29.95830101974062,
11,0,11,0,6,0,6,0,,,,,,,,,,,,,,,,,,,,,,,,,,,,,,,,,,,,,,,,,,,,,,,,,,,,,,,679.4297762997448,679.4297762997448,0.007620500400662422,0.09740200033411384,5.0,1.524380899965763,,,,,,,,,,,,,7451,Moral,2025-02-10_09h30.23.177,MoralCondition_v2,2022.2.5,29.95830101974062,
11,0,11,0,,,,,,,,,,,,,,,,,,,,,,,,,,,,,,,,,,,,,,,,,,,,,,,,,,,,,,,,,,,,,,,,,680.9964375998825,680.9964375998825,0.0006560999900102615,0.09935350017622113,2.0,1.6328848996199667,,,,,,,7451,Moral,2025-02-10_09h30.23.177,MoralCondition_v2,2022.2.5,29.95830101974062,
12,0,12,0,0,0,0,0,,,,,,,,,,,,,,,,,,,,,,,682.6632711999118,0.0002668001689016819,0.0979516003280878,688.6797512997873,6.0145184001885355,688.8464498999529,688.8464498999529,0.06744130002334714,0.18145069992169738,6.014505300205201,694.9462544997223,694.9462544997223,694.9462544997223,0.06792949978262186,0.18121870001778007,700.646388199646,700.8463180996478,6.014416600111872,6.11447439994663,706.8463502000086,12.014517199713737,706.9465932999738,706.9465932999738,706.9797535999678,706.9797535999678,0.014853099826723337,0.11445979960262775,up,1.966930199880153,708.9963718997315,4.820013418793678e-05,0.09779620030894876,714.9962629997171,714.9962629997171,0.0064615001901984215,0.0978331002406776,2.0,4.225768900010735,,,,,,,694.8463194998913,694.8463194998913,714.9962629997171,,,,7451,Moral,2025-02-10_09h30.23.177,MoralCondition_v2,2022.2.5,29.95830101974062,
12,0,12,0,1,0,1,0,,,,,,,,,,,,,,,,,,,,,,,,,,,,,,,,,,,,,,,,,,,,,,,,,,,,,,,719.2631703997031,719.2631703997031,0.006638799794018269,0.09901829995214939,2.0,1.2938996003940701,,,,,,,,,,,,,7451,Moral,2025-02-10_09h30.23.177,MoralCondition_v2,2022.2.5,29.95830101974062,
12,0,12,0,2,0,2,0,,,,,,,,,,,,,,,,,,,,,,,,,,,,,,,,,,,,,,,,,,,,,,,,,,,,,,,720.5961813996546,720.5961813996546,0.00665090000256896,0.09922669967636466,2.0,1.0267381998710334,,,,,,,,,,,,,7451,Moral,2025-02-10_09h30.23.177,MoralCondition_v2,2022.2.5,29.95830101974062,
12,0,12,0,3,0,3,0,,,,,,,,,,,,,,,,,,,,,,,,,,,,,,,,,,,,,,,,,,,,,,,,,,,,,,,721.6629687999375,721.6629687999375,0.007158899679780006,0.09840409969910979,4.0,2.5256427000276744,,,,,,,,,,,,,7451,Moral,2025-02-10_09h30.23.177,MoralCondition_v2,2022.2.5,29.95830101974062,
12,0,12,0,4,0,4,0,,,,,,,,,,,,,,,,,,,,,,,,,,,,,,,,,,,,,,,,,,,,,,,,,,,,,,,724.246259199921,724.246259199921,0.008638300001621246,0.1141916997730732,5.0,1.3734299996867776,,,,,,,,,,,,,7451,Moral,2025-02-10_09h30.23.177,MoralCondition_v2,2022.2.5,29.95830101974062,
12,0,12,0,5,0,5,0,,,,,,,,,,,,,,,,,,,,,,,,,,,,,,,,,,,,,,,,,,,,,,,,,,,,,,,725.646138199605,725.646138199605,0.007964699994772673,0.09794380003586411,3.0,3.324368800036609,,,,,,,,,,,,,7451,Moral,2025-02-10_09h30.23.177,MoralCondition_v2,2022.2.5,29.95830101974062,
12,0,12,0,6,0,6,0,,,,,,,,,,,,,,,,,,,,,,,,,,,,,,,,,,,,,,,,,,,,,,,,,,,,,,,729.0131118996069,729.0131118996069,0.007687400095164776,0.09763120021671057,5.0,1.8579286998137832,,,,,,,,,,,,,7451,Moral,2025-02-10_09h30.23.177,MoralCondition_v2,2022.2.5,29.95830101974062,
12,0,12,0,,,,,,,,,,,,,,,,,,,,,,,,,,,,,,,,,,,,,,,,,,,,,,,,,,,,,,,,,,,,,,,,,730.9129690998234,730.9129690998234,0.0006718998774886131,0.09925989992916584,6.0,14.499634400010109,,,,,,,7451,Moral,2025-02-10_09h30.23.177,MoralCondition_v2,2022.2.5,29.95830101974062,
13,0,13,0,0,0,0,0,,,,,,,,,,,,,,,,,,,,,,,745.4463446997106,0.0004054000601172447,0.09762039966881275,751.4462984995916,6.030993899796158,751.6463718996383,751.6463718996383,0.0929723996669054,0.19771999958902597,6.030915699899197,757.7464198996313,757.7464198996313,757.7464198996313,0.08083549980074167,0.19785769982263446,763.4462536997162,763.6463347999379,6.031034599523991,6.13092689961195,769.6462016999722,12.030906599480659,769.7462140000425,769.7462140000425,769.7796656996943,769.7796656996943,0.031056399457156658,0.13100049970671535,up,2.079509699717164,771.9129385999404,3.609992563724518e-05,0.09839029982686043,777.9293135995977,777.9293135995977,0.02746579982340336,0.1149532999843359,2.0,3.3218232998624444,,,,,,,757.6462193997577,757.6462193997577,,,,,7451,Moral,2025-02-10_09h30.23.177,MoralCondition_v2,2022.2.5,29.95830101974062,
13,0,13,0,1,0,1,0,,,,,,,,,,,,,,,,,,,,,,,,,,,,,,,,,,,,,,,,,,,,,,,,,,,,,,,781.2961916998029,781.2961916998029,0.006608100142329931,0.09718800010159612,4.0,1.6915191998705268,,,,,,,,,,,,,7451,Moral,2025-02-10_09h30.23.177,MoralCondition_v2,2022.2.5,29.95830101974062,
13,0,13,0,2,0,2,0,,,,,,,,,,,,,,,,,,,,,,,,,,,,,,,,,,,,,,,,,,,,,,,,,,,,,,,783.029600400012,783.029600400012,0.007145700044929981,0.09852139977738261,2.0,1.858765000011772,,,,,,,,,,,,,7451,Moral,2025-02-10_09h30.23.177,MoralCondition_v2,2022.2.5,29.95830101974062,
13,0,13,0,3,0,3,0,,,,,,,,,,,,,,,,,,,,,,,,,,,,,,,,,,,,,,,,,,,,,,,,,,,,,,,784.9294539997354,784.9294539997354,0.007511000148952007,0.09775250032544136,5.0,2.6910260999575257,,,,,,,,,,,,,7451,Moral,2025-02-10_09h30.23.177,MoralCondition_v2,2022.2.5,29.95830101974062,
13,0,13,0,4,0,4,0,,,,,,,,,,,,,,,,,,,,,,,,,,,,,,,,,,,,,,,,,,,,,,,,,,,,,,,787.6627954998985,787.6627954998985,0.007470699958503246,0.09788599982857704,3.0,1.6580533999949694,,,,,,,,,,,,,7451,Moral,2025-02-10_09h30.23.177,MoralCondition_v2,2022.2.5,29.95830101974062,
13,0,13,0,5,0,5,0,,,,,,,,,,,,,,,,,,,,,,,,,,,,,,,,,,,,,,,,,,,,,,,,,,,,,,,789.3629422998056,789.3629422998056,0.006771199870854616,0.0992140001617372,2.0,2.22672659996897,,,,,,,,,,,,,7451,Moral,2025-02-10_09h30.23.177,MoralCondition_v2,2022.2.5,29.95830101974062,
13,0,13,0,6,0,6,0,,,,,,,,,,,,,,,,,,,,,,,,,,,,,,,,,,,,,,,,,,,,,,,,,,,,,,,791.6294123996049,791.6294123996049,0.007160799577832222,0.09790909988805652,6.0,2.6919446997344494,,,,,,,,,,,,,7451,Moral,2025-02-10_09h30.23.177,MoralCondition_v2,2022.2.5,29.95830101974062,
13,0,13,0,,,,,,,,,,,,,,,,,,,,,,,,,,,,,,,,,,,,,,,,,,,,,,,,,,,,,,,,,,,,,,,,,794.3629123996943,794.3629123996943,0.0007624998688697815,0.09911259962245822,6.0,2.4995053000748158,,,,,,,7451,Moral,2025-02-10_09h30.23.177,MoralCondition_v2,2022.2.5,29.95830101974062,
14,0,14,0,0,0,0,0,,,,,,,,,,,,,,,,,,,,,,,796.8964254995808,0.0002991999499499798,0.0976853002794087,802.8961237999611,6.031050099991262,803.096190799959,803.096190799959,0.09248600015416741,0.19786889990791678,6.031023699790239,809.1792850997299,809.1792850997299,809.1792850997299,0.0738574001006782,0.18079259991645813,814.8794211996719,815.0794083997607,6.014309699647129,6.114269899670035,821.0795378996991,12.014469400048256,821.1794447000138,821.1794447000138,821.2127092997544,821.2127092997544,0.01450239960104227,0.11426579998806119,up,1.5426872000098228,822.8127680998296,5.3299590945243835e-05,0.09763029962778091,828.8295118999667,828.8295118999667,0.009891399648040533,0.11442249966785312,6.0,2.305590699892491,,,,,,,809.0793654997833,809.0793654997833,828.8295118999667,,,,7451,Moral,2025-02-10_09h30.23.177,MoralCondition_v2,2022.2.5,29.95830101974062,
14,0,14,0,1,0,1,0,,,,,,,,,,,,,,,,,,,,,,,,,,,,,,,,,,,,,,,,,,,,,,,,,,,,,,,831.1625026999973,831.1625026999973,0.006627500057220459,0.09922849992290139,3.0,1.9272312000393867,,,,,,,,,,,,,7451,Moral,2025-02-10_09h30.23.177,MoralCondition_v2,2022.2.5,29.95830101974062,
14,0,14,0,2,0,2,0,,,,,,,,,,,,,,,,,,,,,,,,,,,,,,,,,,,,,,,,,,,,,,,,,,,,,,,833.1292420998216,833.1292420998216,0.007348599843680859,0.0983861000277102,4.0,2.2253322997130454,,,,,,,,,,,,,7451,Moral,2025-02-10_09h30.23.177,MoralCondition_v2,2022.2.5,29.95830101974062,
14,0,14,0,3,0,3,0,,,,,,,,,,,,,,,,,,,,,,,,,,,,,,,,,,,,,,,,,,,,,,,,,,,,,,,835.3964781998657,835.3964781998657,0.006862199865281582,0.09828829998150468,3.0,2.2594180000014603,,,,,,,,,,,,,7451,Moral,2025-02-10_09h30.23.177,MoralCondition_v2,2022.2.5,29.95830101974062,
14,0,14,0,4,0,4,0,,,,,,,,,,,,,,,,,,,,,,,,,,,,,,,,,,,,,,,,,,,,,,,,,,,,,,,837.6960650999099,837.6960650999099,0.007474400103092194,0.09792640013620257,6.0,1.624672600068152,,,,,,,,,,,,,7451,Moral,2025-02-10_09h30.23.177,MoralCondition_v2,2022.2.5,29.95830101974062,
14,0,14,0,5,0,5,0,,,,,,,,,,,,,,,,,,,,,,,,,,,,,,,,,,,,,,,,,,,,,,,,,,,,,,,839.362637899816,839.362637899816,0.006669300142675638,0.09917589975520968,6.0,1.4268247000873089,,,,,,,,,,,,,7451,Moral,2025-02-10_09h30.23.177,MoralCondition_v2,2022.2.5,29.95830101974062,
14,0,14,0,6,0,6,0,,,,,,,,,,,,,,,,,,,,,,,,,,,,,,,,,,,,,,,,,,,,,,,,,,,,,,,840.8294061999768,840.8294061999768,0.00692019984126091,0.09808479994535446,3.0,1.6258111000061035,,,,,,,,,,,,,7451,Moral,2025-02-10_09h30.23.177,MoralCondition_v2,2022.2.5,29.95830101974062,
14,0,14,0,,,,,,,,,,,,,,,,,,,,,,,,,,,,,,,,,,,,,,,,,,,,,,,,,,,,,,,,,,,,,,,,,842.4963533999398,842.4963533999398,0.001149000134319067,0.09792360011488199,2.0,2.064661500044167,,,,,,,7451,Moral,2025-02-10_09h30.23.177,MoralCondition_v2,2022.2.5,29.95830101974062,
15,0,15,0,0,0,0,0,,,,,,,,,,,,,,,,,,,,,,,844.5962773999199,0.00027660001069307327,0.09802959999069571,850.6126857995987,6.014619200024754,850.7793517997488,850.7793517997488,0.08129429956898093,0.18155949981883168,6.014855899848044,856.8794370996766,856.8794370996766,856.8794370996766,0.07753299968317151,0.18139339983463287,862.5793328997679,862.7793024997227,6.014635899569839,6.114758099894971,868.7792944000103,12.014625899493694,868.8792981998995,868.8792981998995,868.9127618996426,868.9127618996426,0.014791999477893114,0.11452769953757524,up,0.8347288998775184,869.8126363996416,4.83999028801918e-05,0.09799439972266555,875.8291672999039,875.8291672999039,0.024321999866515398,0.11470380006358027,3.0,3.791273199953139,,,,,,,856.7794641996734,856.7794641996734,,,,,7451,Moral,2025-02-10_09h30.23.177,MoralCondition_v2,2022.2.5,29.95830101974062,
15,0,15,0,1,0,1,0,,,,,,,,,,,,,,,,,,,,,,,,,,,,,,,,,,,,,,,,,,,,,,,,,,,,,,,879.6627086997032,879.6627086997032,0.007618799805641174,0.0980436997488141,2.0,1.8580712000839412,,,,,,,,,,,,,7451,Moral,2025-02-10_09h30.23.177,MoralCondition_v2,2022.2.5,29.95830101974062,
15,0,15,0,2,0,2,0,,,,,,,,,,,,,,,,,,,,,,,,,,,,,,,,,,,,,,,,,,,,,,,,,,,,,,,881.5794631997123,881.5794631997123,0.0075425999239087105,0.11382790002971888,4.0,1.974093500059098,,,,,,,,,,,,,7451,Moral,2025-02-10_09h30.23.177,MoralCondition_v2,2022.2.5,29.95830101974062,
15,0,15,0,3,0,3,0,,,,,,,,,,,,,,,,,,,,,,,,,,,,,,,,,,,,,,,,,,,,,,,,,,,,,,,883.5791120999493,883.5791120999493,0.007649400271475315,0.09759730007499456,5.0,2.0575953000225127,,,,,,,,,,,,,7451,Moral,2025-02-10_09h30.23.177,MoralCondition_v2,2022.2.5,29.95830101974062,
15,0,15,0,4,0,4,0,,,,,,,,,,,,,,,,,,,,,,,,,,,,,,,,,,,,,,,,,,,,,,,,,,,,,,,885.6792395999655,885.6792395999655,0.007265500258654356,0.09769830014556646,5.0,1.3582846000790596,,,,,,,,,,,,,7451,Moral,2025-02-10_09h30.23.177,MoralCondition_v2,2022.2.5,29.95830101974062,
15,0,15,0,5,0,5,0,,,,,,,,,,,,,,,,,,,,,,,,,,,,,,,,,,,,,,,,,,,,,,,,,,,,,,,887.0791837000288,887.0791837000288,0.007538399659097195,0.0980082000605762,3.0,13.957813299726695,,,,,,,,,,,,,7451,Moral,2025-02-10_09h30.23.177,MoralCondition_v2,2022.2.5,29.95830101974062,
15,0,15,0,6,0,6,0,,,,,,,,,,,,,,,,,,,,,,,,,,,,,,,,,,,,,,,,,,,,,,,,,,,,,,,901.0791113995947,901.0791113995947,0.007190700154751539,0.09934100043028593,4.0,1.8263472001999617,,,,,,,,,,,,,7451,Moral,2025-02-10_09h30.23.177,MoralCondition_v2,2022.2.5,29.95830101974062,
15,0,15,0,,,,,,,,,,,,,,,,,,,,,,,,,,,,,,,,,,,,,,,,,,,,,,,,,,,,,,,,,,,,,,,,,902.9460267997347,902.9460267997347,0.0016442998312413692,0.09794789971783757,6.0,2.2307921000756323,,,,,,,7451,Moral,2025-02-10_09h30.23.177,MoralCondition_v2,2022.2.5,29.95830101974062,
16,0,16,0,0,0,0,0,,,,,,,,,,,,,,,,,,,,,,,905.212635200005,0.00032590003684163094,0.09749179985374212,911.2125063999556,6.030828199815005,911.4126766999252,911.4126766999252,0.08628549985587597,0.1975002996623516,6.030764699913561,917.512454399839,917.512454399839,917.512454399839,0.08743959991261363,0.19741159956902266,923.2124210996553,923.4124421998858,6.030846099834889,6.130835199728608,929.412418899592,12.030813299585134,929.5125489998609,929.5125489998609,929.5457987999544,929.5457987999544,0.03102119965478778,0.1308048996143043,up,0.6970135001465678,930.279112899676,2.8300099074840546e-05,0.09825369995087385,936.3123665000312,936.3123665000312,0.025927400216460228,0.1316402000375092,2.0,2.7732039000838995,,,,,,,917.412445999682,917.412445999682,,,,,7451,Moral,2025-02-10_09h30.23.177,MoralCondition_v2,2022.2.5,29.95830101974062,
16,0,16,0,1,0,1,0,,,,,,,,,,,,,,,,,,,,,,,,,,,,,,,,,,,,,,,,,,,,,,,,,,,,,,,939.1125220996328,939.1125220996328,0.007841399870812893,0.09761690022423863,2.0,1.5908265002071857,,,,,,,,,,,,,7451,Moral,2025-02-10_09h30.23.177,MoralCondition_v2,2022.2.5,29.95830101974062,
16,0,16,0,2,0,2,0,,,,,,,,,,,,,,,,,,,,,,,,,,,,,,,,,,,,,,,,,,,,,,,,,,,,,,,940.7624629996717,940.7624629996717,0.007279499899595976,0.11405490012839437,4.0,1.4745426001027226,,,,,,,,,,,,,7451,Moral,2025-02-10_09h30.23.177,MoralCondition_v2,2022.2.5,29.95830101974062,
16,0,16,0,3,0,3,0,,,,,,,,,,,,,,,,,,,,,,,,,,,,,,,,,,,,,,,,,,,,,,,,,,,,,,,942.2624977999367,942.2624977999367,0.006754900328814983,0.09915800020098686,5.0,1.5602381001226604,,,,,,,,,,,,,7451,Moral,2025-02-10_09h30.23.177,MoralCondition_v2,2022.2.5,29.95830101974062,
16,0,16,0,4,0,4,0,,,,,,,,,,,,,,,,,,,,,,,,,,,,,,,,,,,,,,,,,,,,,,,,,,,,,,,943.8623989997432,943.8623989997432,0.0068207997828722,0.09924459969624877,2.0,1.393585099838674,,,,,,,,,,,,,7451,Moral,2025-02-10_09h30.23.177,MoralCondition_v2,2022.2.5,29.95830101974062,
16,0,16,0,5,0,5,0,,,,,,,,,,,,,,,,,,,,,,,,,,,,,,,,,,,,,,,,,,,,,,,,,,,,,,,945.2958421995863,945.2958421995863,0.00768220005556941,0.09770420007407665,4.0,1.7247274001128972,,,,,,,,,,,,,7451,Moral,2025-02-10_09h30.23.177,MoralCondition_v2,2022.2.5,29.95830101974062,
16,0,16,0,6,0,6,0,,,,,,,,,,,,,,,,,,,,,,,,,,,,,,,,,,,,,,,,,,,,,,,,,,,,,,,947.0625153998844,947.0625153998844,0.006636699661612511,0.09917810000479221,5.0,2.0273894001729786,,,,,,,,,,,,,7451,Moral,2025-02-10_09h30.23.177,MoralCondition_v2,2022.2.5,29.95830101974062,
16,0,16,0,,,,,,,,,,,,,,,,,,,,,,,,,,,,,,,,,,,,,,,,,,,,,,,,,,,,,,,,,,,,,,,,,949.1290897997096,949.1290897997096,0.0010126996785402298,0.09859289973974228,6.0,2.0984674002975225,,,,,,,7451,Moral,2025-02-10_09h30.23.177,MoralCondition_v2,2022.2.5,29.95830101974062,
17,0,17,0,0,0,0,0,,,,,,,,,,,,,,,,,,,,,,,951.2627240996808,0.00019749999046325684,0.09848919976502657,957.2455508997664,6.014983200002462,957.428926799912,957.428926799912,0.053957499563694,0.16513559967279434,6.031838499940932,963.562146899756,963.562146899756,963.562146899756,0.09133299952372909,0.19839829951524734,969.2623124998063,969.4622849998996,6.031767499633133,6.131716499570757,975.4622852997854,12.031760299578309,975.5456483997405,975.5456483997405,975.5789708998054,975.5789708998054,0.015359499491751194,0.11504389951005578,up,0.43946609972044826,976.0794944996014,5.060015246272087e-05,0.09809580026194453,982.0956546999514,982.0956546999514,0.0095124002546072,0.1146534001454711,3.0,5.206003699917346,,,,,,,963.4289581999183,963.4289581999183,982.0956546999514,6.098312399815768,,,7451,Moral,2025-02-10_09h30.23.177,MoralCondition_v2,2022.2.5,29.95830101974062,
17,0,17,0,1,0,1,0,,,,,,,,,,,,,,,,,,,,,,,,,,,,,,,,,,,,,,,,,,,,,,,,,,,,,,,987.3286802000366,987.3286802000366,0.006941600237041712,0.09913010010495782,5.0,2.093100500293076,,,,,,,,,,,,,7451,Moral,2025-02-10_09h30.23.177,MoralCondition_v2,2022.2.5,29.95830101974062,
17,0,17,0,2,0,2,0,,,,,,,,,,,,,,,,,,,,,,,,,,,,,,,,,,,,,,,,,,,,,,,,,,,,,,,989.4620472998358,989.4620472998358,0.00721179973334074,0.09739929996430874,5.0,3.4246622999198735,,,,,,,,,,,,,7451,Moral,2025-02-10_09h30.23.177,MoralCondition_v2,2022.2.5,29.95830101974062,
17,0,17,0,3,0,3,0,,,,,,,,,,,,,,,,,,,,,,,,,,,,,,,,,,,,,,,,,,,,,,,,,,,,,,,992.9290584996343,992.9290584996343,0.009839300066232681,0.09718090016394854,3.0,1.821738500148058,,,,,,,,,,,,,7451,Moral,2025-02-10_09h30.23.177,MoralCondition_v2,2022.2.5,29.95830101974062,
17,0,17,0,4,0,4,0,,,,,,,,,,,,,,,,,,,,,,,,,,,,,,,,,,,,,,,,,,,,,,,,,,,,,,,994.7953573996201,994.7953573996201,0.00644670007750392,0.09900909988209605,2.0,3.026905999984592,,,,,,,,,,,,,7451,Moral,2025-02-10_09h30.23.177,MoralCondition_v2,2022.2.5,29.95830101974062,
17,0,17,0,5,0,5,0,,,,,,,,,,,,,,,,,,,,,,,,,,,,,,,,,,,,,,,,,,,,,,,,,,,,,,,997.8622224996798,997.8622224996798,0.007723900023847818,0.0979738999158144,5.0,1.5911735999397933,,,,,,,,,,,,,7451,Moral,2025-02-10_09h30.23.177,MoralCondition_v2,2022.2.5,29.95830101974062,
17,0,17,0,6,0,6,0,,,,,,,,,,,,,,,,,,,,,,,,,,,,,,,,,,,,,,,,,,,,,,,,,,,,,,,999.4955474999733,999.4955474999733,0.007301699835807085,0.09758970001712441,3.0,1.5247347000986338,,,,,,,,,,,,,7451,Moral,2025-02-10_09h30.23.177,MoralCondition_v2,2022.2.5,29.95830101974062,
17,0,17,0,,,,,,,,,,,,,,,,,,,,,,,,,,,,,,,,,,,,,,,,,,,,,,,,,,,,,,,,,,,,,,,,,1001.0620838999748,1001.0620838999748,0.0008216998539865017,0.09830079972743988,2.0,2.5653393999673426,,,,,,,7451,Moral,2025-02-10_09h30.23.177,MoralCondition_v2,2022.2.5,29.95830101974062,
18,0,18,0,0,0,0,0,,,,,,,,,,,,,,,,,,,,,,,1003.6624647998251,0.00032289978116750717,0.09796199994161725,1009.6621636999771,6.031355499755591,1009.8454450997524,1009.8454450997524,0.06941469991579652,0.18149199988693,6.014621799811721,1015.9455591998994,1015.9455591998994,1015.9455591998994,0.06874409969896078,0.18147419951856136,1021.6454770998098,1021.8454408999532,6.014626099728048,6.114577099680901,1027.8454229999334,12.014602799434215,1027.9454014999792,1027.9454014999792,1027.9787383996882,1027.9787383996882,0.014736299403011799,0.11471279943361878,up,0.5517533998936415,1028.5787816997617,5.6599732488393784e-05,0.09783129999414086,1034.5953382998705,1034.5953382998705,0.02702170005068183,0.11455520009621978,2.0,4.72202489990741,,,,,,,1015.8454437996261,1015.8454437996261,,,,,7451,Moral,2025-02-10_09h30.23.177,MoralCondition_v2,2022.2.5,29.95830101974062,
18,0,18,0,1,0,1,0,,,,,,,,,,,,,,,,,,,,,,,,,,,,,,,,,,,,,,,,,,,,,,,,,,,,,,,1039.3620064998977,1039.3620064998977,0.00653090002015233,0.09869940020143986,3.0,1.6265219999477267,,,,,,,,,,,,,7451,Moral,2025-02-10_09h30.23.177,MoralCondition_v2,2022.2.5,29.95830101974062,
18,0,18,0,2,0,2,0,,,,,,,,,,,,,,,,,,,,,,,,,,,,,,,,,,,,,,,,,,,,,,,,,,,,,,,1041.02871340001,1041.02871340001,0.006883100140839815,0.09899189975112677,4.0,2.926386999897659,,,,,,,,,,,,,7451,Moral,2025-02-10_09h30.23.177,MoralCondition_v2,2022.2.5,29.95830101974062,
18,0,18,0,3,0,3,0,,,,,,,,,,,,,,,,,,,,,,,,,,,,,,,,,,,,,,,,,,,,,,,,,,,,,,,1043.9952757996507,1043.9952757996507,0.007764599751681089,0.09780630003660917,5.0,1.6575007000938058,,,,,,,,,,,,,7451,Moral,2025-02-10_09h30.23.177,MoralCondition_v2,2022.2.5,29.95830101974062,
18,0,18,0,4,0,4,0,,,,,,,,,,,,,,,,,,,,,,,,,,,,,,,,,,,,,,,,,,,,,,,,,,,,,,,1045.6954040997662,1045.6954040997662,0.007354800123721361,0.09795690001919866,6.0,2.1918486999347806,,,,,,,,,,,,,7451,Moral,2025-02-10_09h30.23.177,MoralCondition_v2,2022.2.5,29.95830101974062,
18,0,18,0,5,0,5,0,,,,,,,,,,,,,,,,,,,,,,,,,,,,,,,,,,,,,,,,,,,,,,,,,,,,,,,1047.9286476997659,1047.9286476997659,0.006685399916023016,0.09895099978893995,3.0,1.4934241999872029,,,,,,,,,,,,,7451,Moral,2025-02-10_09h30.23.177,MoralCondition_v2,2022.2.5,29.95830101974062,
18,0,18,0,6,0,6,0,,,,,,,,,,,,,,,,,,,,,,,,,,,,,,,,,,,,,,,,,,,,,,,,,,,,,,,1049.462090399582,1049.462090399582,0.006475700065493584,0.09932300029322505,5.0,1.560544699896127,,,,,,,,,,,,,7451,Moral,2025-02-10_09h30.23.177,MoralCondition_v2,2022.2.5,29.95830101974062,
18,0,18,0,,,,,,,,,,,,,,,,,,,,,,,,,,,,,,,,,,,,,,,,,,,,,,,,,,,,,,,,,,,,,,,,,1051.0622839997523,1051.0622839997523,0.0007743001915514469,0.09951200010254979,2.0,1.7664025998674333,,,,,,,7451,Moral,2025-02-10_09h30.23.177,MoralCondition_v2,2022.2.5,29.95830101974062,
19,0,19,0,0,0,0,0,,,,,,,,,,,,,,,,,,,,,,,1052.8622503997758,0.0002993997186422348,0.09775639977306128,1058.8619463997893,6.031091199722141,1059.0619107997045,1059.0619107997045,0.09341079974547029,0.19774629967287183,6.031016099732369,1065.1619350998662,1065.1619350998662,1065.1619350998662,0.09122549975290895,0.1979027995839715,1070.8620268995874,1071.061927799601,6.031067399773747,6.131135499570519,1077.0618914999068,12.031039799563587,1077.1619142997079,1077.1619142997079,1077.1952108000405,1077.1952108000405,0.031220799777656794,0.13097779965028167,up,0.5682324999943376,1077.8286704998463,5.150027573108673e-05,0.09783180011436343,1083.8451202996075,1083.8451202996075,0.024685100186616182,0.11446730000898242,6.0,3.1907990998588502,,,,,,,1065.0620625000447,1065.0620625000447,,,,,7451,Moral,2025-02-10_09h30.23.177,MoralCondition_v2,2022.2.5,29.95830101974062,
19,0,19,0,1,0,1,0,,,,,,,,,,,,,,,,,,,,,,,,,,,,,,,,,,,,,,,,,,,,,,,,,,,,,,,1087.0785488998517,1087.0785488998517,0.006639099679887295,0.09925480000674725,6.0,2.527213799767196,,,,,,,,,,,,,7451,Moral,2025-02-10_09h30.23.177,MoralCondition_v2,2022.2.5,29.95830101974062,
19,0,19,0,2,0,2,0,,,,,,,,,,,,,,,,,,,,,,,,,,,,,,,,,,,,,,,,,,,,,,,,,,,,,,,1089.645003200043,1089.645003200043,0.007901299744844437,0.09813799988478422,6.0,1.957768099848181,,,,,,,,,,,,,7451,Moral,2025-02-10_09h30.23.177,MoralCondition_v2,2022.2.5,29.95830101974062,
19,0,19,0,3,0,3,0,,,,,,,,,,,,,,,,,,,,,,,,,,,,,,,,,,,,,,,,,,,,,,,,,,,,,,,1091.6453250995837,1091.6453250995837,0.00929399998858571,0.09935269970446825,3.0,1.7243302003480494,,,,,,,,,,,,,7451,Moral,2025-02-10_09h30.23.177,MoralCondition_v2,2022.2.5,29.95830101974062,
19,0,19,0,4,0,4,0,,,,,,,,,,,,,,,,,,,,,,,,,,,,,,,,,,,,,,,,,,,,,,,,,,,,,,,1093.411965899635,1093.411965899635,0.00647830031812191,0.09925620025023818,2.0,1.993829700164497,,,,,,,,,,,,,7451,Moral,2025-02-10_09h30.23.177,MoralCondition_v2,2022.2.5,29.95830101974062,
19,0,19,0,5,0,5,0,,,,,,,,,,,,,,,,,,,,,,,,,,,,,,,,,,,,,,,,,,,,,,,,,,,,,,,1095.4620162998326,1095.4620162998326,0.008104600012302399,0.11443349998444319,4.0,1.807812700048089,,,,,,,,,,,,,7451,Moral,2025-02-10_09h30.23.177,MoralCondition_v2,2022.2.5,29.95830101974062,
19,0,19,0,6,0,6,0,,,,,,,,,,,,,,,,,,,,,,,,,,,,,,,,,,,,,,,,,,,,,,,,,,,,,,,1097.2949514999054,1097.2949514999054,0.007213599979877472,0.09814319992437959,2.0,1.5252526998519897,,,,,,,,,,,,,7451,Moral,2025-02-10_09h30.23.177,MoralCondition_v2,2022.2.5,29.95830101974062,
19,0,19,0,,,,,,,,,,,,,,,,,,,,,,,,,,,,,,,,,,,,,,,,,,,,,,,,,,,,,,,,,,,,,,,,,1098.8619448998943,1098.8619448998943,0.0007104999385774136,0.09933519968762994,2.0,1.8331010998226702,,,,,,,7451,Moral,2025-02-10_09h30.23.177,MoralCondition_v2,2022.2.5,29.95830101974062,
