loop.thisRepN,loop.thisTrialN,loop.thisN,loop.thisIndex,evaluate_all_emotions.thisRepN,evaluate_all_emotions.thisTrialN,evaluate_all_emotions.thisN,evaluate_all_emotions.thisIndex,sync_beep_1.started,p_port.started,p_port.stopped,sync_beep_1.stopped,sync_beep_2.started,sync_beep_2.stopped,sync_beep_3.started,sync_beep_3.stopped,sync_beep_4.started,sync_beep_4.stopped,baseline.started,p_port_2.started,p_port_2.stopped,baseline.stopped,p_port_3.started,Game_Start_Text.started,p_port_4.started,p_port_4.stopped,key_resp.started,key_resp.keys,key_resp.rt,fixation_cross.started,p_port_5.started,p_port_5.stopped,fixation_cross.stopped,p_port_6.started,player_image_intro.started,player_name_intro.started,p_port_7.started,p_port_7.stopped,p_port_8.started,player_image_offer.started,player_name_offer.started,proposed_split.started,p_port_9.started,p_port_9.stopped,proposed_split.stopped,accept_reject.started,p_port_15.started,p_port_15.stopped,accept_reject.stopped,p_port_10.started,player_image_offer.stopped,player_name_offer.stopped,arrow_instructions.started,offer_choice.started,p_port_11.started,p_port_11.stopped,offer_choice.keys,offer_choice.rt,Instructions_Affinity_Score.started,p_port_12.started,p_port_12.stopped,Emotion_Image.started,AffinityScore.started,p_port_13.started,p_port_13.stopped,AffinityScore.response,AffinityScore.rt,Instruction.started,Moral_Disgust_Score.started,p_port_14.started,p_port_14.stopped,Moral_Disgust_Score.response,Moral_Disgust_Score.rt,player_image_intro.stopped,player_name_intro.stopped,Instructions_Affinity_Score.stopped,p_port_6.stopped,p_port_8.stopped,p_port_10.stopped,participant,session,date,expName,psychopyVersion,frameRate,
,,,,,,,,18.72815228207037,0.00084279989823699,0.11165580013766885,19.04338790010661,19.32655363995582,19.62654670001939,19.92646553972736,20.22686449997127,20.526524039916694,20.85987319983542,20.85987319983542,0.014045400079339743,0.1117878002114594,35.87662719981745,15.028428200166672,35.97664349991828,0.028553399723023176,0.12843829998746514,36.44331819983199,space,1.0853030001744628,,,,,,,,,,,,,,,,,,,,,,,,,,,,,,,,,,,,,,,,,,,,,,,,,,,7461,Moral,2025-02-19_18h17.11.472,MoralCondition_v2,2022.2.5,29.959530664746445,
0,0,0,0,0,0,0,0,,,,,,,,,,,,,,,,,,,,,,37.576595100108534,0.0034755002707242966,0.09830760024487972,43.576632599812,6.031696599908173,43.79353020014241,43.79353020014241,0.07903969986364245,0.21506959991529584,6.01501729991287,49.87675729999319,49.87675729999319,49.87675729999319,0.07155549991875887,0.19855140009894967,55.57678199978545,55.77665069978684,6.0317448996938765,6.1316939000971615,61.77664089994505,12.03169360011816,61.87669669976458,61.87669669976458,61.910050000064075,61.910050000064075,0.031984000001102686,0.13194819958880544,up,1.3295779000036418,63.29329659976065,4.479987546801567e-05,0.09768759971484542,69.32653639977798,69.32653639977798,0.02778849983587861,0.1311172996647656,2.0,9.687770100310445,,,,,,,,,,,,,7461,Moral,2025-02-19_18h17.11.472,MoralCondition_v2,2022.2.5,29.959530664746445,
0,0,0,0,1,0,1,0,,,,,,,,,,,,,,,,,,,,,,,,,,,,,,,,,,,,,,,,,,,,,,,,,,,,,,79.04335850011557,79.04335850011557,0.009117899928241968,0.09884889982640743,1.0,2.8906793002970517,,,,,,,,,,,,,7461,Moral,2025-02-19_18h17.11.472,MoralCondition_v2,2022.2.5,29.959530664746445,
0,0,0,0,2,0,2,0,,,,,,,,,,,,,,,,,,,,,,,,,,,,,,,,,,,,,,,,,,,,,,,,,,,,,,81.99342199973762,81.99342199973762,0.00976039981469512,0.11391369998455048,2.0,2.638248300179839,,,,,,,,,,,,,7461,Moral,2025-02-19_18h17.11.472,MoralCondition_v2,2022.2.5,29.959530664746445,
0,0,0,0,3,0,3,0,,,,,,,,,,,,,,,,,,,,,,,,,,,,,,,,,,,,,,,,,,,,,,,,,,,,,,84.65993779990822,84.65993779990822,0.00812210002914071,0.09919549990445375,4.0,3.492009799927473,,,,,,,,,,,,,7461,Moral,2025-02-19_18h17.11.472,MoralCondition_v2,2022.2.5,29.959530664746445,
0,0,0,0,4,0,4,0,,,,,,,,,,,,,,,,,,,,,,,,,,,,,,,,,,,,,,,,,,,,,,,,,,,,,,88.2100085997954,88.2100085997954,0.01107789995148778,0.11407539993524551,3.0,3.037447900045663,,,,,,,,,,,,,7461,Moral,2025-02-19_18h17.11.472,MoralCondition_v2,2022.2.5,29.959530664746445,
0,0,0,0,5,0,5,0,,,,,,,,,,,,,,,,,,,,,,,,,,,,,,,,,,,,,,,,,,,,,,,,,,,,,,91.29350219992921,91.29350219992921,0.009726499672979116,0.11437019985169172,1.0,2.339067100081593,,,,,,,,,,,,,7461,Moral,2025-02-19_18h17.11.472,MoralCondition_v2,2022.2.5,29.959530664746445,
0,0,0,0,6,0,6,0,,,,,,,,,,,,,,,,,,,,,,,,,,,,,,,,,,,,,,,,,,,,,,,,,,,,,,93.65987889980897,93.65987889980897,0.008514299988746643,0.09911939967423677,2.0,3.624977099709213,,,,,,,,,,,,,7461,Moral,2025-02-19_18h17.11.472,MoralCondition_v2,2022.2.5,29.959530664746445,
0,0,0,0,,,,,,,,,,,,,,,,,,,,,,,,,,,,,,,,,,,,,,,,,,,,,,,,,,,,,,,,,,,,,,,,97.32682320009917,97.32682320009917,0.001362099777907133,0.0990315000526607,6.0,4.898828600067645,,,,,,,7461,Moral,2025-02-19_18h17.11.472,MoralCondition_v2,2022.2.5,29.959530664746445,
1,0,1,0,0,0,0,0,,,,,,,,,,,,,,,,,,,,,,102.26018999982625,0.000471699982881546,0.0970316999591887,108.27667629998177,6.013699200004339,108.44331349991262,108.44331349991262,0.07032519998028874,0.18056209990754724,6.01370480004698,114.5268725999631,114.5268725999631,114.5268725999631,0.06287240004166961,0.1638527000322938,120.22668810002506,120.46000229986385,6.030407499987632,6.130389200057834,126.46010599983856,12.030579899903387,126.52674209978431,126.52674209978431,126.59334049979225,126.59334049979225,0.03053590003401041,0.13043059967458248,up,0.9983324999921024,127.64325369987637,4.7099776566028595e-05,0.11460469989106059,133.67695780005306,133.67695780005306,0.024883799720555544,0.13132109958678484,3.0,3.074026799760759,,,,,,,114.42641049996018,114.42641049996018,,,,,7461,Moral,2025-02-19_18h17.11.472,MoralCondition_v2,2022.2.5,29.959530664746445,
1,0,1,0,1,0,1,0,,,,,,,,,,,,,,,,,,,,,,,,,,,,,,,,,,,,,,,,,,,,,,,,,,,,,,136.77654280001298,136.77654280001298,0.0074212998151779175,0.097686099819839,2.0,1.991541899740696,,,,,,,,,,,,,7461,Moral,2025-02-19_18h17.11.472,MoralCondition_v2,2022.2.5,29.959530664746445,
1,0,1,0,2,0,2,0,,,,,,,,,,,,,,,,,,,,,,,,,,,,,,,,,,,,,,,,,,,,,,,,,,,,,,138.8267125999555,138.8267125999555,0.011079700198024511,0.11425290023908019,1.0,2.9708008002489805,,,,,,,,,,,,,7461,Moral,2025-02-19_18h17.11.472,MoralCondition_v2,2022.2.5,29.959530664746445,
1,0,1,0,3,0,3,0,,,,,,,,,,,,,,,,,,,,,,,,,,,,,,,,,,,,,,,,,,,,,,,,,,,,,,141.82664209976792,141.82664209976792,0.008491499815136194,0.09749059984460473,2.0,2.790519699919969,,,,,,,,,,,,,7461,Moral,2025-02-19_18h17.11.472,MoralCondition_v2,2022.2.5,29.959530664746445,
1,0,1,0,4,0,4,0,,,,,,,,,,,,,,,,,,,,,,,,,,,,,,,,,,,,,,,,,,,,,,,,,,,,,,144.66002580011263,144.66002580011263,0.0068212999030947685,0.09942469978705049,4.0,2.7268477003090084,,,,,,,,,,,,,7461,Moral,2025-02-19_18h17.11.472,MoralCondition_v2,2022.2.5,29.959530664746445,
1,0,1,0,5,0,5,0,,,,,,,,,,,,,,,,,,,,,,,,,,,,,,,,,,,,,,,,,,,,,,,,,,,,,,147.42654789984226,147.42654789984226,0.007469600066542625,0.09796130005270243,2.0,1.8578467997722328,,,,,,,,,,,,,7461,Moral,2025-02-19_18h17.11.472,MoralCondition_v2,2022.2.5,29.959530664746445,
1,0,1,0,6,0,6,0,,,,,,,,,,,,,,,,,,,,,,,,,,,,,,,,,,,,,,,,,,,,,,,,,,,,,,149.32667519990355,149.32667519990355,0.006347500253468752,0.09923919988796115,1.0,1.893729600124061,,,,,,,,,,,,,7461,Moral,2025-02-19_18h17.11.472,MoralCondition_v2,2022.2.5,29.959530664746445,
1,0,1,0,,,,,,,,,,,,,,,,,,,,,,,,,,,,,,,,,,,,,,,,,,,,,,,,,,,,,,,,,,,,,,,,151.26028680009767,151.26028680009767,0.000739899929612875,0.09948980016633868,6.0,2.7664803001098335,,,,,,,7461,Moral,2025-02-19_18h17.11.472,MoralCondition_v2,2022.2.5,29.959530664746445,
2,0,2,0,0,0,0,0,,,,,,,,,,,,,,,,,,,,,,154.06038569984958,0.00031529972329735756,0.11431149998679757,160.05999979982153,6.030851399991661,160.25997579982504,160.25997579982504,0.08626319980248809,0.19750169990584254,6.0308429999277,166.34372829971835,166.34372829971835,166.34372829971835,0.07420849986374378,0.18109679967164993,172.04340780014172,172.24341320013627,6.014274699613452,6.1143380999565125,178.24341739993542,12.014257999602705,178.34338530013338,178.34338530013338,178.37671669991687,178.37671669991687,0.014372799545526505,0.11415469972416759,down,1.6010982999578118,180.0100457998924,4.149973392486572e-05,0.09670110000297427,186.02677639992908,186.02677639992908,0.0072293998673558235,0.11366889998316765,5.0,4.6403994001448154,,,,,,,166.24330559978262,166.24330559978262,186.02677639992908,,,,7461,Moral,2025-02-19_18h17.11.472,MoralCondition_v2,2022.2.5,29.959530664746445,
2,0,2,0,1,0,1,0,,,,,,,,,,,,,,,,,,,,,,,,,,,,,,,,,,,,,,,,,,,,,,,,,,,,,,190.69326430000365,190.69326430000365,0.010028700344264507,0.09763059997931123,2.0,2.322893100325018,,,,,,,,,,,,,7461,Moral,2025-02-19_18h17.11.472,MoralCondition_v2,2022.2.5,29.959530664746445,
2,0,2,0,2,0,2,0,,,,,,,,,,,,,,,,,,,,,,,,,,,,,,,,,,,,,,,,,,,,,,,,,,,,,,193.06028789980337,193.06028789980337,0.005637400317937136,0.09904340002685785,5.0,3.394465799909085,,,,,,,,,,,,,7461,Moral,2025-02-19_18h17.11.472,MoralCondition_v2,2022.2.5,29.959530664746445,
2,0,2,0,3,0,3,0,,,,,,,,,,,,,,,,,,,,,,,,,,,,,,,,,,,,,,,,,,,,,,,,,,,,,,196.49327130010352,196.49327130010352,0.006630199961364269,0.09922489989548922,5.0,4.593539300374687,,,,,,,,,,,,,7461,Moral,2025-02-19_18h17.11.472,MoralCondition_v2,2022.2.5,29.959530664746445,
2,0,2,0,4,0,4,0,,,,,,,,,,,,,,,,,,,,,,,,,,,,,,,,,,,,,,,,,,,,,,,,,,,,,,201.12677709991112,201.12677709991112,0.006847400218248367,0.09911230020225048,6.0,2.0600552996620536,,,,,,,,,,,,,7461,Moral,2025-02-19_18h17.11.472,MoralCondition_v2,2022.2.5,29.959530664746445,
2,0,2,0,5,0,5,0,,,,,,,,,,,,,,,,,,,,,,,,,,,,,,,,,,,,,,,,,,,,,,,,,,,,,,203.24336769990623,203.24336769990623,0.008134900126606226,0.11412189994007349,6.0,2.073699099943042,,,,,,,,,,,,,7461,Moral,2025-02-19_18h17.11.472,MoralCondition_v2,2022.2.5,29.959530664746445,
2,0,2,0,6,0,6,0,,,,,,,,,,,,,,,,,,,,,,,,,,,,,,,,,,,,,,,,,,,,,,,,,,,,,,205.34335059998557,205.34335059998557,0.006697299890220165,0.09823799971491098,5.0,1.7261832999065518,,,,,,,,,,,,,7461,Moral,2025-02-19_18h17.11.472,MoralCondition_v2,2022.2.5,29.959530664746445,
2,0,2,0,,,,,,,,,,,,,,,,,,,,,,,,,,,,,,,,,,,,,,,,,,,,,,,,,,,,,,,,,,,,,,,,207.10991419991478,207.10991419991478,0.0015984997153282166,0.09718749998137355,2.0,2.8634668001905084,,,,,,,7461,Moral,2025-02-19_18h17.11.472,MoralCondition_v2,2022.2.5,29.959530664746445,
3,0,3,0,0,0,0,0,,,,,,,,,,,,,,,,,,,,,,210.0103644998744,0.00042799999937415123,0.09743049973621964,216.00995039986446,6.013812600169331,216.1766810999252,216.1766810999252,0.05858439998701215,0.16437399992719293,6.03082159999758,222.2933747000061,222.2933747000061,222.2933747000061,0.07377329980954528,0.18093069968745112,227.99337020004168,228.19349490012974,6.014195299707353,6.1140494998544455,234.19341169996187,12.014102999586612,234.29343449976295,234.29343449976295,234.32675370015204,234.32675370015204,0.01429549977183342,0.11421419959515333,down,1.80921440012753,236.17674019979313,3.83998267352581e-05,0.09809109987691045,242.19332529976964,242.19332529976964,0.025307999923825264,0.11493779998272657,5.0,5.757120900321752,,,,,,,222.17671399982646,222.17671399982646,,6.097327699884772,,,7461,Moral,2025-02-19_18h17.11.472,MoralCondition_v2,2022.2.5,29.959530664746445,
3,0,3,0,1,0,1,0,,,,,,,,,,,,,,,,,,,,,,,,,,,,,,,,,,,,,,,,,,,,,,,,,,,,,,247.99314970010892,247.99314970010892,0.007367599755525589,0.09814149979501963,6.0,2.6582040996290743,,,,,,,,,,,,,7461,Moral,2025-02-19_18h17.11.472,MoralCondition_v2,2022.2.5,29.959530664746445,
3,0,3,0,2,0,2,0,,,,,,,,,,,,,,,,,,,,,,,,,,,,,,,,,,,,,,,,,,,,,,,,,,,,,,250.71037899982184,250.71037899982184,0.007880899589508772,0.11409899964928627,5.0,3.2409761999733746,,,,,,,,,,,,,7461,Moral,2025-02-19_18h17.11.472,MoralCondition_v2,2022.2.5,29.959530664746445,
3,0,3,0,3,0,3,0,,,,,,,,,,,,,,,,,,,,,,,,,,,,,,,,,,,,,,,,,,,,,,,,,,,,,,253.97660759976134,253.97660759976134,0.00768880033865571,0.09811670007184148,6.0,1.6913922000676394,,,,,,,,,,,,,7461,Moral,2025-02-19_18h17.11.472,MoralCondition_v2,2022.2.5,29.959530664746445,
3,0,3,0,4,0,4,0,,,,,,,,,,,,,,,,,,,,,,,,,,,,,,,,,,,,,,,,,,,,,,,,,,,,,,255.7268546000123,255.7268546000123,0.008112399838864803,0.11396940005943179,6.0,1.407364800106734,,,,,,,,,,,,,7461,Moral,2025-02-19_18h17.11.472,MoralCondition_v2,2022.2.5,29.959530664746445,
3,0,3,0,5,0,5,0,,,,,,,,,,,,,,,,,,,,,,,,,,,,,,,,,,,,,,,,,,,,,,,,,,,,,,257.1602508998476,257.1602508998476,0.006736500188708305,0.09906630031764507,6.0,1.5935125998221338,,,,,,,,,,,,,7461,Moral,2025-02-19_18h17.11.472,MoralCondition_v2,2022.2.5,29.959530664746445,
3,0,3,0,6,0,6,0,,,,,,,,,,,,,,,,,,,,,,,,,,,,,,,,,,,,,,,,,,,,,,,,,,,,,,258.7934006997384,258.7934006997384,0.00542839989066124,0.09929750021547079,2.0,1.9616413000039756,,,,,,,,,,,,,7461,Moral,2025-02-19_18h17.11.472,MoralCondition_v2,2022.2.5,29.959530664746445,
3,0,3,0,,,,,,,,,,,,,,,,,,,,,,,,,,,,,,,,,,,,,,,,,,,,,,,,,,,,,,,,,,,,,,,,260.7934459000826,260.7934459000826,0.0007513999007642269,0.09882180020213127,2.0,3.066200400236994,,,,,,,7461,Moral,2025-02-19_18h17.11.472,MoralCondition_v2,2022.2.5,29.959530664746445,
4,0,4,0,0,0,0,0,,,,,,,,,,,,,,,,,,,,,,263.89371889969334,0.0003293999470770359,0.09771150024607778,269.91001989971846,6.014265799894929,270.143353600055,270.143353600055,0.13111399998888373,0.24759780010208488,6.014324299991131,276.1767083997838,276.1767083997838,276.1767083997838,0.06980070006102324,0.18145709997043014,281.8767041997053,282.076795599889,6.01436539972201,6.114390399772674,288.07672020001337,12.0142800998874,288.1767334998585,288.1767334998585,288.2100561996922,288.2100561996922,0.014452899806201458,0.11436299979686737,up,1.3981402995996177,289.6601011999883,4.0500424802303314e-05,0.11463910015299916,295.6600505998358,295.6600505998358,0.009078000206500292,0.09796310029923916,6.0,2.1230256999842823,,,,,,,,,295.6600505998358,,,,7461,Moral,2025-02-19_18h17.11.472,MoralCondition_v2,2022.2.5,29.959530664746445,
4,0,4,0,1,0,1,0,,,,,,,,,,,,,,,,,,,,,,,,,,,,,,,,,,,,,,,,,,,,,,,,,,,,,,297.8268867000006,297.8268867000006,0.0070456997491419315,0.09780129976570606,3.0,2.558538599871099,,,,,,,,,,,,,7461,Moral,2025-02-19_18h17.11.472,MoralCondition_v2,2022.2.5,29.959530664746445,
4,0,4,0,2,0,2,0,,,,,,,,,,,,,,,,,,,,,,,,,,,,,,,,,,,,,,,,,,,,,,,,,,,,,,300.4266550000757,300.4266550000757,0.007519000209867954,0.09835080010816455,2.0,1.7585146999917924,,,,,,,,,,,,,7461,Moral,2025-02-19_18h17.11.472,MoralCondition_v2,2022.2.5,29.959530664746445,
4,0,4,0,3,0,3,0,,,,,,,,,,,,,,,,,,,,,,,,,,,,,,,,,,,,,,,,,,,,,,,,,,,,,,302.2266329997219,302.2266329997219,0.006883800029754639,0.09871509997174144,2.0,1.526025400031358,,,,,,,,,,,,,7461,Moral,2025-02-19_18h17.11.472,MoralCondition_v2,2022.2.5,29.959530664746445,
4,0,4,0,4,0,4,0,,,,,,,,,,,,,,,,,,,,,,,,,,,,,,,,,,,,,,,,,,,,,,,,,,,,,,303.79362320015207,303.79362320015207,0.007488499861210585,0.09779369970783591,2.0,3.6248053000308573,,,,,,,,,,,,,7461,Moral,2025-02-19_18h17.11.472,MoralCondition_v2,2022.2.5,29.959530664746445,
4,0,4,0,5,0,5,0,,,,,,,,,,,,,,,,,,,,,,,,,,,,,,,,,,,,,,,,,,,,,,,,,,,,,,307.4600574998185,307.4600574998185,0.007867999840527773,0.09784849965944886,2.0,1.3246785998344421,,,,,,,,,,,,,7461,Moral,2025-02-19_18h17.11.472,MoralCondition_v2,2022.2.5,29.959530664746445,
4,0,4,0,6,0,6,0,,,,,,,,,,,,,,,,,,,,,,,,,,,,,,,,,,,,,,,,,,,,,,,,,,,,,,308.82662029983476,308.82662029983476,0.008540099952369928,0.09910929994657636,2.0,2.8247719001956284,,,,,,,,,,,,,7461,Moral,2025-02-19_18h17.11.472,MoralCondition_v2,2022.2.5,29.959530664746445,
4,0,4,0,,,,,,,,,,,,,,,,,,,,,,,,,,,,,,,,,,,,,,,,,,,,,,,,,,,,,,,,,,,,,,,,311.69366939971223,311.69366939971223,0.0006711999885737896,0.0991485002450645,6.0,2.1665686997585,,,,,,,7461,Moral,2025-02-19_18h17.11.472,MoralCondition_v2,2022.2.5,29.959530664746445,
5,0,5,0,0,0,0,0,,,,,,,,,,,,,,,,,,,,,,313.8934912998229,0.00015070009976625443,0.09924150025472045,319.89352210005745,5.999146200250834,320.0602076998912,320.0602076998912,0.06132919993251562,0.1657191002741456,5.999160199891776,326.1602730001323,326.1602730001323,326.1602730001323,0.058533300179988146,0.16606649989262223,331.86011449992657,332.0600769999437,5.999168999958783,6.099247899837792,338.0600489997305,11.999137800186872,338.1600660998374,338.1600660998374,338.19338019983843,338.19338019983843,-1.600012183189392e-05,0.09921489981934428,up,1.7190124997869134,339.96012890012935,4.429975524544716e-05,0.09804309997707605,345.9937462997623,345.9937462997623,0.025527399964630604,0.13184559997171164,3.0,5.240158800035715,,,,,,,326.0600978997536,326.0600978997536,,6.099098100326955,6.099210700020194,12.0991603997536,7461,Moral,2025-02-19_18h17.11.472,MoralCondition_v2,2022.2.5,29.959530664746445,
5,0,5,0,1,0,1,0,,,,,,,,,,,,,,,,,,,,,,,,,,,,,,,,,,,,,,,,,,,,,,,,,,,,,,351.276985200122,351.276985200122,0.009144200012087822,0.11391730001196265,2.0,1.5724904998205602,,,,,,,,,,,,,7461,Moral,2025-02-19_18h17.11.472,MoralCondition_v2,2022.2.5,29.959530664746445,
5,0,5,0,2,0,2,0,,,,,,,,,,,,,,,,,,,,,,,,,,,,,,,,,,,,,,,,,,,,,,,,,,,,,,352.8767224000767,352.8767224000767,0.006083499640226364,0.09928989969193935,6.0,4.794309500139207,,,,,,,,,,,,,7461,Moral,2025-02-19_18h17.11.472,MoralCondition_v2,2022.2.5,29.959530664746445,
5,0,5,0,3,0,3,0,,,,,,,,,,,,,,,,,,,,,,,,,,,,,,,,,,,,,,,,,,,,,,,,,,,,,,357.70995339984074,357.70995339984074,0.006740200333297253,0.09933610027655959,2.0,1.7602885998785496,,,,,,,,,,,,,7461,Moral,2025-02-19_18h17.11.472,MoralCondition_v2,2022.2.5,29.959530664746445,
5,0,5,0,4,0,4,0,,,,,,,,,,,,,,,,,,,,,,,,,,,,,,,,,,,,,,,,,,,,,,,,,,,,,,359.510129599832,359.510129599832,0.006577099673449993,0.0989971999078989,2.0,1.4269008999690413,,,,,,,,,,,,,7461,Moral,2025-02-19_18h17.11.472,MoralCondition_v2,2022.2.5,29.959530664746445,
5,0,5,0,5,0,5,0,,,,,,,,,,,,,,,,,,,,,,,,,,,,,,,,,,,,,,,,,,,,,,,,,,,,,,360.99347729980946,360.99347729980946,0.008820699993520975,0.11419889982789755,3.0,2.973054999951273,,,,,,,,,,,,,7461,Moral,2025-02-19_18h17.11.472,MoralCondition_v2,2022.2.5,29.959530664746445,
5,0,5,0,6,0,6,0,,,,,,,,,,,,,,,,,,,,,,,,,,,,,,,,,,,,,,,,,,,,,,,,,,,,,,363.99330609990284,363.99330609990284,0.006704199593514204,0.09918369958177209,2.0,1.5935347997583449,,,,,,,,,,,,,7461,Moral,2025-02-19_18h17.11.472,MoralCondition_v2,2022.2.5,29.959530664746445,
5,0,5,0,,,,,,,,,,,,,,,,,,,,,,,,,,,,,,,,,,,,,,,,,,,,,,,,,,,,,,,,,,,,,,,,365.6266469997354,365.6266469997354,0.0018180999904870987,0.09701369982212782,6.0,2.0297432001680136,,,,,,,7461,Moral,2025-02-19_18h17.11.472,MoralCondition_v2,2022.2.5,29.959530664746445,
6,0,6,0,0,0,0,0,,,,,,,,,,,,,,,,,,,,,,367.69357219990343,0.00040160026401281357,0.09768070001155138,373.69338640011847,6.031010000035167,373.8933461001143,373.8933461001143,0.09257110022008419,0.19803899992257357,6.031029699835926,379.99352010013536,379.99352010013536,379.99352010013536,0.09188139997422695,0.1978571000508964,385.6933581000194,385.89336569979787,6.0311102997511625,6.1312290001660585,391.8933899998665,12.031112600117922,391.99335550004616,391.99335550004616,392.0267193997279,392.0267193997279,0.031138299964368343,0.13097859965637326,down,1.3410398000851274,393.42675999971107,4.5200344175100327e-05,0.09796700021252036,399.4435375998728,399.4435375998728,0.009187899995595217,0.11480950005352497,5.0,4.673121700063348,,,,,,,379.8935738997534,379.8935738997534,399.4435375998728,,,,7461,Moral,2025-02-19_18h17.11.472,MoralCondition_v2,2022.2.5,29.959530664746445,
6,0,6,0,1,0,1,0,,,,,,,,,,,,,,,,,,,,,,,,,,,,,,,,,,,,,,,,,,,,,,,,,,,,,,404.14346799999475,404.14346799999475,0.007376300171017647,0.09787969989702106,5.0,1.5580800999887288,,,,,,,,,,,,,7461,Moral,2025-02-19_18h17.11.472,MoralCondition_v2,2022.2.5,29.959530664746445,
6,0,6,0,2,0,2,0,,,,,,,,,,,,,,,,,,,,,,,,,,,,,,,,,,,,,,,,,,,,,,,,,,,,,,405.7602675999515,405.7602675999515,0.008742100093513727,0.11412620032206178,6.0,1.6400156999006867,,,,,,,,,,,,,7461,Moral,2025-02-19_18h17.11.472,MoralCondition_v2,2022.2.5,29.959530664746445,
6,0,6,0,3,0,3,0,,,,,,,,,,,,,,,,,,,,,,,,,,,,,,,,,,,,,,,,,,,,,,,,,,,,,,407.42677479982376,407.42677479982376,0.006538200192153454,0.09912839997559786,2.0,1.8268642998300493,,,,,,,,,,,,,7461,Moral,2025-02-19_18h17.11.472,MoralCondition_v2,2022.2.5,29.959530664746445,
6,0,6,0,4,0,4,0,,,,,,,,,,,,,,,,,,,,,,,,,,,,,,,,,,,,,,,,,,,,,,,,,,,,,,409.2933634999208,409.2933634999208,0.00676820008084178,0.09913060022518039,6.0,1.7269339002668858,,,,,,,,,,,,,7461,Moral,2025-02-19_18h17.11.472,MoralCondition_v2,2022.2.5,29.959530664746445,
6,0,6,0,5,0,5,0,,,,,,,,,,,,,,,,,,,,,,,,,,,,,,,,,,,,,,,,,,,,,,,,,,,,,,411.0599525999278,411.0599525999278,0.0065818000584840775,0.09905500011518598,6.0,1.927136099897325,,,,,,,,,,,,,7461,Moral,2025-02-19_18h17.11.472,MoralCondition_v2,2022.2.5,29.959530664746445,
6,0,6,0,6,0,6,0,,,,,,,,,,,,,,,,,,,,,,,,,,,,,,,,,,,,,,,,,,,,,,,,,,,,,,413.0265540997498,413.0265540997498,0.007730700075626373,0.09783810004591942,6.0,1.2911986000835896,,,,,,,,,,,,,7461,Moral,2025-02-19_18h17.11.472,MoralCondition_v2,2022.2.5,29.959530664746445,
6,0,6,0,,,,,,,,,,,,,,,,,,,,,,,,,,,,,,,,,,,,,,,,,,,,,,,,,,,,,,,,,,,,,,,,414.3601172999479,414.3601172999479,0.0014051003381609917,0.09784700023010373,2.0,3.73135680006817,,,,,,,7461,Moral,2025-02-19_18h17.11.472,MoralCondition_v2,2022.2.5,29.959530664746445,
7,0,7,0,0,0,0,0,,,,,,,,,,,,,,,,,,,,,,418.1270256997086,0.0002580997534096241,0.09784760000184178,424.12671019975096,6.031217999756336,424.32691770000383,424.32691770000383,0.08479459956288338,0.1980302999727428,6.0313606997951865,430.42686619982123,430.42686619982123,430.42686619982123,0.08827459951862693,0.19796719960868359,436.1266954001039,436.3268996998668,6.031479299534112,6.131163699552417,442.32666719984263,12.031173799652606,442.4266818999313,442.4266818999313,442.46000539977103,442.46000539977103,0.03145189955830574,0.13113489979878068,up,1.371777799911797,443.8766934000887,4.350021481513977e-05,0.09812890039756894,449.8765183999203,449.8765183999203,0.006286900024861097,0.09787960024550557,3.0,4.659682500176132,,,,,,,430.32668319996446,430.32668319996446,449.8765183999203,,,,7461,Moral,2025-02-19_18h17.11.472,MoralCondition_v2,2022.2.5,29.959530664746445,
7,0,7,0,1,0,1,0,,,,,,,,,,,,,,,,,,,,,,,,,,,,,,,,,,,,,,,,,,,,,,,,,,,,,,454.57678589969873,454.57678589969873,0.0069566997699439526,0.09803529968485236,2.0,1.858496299944818,,,,,,,,,,,,,7461,Moral,2025-02-19_18h17.11.472,MoralCondition_v2,2022.2.5,29.959530664746445,
7,0,7,0,2,0,2,0,,,,,,,,,,,,,,,,,,,,,,,,,,,,,,,,,,,,,,,,,,,,,,,,,,,,,,456.47646869998425,456.47646869998425,0.007835500407963991,0.09776330040767789,3.0,2.090947600081563,,,,,,,,,,,,,7461,Moral,2025-02-19_18h17.11.472,MoralCondition_v2,2022.2.5,29.959530664746445,
7,0,7,0,3,0,3,0,,,,,,,,,,,,,,,,,,,,,,,,,,,,,,,,,,,,,,,,,,,,,,,,,,,,,,458.6098637999967,458.6098637999967,0.006644300185143948,0.09931730013340712,2.0,1.5935057001188397,,,,,,,,,,,,,7461,Moral,2025-02-19_18h17.11.472,MoralCondition_v2,2022.2.5,29.959530664746445,
7,0,7,0,4,0,4,0,,,,,,,,,,,,,,,,,,,,,,,,,,,,,,,,,,,,,,,,,,,,,,,,,,,,,,460.2434649998322,460.2434649998322,0.0067529999651014805,0.0993782002478838,2.0,0.9271003999747336,,,,,,,,,,,,,7461,Moral,2025-02-19_18h17.11.472,MoralCondition_v2,2022.2.5,29.959530664746445,
7,0,7,0,5,0,5,0,,,,,,,,,,,,,,,,,,,,,,,,,,,,,,,,,,,,,,,,,,,,,,,,,,,,,,461.21007189992815,461.21007189992815,0.0065591000020504,0.09907180024310946,3.0,3.0936968997120857,,,,,,,,,,,,,7461,Moral,2025-02-19_18h17.11.472,MoralCondition_v2,2022.2.5,29.959530664746445,
7,0,7,0,6,0,6,0,,,,,,,,,,,,,,,,,,,,,,,,,,,,,,,,,,,,,,,,,,,,,,,,,,,,,,464.3432939997874,464.3432939997874,0.00677519990131259,0.09915529983118176,6.0,2.2935418002307415,,,,,,,,,,,,,7461,Moral,2025-02-19_18h17.11.472,MoralCondition_v2,2022.2.5,29.959530664746445,
7,0,7,0,,,,,,,,,,,,,,,,,,,,,,,,,,,,,,,,,,,,,,,,,,,,,,,,,,,,,,,,,,,,,,,,466.6767678000033,466.6767678000033,0.0006385999731719494,0.0990599999204278,6.0,1.6330920001491904,,,,,,,7461,Moral,2025-02-19_18h17.11.472,MoralCondition_v2,2022.2.5,29.959530664746445,
8,0,8,0,0,0,0,0,,,,,,,,,,,,,,,,,,,,,,468.3437032997608,0.00019170017912983894,0.09885470010340214,474.35996569972485,6.015391299966723,474.526659199968,474.526659199968,0.07801990024745464,0.18224920006468892,6.0155269000679255,480.62676379969344,480.62676379969344,480.62676379969344,0.07618389977142215,0.18206000002101064,486.3268046998419,486.5268451999873,6.015639999881387,6.115389000158757,492.52664159983397,12.015377699863166,492.62666139984503,492.62666139984503,492.6600445001386,492.6600445001386,0.01563639985397458,0.11535739991813898,up,1.44397379970178,494.1599417999387,4.779966548085213e-05,0.09793219994753599,500.17658599978313,500.17658599978313,0.00914839981123805,0.11451229965314269,3.0,2.0395455001853406,,,,,,,480.52665559994057,480.52665559994057,500.17658599978313,,,,7461,Moral,2025-02-19_18h17.11.472,MoralCondition_v2,2022.2.5,29.959530664746445,
8,0,8,0,1,0,1,0,,,,,,,,,,,,,,,,,,,,,,,,,,,,,,,,,,,,,,,,,,,,,,,,,,,,,,502.2432061000727,502.2432061000727,0.0065366001799702644,0.09949010005220771,2.0,1.4934407002292573,,,,,,,,,,,,,7461,Moral,2025-02-19_18h17.11.472,MoralCondition_v2,2022.2.5,29.959530664746445,
8,0,8,0,2,0,2,0,,,,,,,,,,,,,,,,,,,,,,,,,,,,,,,,,,,,,,,,,,,,,,,,,,,,,,503.7765708998777,503.7765708998777,0.0079606999643147,0.09740239987149835,6.0,1.8237103996798396,,,,,,,,,,,,,7461,Moral,2025-02-19_18h17.11.472,MoralCondition_v2,2022.2.5,29.959530664746445,
8,0,8,0,3,0,3,0,,,,,,,,,,,,,,,,,,,,,,,,,,,,,,,,,,,,,,,,,,,,,,,,,,,,,,505.6601475998759,505.6601475998759,0.008986200205981731,0.11459759995341301,3.0,3.0069544999860227,,,,,,,,,,,,,7461,Moral,2025-02-19_18h17.11.472,MoralCondition_v2,2022.2.5,29.959530664746445,
8,0,8,0,4,0,4,0,,,,,,,,,,,,,,,,,,,,,,,,,,,,,,,,,,,,,,,,,,,,,,,,,,,,,,508.7102961000055,508.7102961000055,0.008257299661636353,0.1145488996990025,2.0,1.507449799682945,,,,,,,,,,,,,7461,Moral,2025-02-19_18h17.11.472,MoralCondition_v2,2022.2.5,29.959530664746445,
8,0,8,0,5,0,5,0,,,,,,,,,,,,,,,,,,,,,,,,,,,,,,,,,,,,,,,,,,,,,,,,,,,,,,510.26005599973723,510.26005599973723,0.010085500311106443,0.1145999999716878,2.0,0.9726068000309169,,,,,,,,,,,,,7461,Moral,2025-02-19_18h17.11.472,MoralCondition_v2,2022.2.5,29.959530664746445,
8,0,8,0,6,0,6,0,,,,,,,,,,,,,,,,,,,,,,,,,,,,,,,,,,,,,,,,,,,,,,,,,,,,,,511.2599869999103,511.2599869999103,0.006640799809247255,0.09902459988370538,2.0,2.6933782999403775,,,,,,,,,,,,,7461,Moral,2025-02-19_18h17.11.472,MoralCondition_v2,2022.2.5,29.959530664746445,
8,0,8,0,,,,,,,,,,,,,,,,,,,,,,,,,,,,,,,,,,,,,,,,,,,,,,,,,,,,,,,,,,,,,,,,513.993356899824,513.993356899824,0.00135379983112216,0.097635000012815,6.0,1.997652200050652,,,,,,,7461,Moral,2025-02-19_18h17.11.472,MoralCondition_v2,2022.2.5,29.959530664746445,
9,0,9,0,0,0,0,0,,,,,,,,,,,,,,,,,,,,,,516.0267119999044,0.00026429956778883934,0.09776029968634248,522.0431983997114,6.014353399630636,522.2099983999506,522.2099983999506,0.06830969965085387,0.18120579980313778,6.0143216997385025,528.3102078000084,528.3102078000084,528.3102078000084,0.06986219948157668,0.18123049940913916,534.0099589000456,534.2098693000153,6.014426299370825,6.114327499642968,540.2098542000167,12.014339799527079,540.309876400046,540.309876400046,540.3432197999209,540.3432197999209,0.014543899334967136,0.11425729934126139,down,1.6487031001597643,542.0431963000447,4.499964416027069e-05,0.0978736998513341,548.0430984999985,548.0430984999985,0.004382799845188856,0.09772090008482337,6.0,5.294501000083983,,,,,,,528.209913500119,528.209913500119,548.0430984999985,,,,7461,Moral,2025-02-19_18h17.11.472,MoralCondition_v2,2022.2.5,29.959530664746445,
9,0,9,0,1,0,1,0,,,,,,,,,,,,,,,,,,,,,,,,,,,,,,,,,,,,,,,,,,,,,,,,,,,,,,553.3766544000246,553.3766544000246,0.006818300113081932,0.09906940022483468,6.0,0.9933875999413431,,,,,,,,,,,,,7461,Moral,2025-02-19_18h17.11.472,MoralCondition_v2,2022.2.5,29.959530664746445,
9,0,9,0,2,0,2,0,,,,,,,,,,,,,,,,,,,,,,,,,,,,,,,,,,,,,,,,,,,,,,,,,,,,,,554.4268092000857,554.4268092000857,0.0084391999989748,0.11441330006346107,6.0,2.873523300047964,,,,,,,,,,,,,7461,Moral,2025-02-19_18h17.11.472,MoralCondition_v2,2022.2.5,29.959530664746445,
9,0,9,0,3,0,3,0,,,,,,,,,,,,,,,,,,,,,,,,,,,,,,,,,,,,,,,,,,,,,,,,,,,,,,557.3266742001288,557.3266742001288,0.008120100013911724,0.097724299877882,6.0,1.0570684000849724,,,,,,,,,,,,,7461,Moral,2025-02-19_18h17.11.472,MoralCondition_v2,2022.2.5,29.959530664746445,
9,0,9,0,4,0,4,0,,,,,,,,,,,,,,,,,,,,,,,,,,,,,,,,,,,,,,,,,,,,,,,,,,,,,,558.4269268997014,558.4269268997014,0.00830020010471344,0.09948420012369752,5.0,1.9918442000634968,,,,,,,,,,,,,7461,Moral,2025-02-19_18h17.11.472,MoralCondition_v2,2022.2.5,29.959530664746445,
9,0,9,0,5,0,5,0,,,,,,,,,,,,,,,,,,,,,,,,,,,,,,,,,,,,,,,,,,,,,,,,,,,,,,560.4597837999463,560.4597837999463,0.006857899948954582,0.0992666999809444,2.0,2.026867000386119,,,,,,,,,,,,,7461,Moral,2025-02-19_18h17.11.472,MoralCondition_v2,2022.2.5,29.959530664746445,
9,0,9,0,6,0,6,0,,,,,,,,,,,,,,,,,,,,,,,,,,,,,,,,,,,,,,,,,,,,,,,,,,,,,,562.5264662997797,562.5264662997797,0.00664820009842515,0.0992390001192689,5.0,8.4267314998433,,,,,,,,,,,,,7461,Moral,2025-02-19_18h17.11.472,MoralCondition_v2,2022.2.5,29.959530664746445,
9,0,9,0,,,,,,,,,,,,,,,,,,,,,,,,,,,,,,,,,,,,,,,,,,,,,,,,,,,,,,,,,,,,,,,,570.9931514998898,570.9931514998898,0.0012167003005743027,0.09771470027044415,2.0,2.2311774003319442,,,,,,,7461,Moral,2025-02-19_18h17.11.472,MoralCondition_v2,2022.2.5,29.959530664746445,
10,0,10,0,0,0,0,0,,,,,,,,,,,,,,,,,,,,,,573.2598183997907,0.0004373001866042614,0.09736429993063211,579.2598033999093,6.030757099855691,579.4598300997168,579.4598300997168,0.08699139999225736,0.1975377998314798,6.030751399695873,585.5264265998267,585.5264265998267,585.5264265998267,0.06366329966112971,0.16410589963197708,591.2265451001003,591.4597700997256,6.030728299636394,6.130709099583328,597.4597881999798,12.030746299773455,597.5264448998496,597.5264448998496,597.5931001999415,597.5931001999415,0.030823399778455496,0.13066709972918034,down,0.9592675999738276,598.5930685997009,4.9999915063381195e-05,0.09772199997678399,604.5930471997708,604.5930471997708,0.008915599901229143,0.09756000014021993,6.0,5.38973670033738,,,,,,,585.4429147997871,585.4429147997871,604.5930471997708,,,,7461,Moral,2025-02-19_18h17.11.472,MoralCondition_v2,2022.2.5,29.959530664746445,
10,0,10,0,1,0,1,0,,,,,,,,,,,,,,,,,,,,,,,,,,,,,,,,,,,,,,,,,,,,,,,,,,,,,,610.026266799774,610.026266799774,0.008003300055861473,0.09894529962912202,6.0,1.0252677998505533,,,,,,,,,,,,,7461,Moral,2025-02-19_18h17.11.472,MoralCondition_v2,2022.2.5,29.959530664746445,
10,0,10,0,2,0,2,0,,,,,,,,,,,,,,,,,,,,,,,,,,,,,,,,,,,,,,,,,,,,,,,,,,,,,,611.0930717997253,611.0930717997253,0.006789700128138065,0.09921020036563277,5.0,1.9602191001176834,,,,,,,,,,,,,7461,Moral,2025-02-19_18h17.11.472,MoralCondition_v2,2022.2.5,29.959530664746445,
10,0,10,0,3,0,3,0,,,,,,,,,,,,,,,,,,,,,,,,,,,,,,,,,,,,,,,,,,,,,,,,,,,,,,613.1099972999655,613.1099972999655,0.008406499866396189,0.11472220020368695,5.0,2.940354899968952,,,,,,,,,,,,,7461,Moral,2025-02-19_18h17.11.472,MoralCondition_v2,2022.2.5,29.959530664746445,
10,0,10,0,4,0,4,0,,,,,,,,,,,,,,,,,,,,,,,,,,,,,,,,,,,,,,,,,,,,,,,,,,,,,,616.0766464001499,616.0766464001499,0.0066328998655080795,0.09901349991559982,6.0,1.626672700047493,,,,,,,,,,,,,7461,Moral,2025-02-19_18h17.11.472,MoralCondition_v2,2022.2.5,29.959530664746445,
10,0,10,0,5,0,5,0,,,,,,,,,,,,,,,,,,,,,,,,,,,,,,,,,,,,,,,,,,,,,,,,,,,,,,617.7430052999407,617.7430052999407,0.007301799952983856,0.09809309989213943,2.0,1.6921916999854147,,,,,,,,,,,,,7461,Moral,2025-02-19_18h17.11.472,MoralCondition_v2,2022.2.5,29.959530664746445,
10,0,10,0,6,0,6,0,,,,,,,,,,,,,,,,,,,,,,,,,,,,,,,,,,,,,,,,,,,,,,,,,,,,,,619.4762194999494,619.4762194999494,0.007840499747544527,0.09790609963238239,6.0,1.6909365998581052,,,,,,,,,,,,,7461,Moral,2025-02-19_18h17.11.472,MoralCondition_v2,2022.2.5,29.959530664746445,
10,0,10,0,,,,,,,,,,,,,,,,,,,,,,,,,,,,,,,,,,,,,,,,,,,,,,,,,,,,,,,,,,,,,,,,621.2099600001238,621.2099600001238,0.0008028000593185425,0.09900860022753477,2.0,3.56612000009045,,,,,,,7461,Moral,2025-02-19_18h17.11.472,MoralCondition_v2,2022.2.5,29.959530664746445,
11,0,11,0,0,0,0,0,,,,,,,,,,,,,,,,,,,,,,624.8099058996886,0.00013849977403879166,0.09923719987273216,630.8262978000566,6.015838499646634,630.9931680997834,630.9931680997834,0.07790729962289333,0.18269329983741045,6.0157904997467995,637.0934629999101,637.0934629999101,637.0934629999101,0.0799594996497035,0.1824384997598827,642.793007100001,642.9932166999206,6.016040299553424,6.115718599408865,648.9930028999224,12.015825199428946,649.0929354997352,649.0929354997352,649.1262954999693,649.1262954999693,0.01592899952083826,0.11576339928433299,up,1.7139488002285361,650.8764264998026,4.9800146371126175e-05,0.09753639996051788,656.8929314999841,656.8929314999841,0.008873799815773964,0.11397629976272583,2.0,2.006233399733901,,,,,,,636.9930163999088,636.9930163999088,656.8929314999841,,,,7461,Moral,2025-02-19_18h17.11.472,MoralCondition_v2,2022.2.5,29.959530664746445,
11,0,11,0,1,0,1,0,,,,,,,,,,,,,,,,,,,,,,,,,,,,,,,,,,,,,,,,,,,,,,,,,,,,,,658.9262629998848,658.9262629998848,0.007671999745070934,0.0974902999587357,6.0,1.8573345001786947,,,,,,,,,,,,,7461,Moral,2025-02-19_18h17.11.472,MoralCondition_v2,2022.2.5,29.959530664746445,
11,0,11,0,2,0,2,0,,,,,,,,,,,,,,,,,,,,,,,,,,,,,,,,,,,,,,,,,,,,,,,,,,,,,,660.8431961997412,660.8431961997412,0.008416399825364351,0.11408980004489422,2.0,2.9065449996851385,,,,,,,,,,,,,7461,Moral,2025-02-19_18h17.11.472,MoralCondition_v2,2022.2.5,29.959530664746445,
11,0,11,0,3,0,3,0,,,,,,,,,,,,,,,,,,,,,,,,,,,,,,,,,,,,,,,,,,,,,,,,,,,,,,663.7761733001098,663.7761733001098,0.006739600095897913,0.09915179992094636,2.0,1.1267718002200127,,,,,,,,,,,,,7461,Moral,2025-02-19_18h17.11.472,MoralCondition_v2,2022.2.5,29.959530664746445,
11,0,11,0,4,0,4,0,,,,,,,,,,,,,,,,,,,,,,,,,,,,,,,,,,,,,,,,,,,,,,,,,,,,,,664.9428805997595,664.9428805997595,0.006599499844014645,0.09904749970883131,3.0,4.893529899884015,,,,,,,,,,,,,7461,Moral,2025-02-19_18h17.11.472,MoralCondition_v2,2022.2.5,29.959530664746445,
11,0,11,0,5,0,5,0,,,,,,,,,,,,,,,,,,,,,,,,,,,,,,,,,,,,,,,,,,,,,,,,,,,,,,669.8760750000365,669.8760750000365,0.008356399834156036,0.09890270000323653,3.0,1.8919184999540448,,,,,,,,,,,,,7461,Moral,2025-02-19_18h17.11.472,MoralCondition_v2,2022.2.5,29.959530664746445,
11,0,11,0,6,0,6,0,,,,,,,,,,,,,,,,,,,,,,,,,,,,,,,,,,,,,,,,,,,,,,,,,,,,,,671.8094067997299,671.8094067997299,0.0069104996509850025,0.0983033999800682,2.0,1.4589781002141535,,,,,,,,,,,,,7461,Moral,2025-02-19_18h17.11.472,MoralCondition_v2,2022.2.5,29.959530664746445,
11,0,11,0,,,,,,,,,,,,,,,,,,,,,,,,,,,,,,,,,,,,,,,,,,,,,,,,,,,,,,,,,,,,,,,,673.3095941999927,673.3095941999927,0.0007074996829032898,0.09926339983940125,6.0,2.0996993998996913,,,,,,,7461,Moral,2025-02-19_18h17.11.472,MoralCondition_v2,2022.2.5,29.959530664746445,
12,0,12,0,0,0,0,0,,,,,,,,,,,,,,,,,,,,,,675.4429087997414,0.000310700386762619,0.09725850028917193,681.4595113000832,6.014090600423515,681.6595179000869,681.6595179000869,0.10881790006533265,0.2141685001552105,6.01405130000785,687.726264799945,687.726264799945,687.726264799945,0.06979609979316592,0.1807201001793146,693.426245899871,693.6262579001486,6.013952999841422,6.113784899935126,699.6262014997192,12.013898900244385,699.7261616000906,699.7261616000906,699.7596132000908,699.7596132000908,0.014224200043827295,0.11378409992903471,up,1.7047790000215173,701.5261669997126,4.970002919435501e-05,0.09790789987891912,707.5260462998413,707.5260462998413,0.010718999896198511,0.09770349971950054,3.0,2.4882283001206815,,,,,,,,,707.5260462998413,,,,7461,Moral,2025-02-19_18h17.11.472,MoralCondition_v2,2022.2.5,29.959530664746445,
12,0,12,0,1,0,1,0,,,,,,,,,,,,,,,,,,,,,,,,,,,,,,,,,,,,,,,,,,,,,,,,,,,,,,710.0593228000216,710.0593228000216,0.006529599893838167,0.09913079999387264,3.0,1.5603728001005948,,,,,,,,,,,,,7461,Moral,2025-02-19_18h17.11.472,MoralCondition_v2,2022.2.5,29.959530664746445,
12,0,12,0,2,0,2,0,,,,,,,,,,,,,,,,,,,,,,,,,,,,,,,,,,,,,,,,,,,,,,,,,,,,,,711.6594251999632,711.6594251999632,0.006466099992394447,0.09926869999617338,2.0,1.3606631001457572,,,,,,,,,,,,,7461,Moral,2025-02-19_18h17.11.472,MoralCondition_v2,2022.2.5,29.959530664746445,
12,0,12,0,3,0,3,0,,,,,,,,,,,,,,,,,,,,,,,,,,,,,,,,,,,,,,,,,,,,,,,,,,,,,,713.0593296000734,713.0593296000734,0.006617899984121323,0.09920749999582767,2.0,1.9603643002919853,,,,,,,,,,,,,7461,Moral,2025-02-19_18h17.11.472,MoralCondition_v2,2022.2.5,29.959530664746445,
12,0,12,0,4,0,4,0,,,,,,,,,,,,,,,,,,,,,,,,,,,,,,,,,,,,,,,,,,,,,,,,,,,,,,715.059558399953,715.059558399953,0.007321799639612436,0.09817519970238209,2.0,0.7922081002034247,,,,,,,,,,,,,7461,Moral,2025-02-19_18h17.11.472,MoralCondition_v2,2022.2.5,29.959530664746445,
12,0,12,0,5,0,5,0,,,,,,,,,,,,,,,,,,,,,,,,,,,,,,,,,,,,,,,,,,,,,,,,,,,,,,715.892651699949,715.892651699949,0.006121900398284197,0.09867480024695396,6.0,1.7269859001971781,,,,,,,,,,,,,7461,Moral,2025-02-19_18h17.11.472,MoralCondition_v2,2022.2.5,29.959530664746445,
12,0,12,0,6,0,6,0,,,,,,,,,,,,,,,,,,,,,,,,,,,,,,,,,,,,,,,,,,,,,,,,,,,,,,717.6596631999128,717.6596631999128,0.007046299986541271,0.09822840010747313,2.0,1.5920404996722937,,,,,,,,,,,,,7461,Moral,2025-02-19_18h17.11.472,MoralCondition_v2,2022.2.5,29.959530664746445,
12,0,12,0,,,,,,,,,,,,,,,,,,,,,,,,,,,,,,,,,,,,,,,,,,,,,,,,,,,,,,,,,,,,,,,,719.2927489997819,719.2927489997819,0.001308599952608347,0.09788999985903502,6.0,2.0310162003152072,,,,,,,7461,Moral,2025-02-19_18h17.11.472,MoralCondition_v2,2022.2.5,29.959530664746445,
13,0,13,0,0,0,0,0,,,,,,,,,,,,,,,,,,,,,,721.3595992000774,0.0003233999013900757,0.0983552997931838,727.3425169000402,6.014503399841487,727.5260867998004,727.5260867998004,0.05341949965804815,0.16502249985933304,6.031397999729961,733.6425224998966,733.6425224998966,733.6425224998966,0.0725435996428132,0.1814057994633913,739.3425789000466,739.5427689999342,6.014829499647021,6.114578399807215,745.5426062000915,12.014624299481511,745.6426837998442,745.6426837998442,745.6760308998637,745.6760308998637,0.014918599743396044,0.11488669971004128,down,1.3721366999670863,747.0927852997556,4.299962893128395e-05,0.09776119980961084,753.0925759999081,753.0925759999081,0.006238899659365416,0.09799289982765913,6.0,3.5927055003121495,,,,,,,733.509354100097,733.509354100097,753.0925759999081,6.098081199917942,,,7461,Moral,2025-02-19_18h17.11.472,MoralCondition_v2,2022.2.5,29.959530664746445,
13,0,13,0,1,0,1,0,,,,,,,,,,,,,,,,,,,,,,,,,,,,,,,,,,,,,,,,,,,,,,,,,,,,,,756.7260310999118,756.7260310999118,0.006849800236523151,0.09890160011127591,6.0,1.2935647000558674,,,,,,,,,,,,,7461,Moral,2025-02-19_18h17.11.472,MoralCondition_v2,2022.2.5,29.959530664746445,
13,0,13,0,2,0,2,0,,,,,,,,,,,,,,,,,,,,,,,,,,,,,,,,,,,,,,,,,,,,,,,,,,,,,,758.0592648996972,758.0592648996972,0.006201000418514013,0.09939720015972853,2.0,2.594165800139308,,,,,,,,,,,,,7461,Moral,2025-02-19_18h17.11.472,MoralCondition_v2,2022.2.5,29.959530664746445,
13,0,13,0,3,0,3,0,,,,,,,,,,,,,,,,,,,,,,,,,,,,,,,,,,,,,,,,,,,,,,,,,,,,,,760.692681199871,760.692681199871,0.007633700035512447,0.09765359992161393,5.0,2.5910706003196537,,,,,,,,,,,,,7461,Moral,2025-02-19_18h17.11.472,MoralCondition_v2,2022.2.5,29.959530664746445,
13,0,13,0,4,0,4,0,,,,,,,,,,,,,,,,,,,,,,,,,,,,,,,,,,,,,,,,,,,,,,,,,,,,,,763.3260893998668,763.3260893998668,0.005995099898427725,0.09898879984393716,6.0,1.8939934000372887,,,,,,,,,,,,,7461,Moral,2025-02-19_18h17.11.472,MoralCondition_v2,2022.2.5,29.959530664746445,
13,0,13,0,5,0,5,0,,,,,,,,,,,,,,,,,,,,,,,,,,,,,,,,,,,,,,,,,,,,,,,,,,,,,,765.2593419998884,765.2593419998884,0.006609200034290552,0.0989180002361536,6.0,0.8268754999153316,,,,,,,,,,,,,7461,Moral,2025-02-19_18h17.11.472,MoralCondition_v2,2022.2.5,29.959530664746445,
13,0,13,0,6,0,6,0,,,,,,,,,,,,,,,,,,,,,,,,,,,,,,,,,,,,,,,,,,,,,,,,,,,,,,766.1257977997884,766.1257977997884,0.007502499967813492,0.09840680006891489,5.0,4.258380499668419,,,,,,,,,,,,,7461,Moral,2025-02-19_18h17.11.472,MoralCondition_v2,2022.2.5,29.959530664746445,
13,0,13,0,,,,,,,,,,,,,,,,,,,,,,,,,,,,,,,,,,,,,,,,,,,,,,,,,,,,,,,,,,,,,,,,770.426100899931,770.426100899931,0.0013793003745377064,0.09756140038371086,2.0,2.397491700015962,,,,,,,7461,Moral,2025-02-19_18h17.11.472,MoralCondition_v2,2022.2.5,29.959530664746445,
14,0,14,0,0,0,0,0,,,,,,,,,,,,,,,,,,,,,,772.8593458998948,0.0004599001258611679,0.09744260041043162,778.8593028001487,6.030749700032175,779.0592076000758,779.0592076000758,0.0925496001727879,0.19752700021490455,6.030648100189865,785.1592681999318,785.1592681999318,785.1592681999318,0.09203709987923503,0.19756080023944378,790.8593020001426,791.0592688000761,6.030668499879539,6.130585300270468,797.0592370997183,12.03062260011211,797.1592480000108,797.1592480000108,797.1925333999097,797.1925333999097,0.030799400061368942,0.1305307000875473,up,1.3114951001480222,798.5592422001064,6.469991058111191e-05,0.09776079980656505,804.5924387001432,804.5924387001432,0.025830999948084354,0.13125889981165528,3.0,3.0071205999702215,,,,,,,785.0592616000213,785.0592616000213,,,,,7461,Moral,2025-02-19_18h17.11.472,MoralCondition_v2,2022.2.5,29.959530664746445,
14,0,14,0,1,0,1,0,,,,,,,,,,,,,,,,,,,,,,,,,,,,,,,,,,,,,,,,,,,,,,,,,,,,,,807.6257317001,807.6257317001,0.006338000297546387,0.09926410019397736,2.0,2.3272396000102162,,,,,,,,,,,,,7461,Moral,2025-02-19_18h17.11.472,MoralCondition_v2,2022.2.5,29.959530664746445,
14,0,14,0,2,0,2,0,,,,,,,,,,,,,,,,,,,,,,,,,,,,,,,,,,,,,,,,,,,,,,,,,,,,,,810.0095067997463,810.0095067997463,0.008186700288206339,0.11422590026631951,2.0,2.1401510001160204,,,,,,,,,,,,,7461,Moral,2025-02-19_18h17.11.472,MoralCondition_v2,2022.2.5,29.959530664746445,
14,0,14,0,3,0,3,0,,,,,,,,,,,,,,,,,,,,,,,,,,,,,,,,,,,,,,,,,,,,,,,,,,,,,,812.1927955998108,812.1927955998108,0.007790999952703714,0.11406780034303665,2.0,1.6073071998544037,,,,,,,,,,,,,7461,Moral,2025-02-19_18h17.11.472,MoralCondition_v2,2022.2.5,29.959530664746445,
14,0,14,0,4,0,4,0,,,,,,,,,,,,,,,,,,,,,,,,,,,,,,,,,,,,,,,,,,,,,,,,,,,,,,813.8257122999057,813.8257122999057,0.0074880002066493034,0.0974049000069499,3.0,1.9909304999746382,,,,,,,,,,,,,7461,Moral,2025-02-19_18h17.11.472,MoralCondition_v2,2022.2.5,29.959530664746445,
14,0,14,0,5,0,5,0,,,,,,,,,,,,,,,,,,,,,,,,,,,,,,,,,,,,,,,,,,,,,,,,,,,,,,815.8592066001147,815.8592066001147,0.007551300339400768,0.0980667001567781,6.0,1.7914252001792192,,,,,,,,,,,,,7461,Moral,2025-02-19_18h17.11.472,MoralCondition_v2,2022.2.5,29.959530664746445,
14,0,14,0,6,0,6,0,,,,,,,,,,,,,,,,,,,,,,,,,,,,,,,,,,,,,,,,,,,,,,,,,,,,,,817.6927710999735,817.6927710999735,0.008878599852323532,0.09792979992926121,3.0,1.9901614002883434,,,,,,,,,,,,,7461,Moral,2025-02-19_18h17.11.472,MoralCondition_v2,2022.2.5,29.959530664746445,
14,0,14,0,,,,,,,,,,,,,,,,,,,,,,,,,,,,,,,,,,,,,,,,,,,,,,,,,,,,,,,,,,,,,,,,819.7258890997618,819.7258890997618,0.001578199677169323,0.09783490002155304,6.0,1.7978336000815034,,,,,,,7461,Moral,2025-02-19_18h17.11.472,MoralCondition_v2,2022.2.5,29.959530664746445,
15,0,15,0,0,0,0,0,,,,,,,,,,,,,,,,,,,,,,821.5593309998512,0.0003367997705936432,0.09781349962577224,827.5593571998179,6.031163999810815,827.7590228999034,827.7590228999034,0.08962509967386723,0.1976168998517096,6.030865199863911,833.859244399704,833.859244399704,833.859244399704,0.09100209968164563,0.19765969971194863,839.5591448000632,839.7591552999802,6.030931999441236,6.130916099529713,845.7592543000355,12.031053599435836,845.8591001001187,845.8591001001187,845.8925871998072,845.8925871998072,0.031021999660879374,0.13088299939408898,down,1.2668381999246776,847.2257987000048,1.4199875295162201e-05,0.11622079974040389,853.2425408000126,853.2425408000126,0.009808099828660488,0.11619090009480715,6.0,3.64093520026654,,,,,,,833.7591586997733,833.7591586997733,853.2425408000126,,,,7461,Moral,2025-02-19_18h17.11.472,MoralCondition_v2,2022.2.5,29.959530664746445,
15,0,15,0,1,0,1,0,,,,,,,,,,,,,,,,,,,,,,,,,,,,,,,,,,,,,,,,,,,,,,,,,,,,,,856.9090268998407,856.9090268998407,0.007469600066542625,0.0979949003085494,6.0,0.9579485999420285,,,,,,,,,,,,,7461,Moral,2025-02-19_18h17.11.472,MoralCondition_v2,2022.2.5,29.959530664746445,
15,0,15,0,2,0,2,0,,,,,,,,,,,,,,,,,,,,,,,,,,,,,,,,,,,,,,,,,,,,,,,,,,,,,,857.9091702001169,857.9091702001169,0.006692399736493826,0.09934049984440207,6.0,1.2602328998036683,,,,,,,,,,,,,7461,Moral,2025-02-19_18h17.11.472,MoralCondition_v2,2022.2.5,29.959530664746445,
15,0,15,0,3,0,3,0,,,,,,,,,,,,,,,,,,,,,,,,,,,,,,,,,,,,,,,,,,,,,,,,,,,,,,859.2093221000396,859.2093221000396,0.007040099706500769,0.09853799967095256,5.0,4.292678699828684,,,,,,,,,,,,,7461,Moral,2025-02-19_18h17.11.472,MoralCondition_v2,2022.2.5,29.959530664746445,
15,0,15,0,4,0,4,0,,,,,,,,,,,,,,,,,,,,,,,,,,,,,,,,,,,,,,,,,,,,,,,,,,,,,,863.5424588997848,863.5424588997848,0.007008799817413092,0.0976744000799954,2.0,2.5251418999396265,,,,,,,,,,,,,7461,Moral,2025-02-19_18h17.11.472,MoralCondition_v2,2022.2.5,29.959530664746445,
15,0,15,0,5,0,5,0,,,,,,,,,,,,,,,,,,,,,,,,,,,,,,,,,,,,,,,,,,,,,,,,,,,,,,866.1091513996944,866.1091513996944,0.0074767000041902065,0.0980534995906055,5.0,5.291515700053424,,,,,,,,,,,,,7461,Moral,2025-02-19_18h17.11.472,MoralCondition_v2,2022.2.5,29.959530664746445,
15,0,15,0,6,0,6,0,,,,,,,,,,,,,,,,,,,,,,,,,,,,,,,,,,,,,,,,,,,,,,,,,,,,,,871.4423475000076,871.4423475000076,0.0070962002500891685,0.09738760022446513,6.0,1.2580312001518905,,,,,,,,,,,,,7461,Moral,2025-02-19_18h17.11.472,MoralCondition_v2,2022.2.5,29.959530664746445,
15,0,15,0,,,,,,,,,,,,,,,,,,,,,,,,,,,,,,,,,,,,,,,,,,,,,,,,,,,,,,,,,,,,,,,,872.742458499968,872.742458499968,0.0012877997942268848,0.09769559977576137,1.0,2.364449499640614,,,,,,,7461,Moral,2025-02-19_18h17.11.472,MoralCondition_v2,2022.2.5,29.959530664746445,
16,0,16,0,0,0,0,0,,,,,,,,,,,,,,,,,,,,,,875.1423899000511,0.00038720015436410904,0.09729310031980276,881.1423526997678,6.030581300146878,881.3759487001225,881.3759487001225,0.11581740016117692,0.23029390024021268,6.030536700040102,887.442641499918,887.442641499918,887.442641499918,0.08469770010560751,0.19695529993623495,893.1423788997345,893.3423353000544,6.0305201997980475,6.130505399778485,899.3423429001123,12.03050829982385,899.4423981998116,899.4423981998116,899.4758100998588,899.4758100998588,0.030813700053840876,0.1304297996684909,down,8.451773600187153,907.9756490001455,4.750024527311325e-05,0.09797220025211573,913.9922036998905,913.9922036998905,0.010480400174856186,0.11450390005484223,5.0,5.338339400012046,,,,,,,,,913.9922036998905,,,,7461,Moral,2025-02-19_18h17.11.472,MoralCondition_v2,2022.2.5,29.959530664746445,
16,0,16,0,1,0,1,0,,,,,,,,,,,,,,,,,,,,,,,,,,,,,,,,,,,,,,,,,,,,,,,,,,,,,,919.3589864000678,919.3589864000678,0.007915500085800886,0.09769729990512133,6.0,3.7574215000495315,,,,,,,,,,,,,7461,Moral,2025-02-19_18h17.11.472,MoralCondition_v2,2022.2.5,29.959530664746445,
16,0,16,0,2,0,2,0,,,,,,,,,,,,,,,,,,,,,,,,,,,,,,,,,,,,,,,,,,,,,,,,,,,,,,923.1591016999446,923.1591016999446,0.007313099689781666,0.09805899998173118,6.0,1.425020500086248,,,,,,,,,,,,,7461,Moral,2025-02-19_18h17.11.472,MoralCondition_v2,2022.2.5,29.959530664746445,
16,0,16,0,3,0,3,0,,,,,,,,,,,,,,,,,,,,,,,,,,,,,,,,,,,,,,,,,,,,,,,,,,,,,,924.6255509997718,924.6255509997718,0.006451599765568972,0.09893199987709522,2.0,1.4272452001459897,,,,,,,,,,,,,7461,Moral,2025-02-19_18h17.11.472,MoralCondition_v2,2022.2.5,29.959530664746445,
16,0,16,0,4,0,4,0,,,,,,,,,,,,,,,,,,,,,,,,,,,,,,,,,,,,,,,,,,,,,,,,,,,,,,926.0921517000534,926.0921517000534,0.006467900238931179,0.09906879998743534,5.0,2.227059599943459,,,,,,,,,,,,,7461,Moral,2025-02-19_18h17.11.472,MoralCondition_v2,2022.2.5,29.959530664746445,
16,0,16,0,5,0,5,0,,,,,,,,,,,,,,,,,,,,,,,,,,,,,,,,,,,,,,,,,,,,,,,,,,,,,,928.3760850001127,928.3760850001127,0.008628500159829855,0.11473819985985756,6.0,1.3402474001049995,,,,,,,,,,,,,7461,Moral,2025-02-19_18h17.11.472,MoralCondition_v2,2022.2.5,29.959530664746445,
16,0,16,0,6,0,6,0,,,,,,,,,,,,,,,,,,,,,,,,,,,,,,,,,,,,,,,,,,,,,,,,,,,,,,929.7422112999484,929.7422112999484,0.007792300079017878,0.0978986001573503,6.0,1.1246633999980986,,,,,,,,,,,,,7461,Moral,2025-02-19_18h17.11.472,MoralCondition_v2,2022.2.5,29.959530664746445,
16,0,16,0,,,,,,,,,,,,,,,,,,,,,,,,,,,,,,,,,,,,,,,,,,,,,,,,,,,,,,,,,,,,,,,,930.9088471997529,930.9088471997529,0.0011852001771330833,0.09797360002994537,2.0,3.098166400101036,,,,,,,7461,Moral,2025-02-19_18h17.11.472,MoralCondition_v2,2022.2.5,29.959530664746445,
17,0,17,0,0,0,0,0,,,,,,,,,,,,,,,,,,,,,,934.0422430001199,0.0003575999289751053,0.0974914999678731,940.0588353998028,6.013950900174677,940.2256271000952,940.2256271000952,0.06880579981952906,0.18075909977778792,6.01391279976815,946.3255360997282,946.3255360997282,946.3255360997282,0.06879399996250868,0.18086649989709258,952.0255057001486,952.2254913998768,6.013959399890155,6.1138820997439325,958.2255695001222,12.014002799987793,958.3254812001251,958.3254812001251,958.3587972000241,958.3587972000241,0.014076799619942904,0.11386009957641363,up,2.769235400017351,961.1754669998772,4.850002005696297e-05,0.09786170022562146,967.20897219982,967.20897219982,0.02547350013628602,0.1314381998963654,5.0,5.0735583999194205,,,,,,,946.225551399868,946.225551399868,,,,,7461,Moral,2025-02-19_18h17.11.472,MoralCondition_v2,2022.2.5,29.959530664746445,
17,0,17,0,1,0,1,0,,,,,,,,,,,,,,,,,,,,,,,,,,,,,,,,,,,,,,,,,,,,,,,,,,,,,,972.3085680999793,972.3085680999793,0.007512799929827452,0.09781229961663485,6.0,1.6245423997752368,,,,,,,,,,,,,7461,Moral,2025-02-19_18h17.11.472,MoralCondition_v2,2022.2.5,29.959530664746445,
17,0,17,0,2,0,2,0,,,,,,,,,,,,,,,,,,,,,,,,,,,,,,,,,,,,,,,,,,,,,,,,,,,,,,973.9754910999909,973.9754910999909,0.006831100210547447,0.09914589999243617,2.0,1.6933683999814093,,,,,,,,,,,,,7461,Moral,2025-02-19_18h17.11.472,MoralCondition_v2,2022.2.5,29.959530664746445,
17,0,17,0,3,0,3,0,,,,,,,,,,,,,,,,,,,,,,,,,,,,,,,,,,,,,,,,,,,,,,,,,,,,,,975.7087484998628,975.7087484998628,0.006543799769133329,0.09917999990284443,3.0,2.860450000036508,,,,,,,,,,,,,7461,Moral,2025-02-19_18h17.11.472,MoralCondition_v2,2022.2.5,29.959530664746445,
17,0,17,0,4,0,4,0,,,,,,,,,,,,,,,,,,,,,,,,,,,,,,,,,,,,,,,,,,,,,,,,,,,,,,978.6089280000888,978.6089280000888,0.008320600260049105,0.098008600063622,2.0,1.3906716001220047,,,,,,,,,,,,,7461,Moral,2025-02-19_18h17.11.472,MoralCondition_v2,2022.2.5,29.959530664746445,
17,0,17,0,5,0,5,0,,,,,,,,,,,,,,,,,,,,,,,,,,,,,,,,,,,,,,,,,,,,,,,,,,,,,,980.0422546998598,980.0422546998598,0.0092803998850286,0.09797189990058541,2.0,5.122954600024968,,,,,,,,,,,,,7461,Moral,2025-02-19_18h17.11.472,MoralCondition_v2,2022.2.5,29.959530664746445,
17,0,17,0,6,0,6,0,,,,,,,,,,,,,,,,,,,,,,,,,,,,,,,,,,,,,,,,,,,,,,,,,,,,,,985.2091564000584,985.2091564000584,0.007366199977695942,0.09838900016620755,3.0,2.525226100347936,,,,,,,,,,,,,7461,Moral,2025-02-19_18h17.11.472,MoralCondition_v2,2022.2.5,29.959530664746445,
17,0,17,0,,,,,,,,,,,,,,,,,,,,,,,,,,,,,,,,,,,,,,,,,,,,,,,,,,,,,,,,,,,,,,,,987.775485899765,987.775485899765,0.0006833998486399651,0.0990705001167953,6.0,1.7996621998026967,,,,,,,7461,Moral,2025-02-19_18h17.11.472,MoralCondition_v2,2022.2.5,29.959530664746445,
18,0,18,0,0,0,0,0,,,,,,,,,,,,,,,,,,,,,,989.6089102998376,0.00014160014688968658,0.09903920022770762,995.5918438998051,6.0155040002427995,995.775416799821,995.775416799821,0.061272900085896254,0.16585580026730895,6.032333599869162,1001.9090378996916,1001.9090378996916,1001.9090378996916,0.09150000009685755,0.1992224999703467,1007.6086901999079,1007.8088515000418,5.9993018000386655,6.099101100116968,1013.8086341000162,12.03230750001967,1013.9086710000411,1013.9086710000411,1013.9419488999993,1013.9419488999993,0.032522200141102076,0.13229489978402853,up,1.3136470997706056,1015.3086006999947,2.510007470846176e-05,0.09839789988473058,1021.3254538998008,1021.3254538998008,0.00970020005479455,0.11506790015846491,2.0,1.7397544998675585,,,,,,,1001.7755975001492,1001.7755975001492,1021.3254538998008,6.099043700378388,,,7461,Moral,2025-02-19_18h17.11.472,MoralCondition_v2,2022.2.5,29.959530664746445,
18,0,18,0,1,0,1,0,,,,,,,,,,,,,,,,,,,,,,,,,,,,,,,,,,,,,,,,,,,,,,,,,,,,,,1023.0919665996917,1023.0919665996917,0.007335000205785036,0.09923030016943812,3.0,3.7594767999835312,,,,,,,,,,,,,7461,Moral,2025-02-19_18h17.11.472,MoralCondition_v2,2022.2.5,29.959530664746445,
18,0,18,0,2,0,2,0,,,,,,,,,,,,,,,,,,,,,,,,,,,,,,,,,,,,,,,,,,,,,,,,,,,,,,1026.9088403000496,1026.9088403000496,0.00838000001385808,0.11491850018501282,3.0,1.540698400232941,,,,,,,,,,,,,7461,Moral,2025-02-19_18h17.11.472,MoralCondition_v2,2022.2.5,29.959530664746445,
18,0,18,0,3,0,3,0,,,,,,,,,,,,,,,,,,,,,,,,,,,,,,,,,,,,,,,,,,,,,,,,,,,,,,1028.4752156999893,1028.4752156999893,0.006891400087624788,0.09916360024362803,2.0,1.7599280001595616,,,,,,,,,,,,,7461,Moral,2025-02-19_18h17.11.472,MoralCondition_v2,2022.2.5,29.959530664746445,
18,0,18,0,4,0,4,0,,,,,,,,,,,,,,,,,,,,,,,,,,,,,,,,,,,,,,,,,,,,,,,,,,,,,,1030.275119899772,1030.275119899772,0.008175699971616268,0.09792139986529946,2.0,1.4240604997612536,,,,,,,,,,,,,7461,Moral,2025-02-19_18h17.11.472,MoralCondition_v2,2022.2.5,29.959530664746445,
18,0,18,0,5,0,5,0,,,,,,,,,,,,,,,,,,,,,,,,,,,,,,,,,,,,,,,,,,,,,,,,,,,,,,1031.7419703998603,1031.7419703998603,0.0075090001337230206,0.09754229988902807,6.0,1.7910744999535382,,,,,,,,,,,,,7461,Moral,2025-02-19_18h17.11.472,MoralCondition_v2,2022.2.5,29.959530664746445,
18,0,18,0,6,0,6,0,,,,,,,,,,,,,,,,,,,,,,,,,,,,,,,,,,,,,,,,,,,,,,,,,,,,,,1033.5751037998125,1033.5751037998125,0.00715920003131032,0.09809250012040138,3.0,2.3922522999346256,,,,,,,,,,,,,7461,Moral,2025-02-19_18h17.11.472,MoralCondition_v2,2022.2.5,29.959530664746445,
18,0,18,0,,,,,,,,,,,,,,,,,,,,,,,,,,,,,,,,,,,,,,,,,,,,,,,,,,,,,,,,,,,,,,,,1036.0086346999742,1036.0086346999742,0.0006947997026145458,0.09909019991755486,6.0,1.6663450999185443,,,,,,,7461,Moral,2025-02-19_18h17.11.472,MoralCondition_v2,2022.2.5,29.959530664746445,
19,0,19,0,0,0,0,0,,,,,,,,,,,,,,,,,,,,,,1037.7086403998546,0.00017149979248642921,0.09923599986359477,1043.6917575998232,6.01553069986403,1043.875195699744,1043.875195699744,0.05454189982265234,0.16582199977710843,5.999042499810457,1049.97555870004,1049.97555870004,1049.97555870004,0.05465739965438843,0.165652499999851,1055.6751665999182,1055.9085272001103,6.03230859991163,6.13236889988184,1061.908473199699,12.032188499812037,1061.9751134999096,1061.9751134999096,1062.041775399819,1062.041775399819,0.03244499955326319,0.13218519976362586,down,0.46192270005121827,1062.5420127999969,4.449998959898949e-05,0.09826140012592077,1068.5416298997588,1068.5416298997588,0.007586800027638674,0.0980234001763165,6.0,6.124865400139242,,,,,,,1049.875186599791,1049.875186599791,1068.5416298997588,6.098870299756527,6.098972300067544,,7461,Moral,2025-02-19_18h17.11.472,MoralCondition_v2,2022.2.5,29.959530664746445,
19,0,19,0,1,0,1,0,,,,,,,,,,,,,,,,,,,,,,,,,,,,,,,,,,,,,,,,,,,,,,,,,,,,,,1074.708501599729,1074.708501599729,0.00670200027525425,0.09948950028046966,5.0,2.294424199964851,,,,,,,,,,,,,7461,Moral,2025-02-19_18h17.11.472,MoralCondition_v2,2022.2.5,29.959530664746445,
19,0,19,0,2,0,2,0,,,,,,,,,,,,,,,,,,,,,,,,,,,,,,,,,,,,,,,,,,,,,,,,,,,,,,1077.0586230996996,1077.0586230996996,0.008133800234645605,0.11487120017409325,5.0,2.3408209001645446,,,,,,,,,,,,,7461,Moral,2025-02-19_18h17.11.472,MoralCondition_v2,2022.2.5,29.959530664746445,
19,0,19,0,3,0,3,0,,,,,,,,,,,,,,,,,,,,,,,,,,,,,,,,,,,,,,,,,,,,,,,,,,,,,,1079.4251208999194,1079.4251208999194,0.007391400169581175,0.09781960025429726,2.0,1.6917240996845067,,,,,,,,,,,,,7461,Moral,2025-02-19_18h17.11.472,MoralCondition_v2,2022.2.5,29.959530664746445,
19,0,19,0,4,0,4,0,,,,,,,,,,,,,,,,,,,,,,,,,,,,,,,,,,,,,,,,,,,,,,,,,,,,,,1081.1584243001416,1081.1584243001416,0.006651600357145071,0.09927040012553334,6.0,2.0934315999038517,,,,,,,,,,,,,7461,Moral,2025-02-19_18h17.11.472,MoralCondition_v2,2022.2.5,29.959530664746445,
19,0,19,0,5,0,5,0,,,,,,,,,,,,,,,,,,,,,,,,,,,,,,,,,,,,,,,,,,,,,,,,,,,,,,1083.3087514000945,1083.3087514000945,0.008038099855184555,0.11411979980766773,6.0,1.5069213001988828,,,,,,,,,,,,,7461,Moral,2025-02-19_18h17.11.472,MoralCondition_v2,2022.2.5,29.959530664746445,
19,0,19,0,6,0,6,0,,,,,,,,,,,,,,,,,,,,,,,,,,,,,,,,,,,,,,,,,,,,,,,,,,,,,,1084.858653599862,1084.858653599862,0.007987100165337324,0.11446789978072047,5.0,3.207431099843234,,,,,,,,,,,,,7461,Moral,2025-02-19_18h17.11.472,MoralCondition_v2,2022.2.5,29.959530664746445,
19,0,19,0,,,,,,,,,,,,,,,,,,,,,,,,,,,,,,,,,,,,,,,,,,,,,,,,,,,,,,,,,,,,,,,,1088.0918012997136,1088.0918012997136,0.0006913002580404282,0.09953470015898347,2.0,3.69989430019632,,,,,,,7461,Moral,2025-02-19_18h17.11.472,MoralCondition_v2,2022.2.5,29.959530664746445,
