loop.thisRepN,loop.thisTrialN,loop.thisN,loop.thisIndex,evaluate_all_emotions.thisRepN,evaluate_all_emotions.thisTrialN,evaluate_all_emotions.thisN,evaluate_all_emotions.thisIndex,sync_beep_1.started,p_port.started,p_port.stopped,sync_beep_1.stopped,sync_beep_2.started,sync_beep_2.stopped,sync_beep_3.started,sync_beep_3.stopped,sync_beep_4.started,sync_beep_4.stopped,baseline.started,p_port_2.started,p_port_2.stopped,baseline.stopped,p_port_3.started,Game_Start_Text.started,p_port_4.started,p_port_4.stopped,key_resp.started,key_resp.keys,key_resp.rt,fixation_cross.started,p_port_5.started,p_port_5.stopped,fixation_cross.stopped,p_port_6.started,player_image_intro.started,player_name_intro.started,p_port_7.started,p_port_7.stopped,p_port_8.started,player_image_offer.started,player_name_offer.started,proposed_split.started,p_port_9.started,p_port_9.stopped,proposed_split.stopped,accept_reject.started,p_port_15.started,p_port_15.stopped,accept_reject.stopped,p_port_10.started,arrow_instructions.started,offer_choice.started,p_port_11.started,p_port_11.stopped,offer_choice.keys,offer_choice.rt,Instructions_Affinity_Score.started,p_port_12.started,p_port_12.stopped,Emotion_Image.started,AffinityScore.started,p_port_13.started,p_port_13.stopped,AffinityScore.response,AffinityScore.rt,Instruction.started,Moral_Disgust_Score.started,p_port_14.started,p_port_14.stopped,Moral_Disgust_Score.response,Moral_Disgust_Score.rt,player_image_offer.stopped,player_name_offer.stopped,Instructions_Affinity_Score.stopped,player_image_intro.stopped,player_name_intro.stopped,p_port_6.stopped,p_port_8.stopped,p_port_10.stopped,participant,session,date,expName,psychopyVersion,frameRate,
,,,,,,,,20.257747580483553,0.0008367002010345459,0.11150480061769485,20.579858399927616,20.84634894002229,21.14646909944713,21.44652143921703,21.746462799608707,22.046372939459978,22.363147599622607,22.363147599622607,0.028022400103509426,0.12808100041002035,37.37989440001547,15.011439700610936,37.480064399540424,0.011466600932180882,0.11161470133811235,37.94659649953246,space,2.7850274005904794,,,,,,,,,,,,,,,,,,,,,,,,,,,,,,,,,,,,,,,,,,,,,,,,,,,8536,Moral,2024-12-10_12h22.48.282,MoralCondition_v2,2022.2.5,30.011878701200324,
0,0,0,0,0,0,0,0,,,,,,,,,,,,,,,,,,,,,,40.796550899744034,0.007021400146186352,0.09835069999098778,46.79659859929234,6.031778700649738,47.09649539925158,47.09649539925158,0.1578715005889535,0.2982434006407857,6.031736300326884,53.129843699745834,53.129843699745834,53.129843699745834,0.09810310136526823,0.2316579008474946,58.829961999319494,58.99661389924586,6.0318185007199645,6.1317034009844065,64.9965956993401,12.031776101328433,65.12994849961251,65.12994849961251,0.03195360116660595,0.1318994015455246,up,5.9374707993119955,71.12988779973239,5.089957267045975e-05,0.08566789980977774,77.16359819937497,77.16359819937497,0.01667569950222969,0.11888759955763817,3.0,6.136757699772716,,,,,,,,,,,,,,,8536,Moral,2024-12-10_12h22.48.282,MoralCondition_v2,2022.2.5,30.011878701200324,
0,0,0,0,1,0,1,0,,,,,,,,,,,,,,,,,,,,,,,,,,,,,,,,,,,,,,,,,,,,,,,,,,,,83.32977549917996,83.32977549917996,0.00914790015667677,0.0992128998041153,5.0,10.62450909987092,,,,,,,,,,,,,,,8536,Moral,2024-12-10_12h22.48.282,MoralCondition_v2,2022.2.5,30.011878701200324,
0,0,0,0,2,0,2,0,,,,,,,,,,,,,,,,,,,,,,,,,,,,,,,,,,,,,,,,,,,,,,,,,,,,93.99653499945998,93.99653499945998,0.009218699298799038,0.09795579966157675,4.0,4.4898739997297525,,,,,,,,,,,,,,,8536,Moral,2024-12-10_12h22.48.282,MoralCondition_v2,2022.2.5,30.011878701200324,
0,0,0,0,3,0,3,0,,,,,,,,,,,,,,,,,,,,,,,,,,,,,,,,,,,,,,,,,,,,,,,,,,,,98.52992409933358,98.52992409933358,0.011132299900054932,0.09778840001672506,3.0,20.054388499818742,,,,,,,,,,,,,,,8536,Moral,2024-12-10_12h22.48.282,MoralCondition_v2,2022.2.5,30.011878701200324,
0,0,0,0,4,0,4,0,,,,,,,,,,,,,,,,,,,,,,,,,,,,,,,,,,,,,,,,,,,,,,,,,,,,118.6298485994339,118.6298485994339,0.010317799635231495,0.09780669957399368,5.0,5.621909299865365,,,,,,,,,,,,,,,8536,Moral,2024-12-10_12h22.48.282,MoralCondition_v2,2022.2.5,30.011878701200324,
0,0,0,0,5,0,5,0,,,,,,,,,,,,,,,,,,,,,,,,,,,,,,,,,,,,,,,,,,,,,,,,,,,,124.31338069960475,124.31338069960475,0.010193400084972382,0.11426899954676628,4.0,7.871652199886739,,,,,,,,,,,,,,,8536,Moral,2024-12-10_12h22.48.282,MoralCondition_v2,2022.2.5,30.011878701200324,
0,0,0,0,6,0,6,0,,,,,,,,,,,,,,,,,,,,,,,,,,,,,,,,,,,,,,,,,,,,,,,,,,,,132.2298812996596,132.2298812996596,0.011060100048780441,0.11417710036039352,3.0,3.3377450006082654,,,,,,,,,,,,,,,8536,Moral,2024-12-10_12h22.48.282,MoralCondition_v2,2022.2.5,30.011878701200324,
0,0,0,0,,,,,,,,,,,,,,,,,,,,,,,,,,,,,,,,,,,,,,,,,,,,,,,,,,,,,,,,,,,,,,135.59670429956168,135.59670429956168,0.000727800652384758,0.099065400660038,4.0,9.166092799976468,,,,,,,,,8536,Moral,2024-12-10_12h22.48.282,MoralCondition_v2,2022.2.5,30.011878701200324,
1,0,1,0,0,0,0,0,,,,,,,,,,,,,,,,,,,,,,144.79685739986598,0.0002934001386165619,0.09731980040669441,150.79664069972932,6.030657200142741,151.06329689919949,151.06329689919949,0.1558908000588417,0.2639238005504012,6.0306044006720185,157.0967277996242,157.0967277996242,157.0967277996242,0.09024270065128803,0.19730220083147287,162.79670899920166,162.99686779920012,6.030932300724089,6.130949201062322,168.99672449938953,12.030721200630069,169.1301853992045,169.1301853992045,0.03112540114670992,0.13062120135873556,up,1.7934692008420825,170.96336429938674,4.0199607610702515e-05,0.09785120002925396,176.99657009914517,176.99657009914517,0.028194299899041653,0.13125189952552319,5.0,6.803929199464619,,,,,,,169.0968643995002,169.0968643995002,,,,,,,8536,Moral,2024-12-10_12h22.48.282,MoralCondition_v2,2022.2.5,30.011878701200324,
1,0,1,0,1,0,1,0,,,,,,,,,,,,,,,,,,,,,,,,,,,,,,,,,,,,,,,,,,,,,,,,,,,,183.82995729986578,183.82995729986578,0.007904600352048874,0.09765189979225397,5.0,5.090715600177646,,,,,,,,,,,,,,,8536,Moral,2024-12-10_12h22.48.282,MoralCondition_v2,2022.2.5,30.011878701200324,
1,0,1,0,2,0,2,0,,,,,,,,,,,,,,,,,,,,,,,,,,,,,,,,,,,,,,,,,,,,,,,,,,,,188.9634998999536,188.9634998999536,0.006943199783563614,0.09900170005857944,5.0,3.7271079001948237,,,,,,,,,,,,,,,8536,Moral,2024-12-10_12h22.48.282,MoralCondition_v2,2022.2.5,30.011878701200324,
1,0,1,0,3,0,3,0,,,,,,,,,,,,,,,,,,,,,,,,,,,,,,,,,,,,,,,,,,,,,,,,,,,,192.72985519934446,192.72985519934446,0.007182599976658821,0.0979645000770688,5.0,2.258386000059545,,,,,,,,,,,,,,,8536,Moral,2024-12-10_12h22.48.282,MoralCondition_v2,2022.2.5,30.011878701200324,
1,0,1,0,4,0,4,0,,,,,,,,,,,,,,,,,,,,,,,,,,,,,,,,,,,,,,,,,,,,,,,,,,,,195.0298204999417,195.0298204999417,0.007570899091660976,0.0987916998565197,5.0,3.8920002998784184,,,,,,,,,,,,,,,8536,Moral,2024-12-10_12h22.48.282,MoralCondition_v2,2022.2.5,30.011878701200324,
1,0,1,0,5,0,5,0,,,,,,,,,,,,,,,,,,,,,,,,,,,,,,,,,,,,,,,,,,,,,,,,,,,,198.98057759925723,198.98057759925723,0.007698300294578075,0.11438999976962805,6.0,5.307711400091648,,,,,,,,,,,,,,,8536,Moral,2024-12-10_12h22.48.282,MoralCondition_v2,2022.2.5,30.011878701200324,
1,0,1,0,6,0,6,0,,,,,,,,,,,,,,,,,,,,,,,,,,,,,,,,,,,,,,,,,,,,,,,,,,,,204.31333419959992,204.31333419959992,0.0063377004116773605,0.09894040040671825,5.0,2.427005600184202,,,,,,,,,,,,,,,8536,Moral,2024-12-10_12h22.48.282,MoralCondition_v2,2022.2.5,30.011878701200324,
1,0,1,0,,,,,,,,,,,,,,,,,,,,,,,,,,,,,,,,,,,,,,,,,,,,,,,,,,,,,,,,,,,,,,206.78011849988252,206.78011849988252,0.0008062999695539474,0.09914840012788773,7.0,10.399511000141501,,,,,,,,,8536,Moral,2024-12-10_12h22.48.282,MoralCondition_v2,2022.2.5,30.011878701200324,
2,0,2,0,0,0,0,0,,,,,,,,,,,,,,,,,,,,,,217.21362879965454,0.0002576000988483429,0.09811559971421957,223.2136941999197,6.031722499988973,223.56373179983348,223.56373179983348,0.232617300003767,0.34824120067059994,6.014888999983668,229.49664979986846,229.49664979986846,229.49664979986846,0.07418500073254108,0.18153960071504116,235.19676729943603,235.3967614993453,6.01478570047766,6.1147201005369425,241.3967438992113,12.014744200743735,241.53006589971483,241.53006589971483,0.015209101140499115,0.114851800724864,down,1.9213819997385144,243.51356879994273,4.4500455260276794e-05,0.09864959958940744,249.53046989999712,249.53046989999712,0.010066299699246883,0.11497270036488771,6.0,5.172605199739337,,,,,,,241.49678149912506,241.49678149912506,249.53046989999712,,,,,,8536,Moral,2024-12-10_12h22.48.282,MoralCondition_v2,2022.2.5,30.011878701200324,
2,0,2,0,1,0,1,0,,,,,,,,,,,,,,,,,,,,,,,,,,,,,,,,,,,,,,,,,,,,,,,,,,,,254.7299639992416,254.7299639992416,0.008894800208508968,0.09893220011144876,7.0,3.057658700272441,,,,,,,,,,,,,,,8536,Moral,2024-12-10_12h22.48.282,MoralCondition_v2,2022.2.5,30.011878701200324,
2,0,2,0,2,0,2,0,,,,,,,,,,,,,,,,,,,,,,,,,,,,,,,,,,,,,,,,,,,,,,,,,,,,257.8468104992062,257.8468104992062,0.009281800128519535,0.11470859963446856,7.0,2.0395944006741047,,,,,,,,,,,,,,,8536,Moral,2024-12-10_12h22.48.282,MoralCondition_v2,2022.2.5,30.011878701200324,
2,0,2,0,3,0,3,0,,,,,,,,,,,,,,,,,,,,,,,,,,,,,,,,,,,,,,,,,,,,,,,,,,,,259.93022559955716,259.93022559955716,0.008048399351537228,0.1147547997534275,7.0,2.574393699876964,,,,,,,,,,,,,,,8536,Moral,2024-12-10_12h22.48.282,MoralCondition_v2,2022.2.5,30.011878701200324,
2,0,2,0,4,0,4,0,,,,,,,,,,,,,,,,,,,,,,,,,,,,,,,,,,,,,,,,,,,,,,,,,,,,262.5298818992451,262.5298818992451,0.007143000140786171,0.09755459986627102,7.0,2.058874199166894,,,,,,,,,,,,,,,8536,Moral,2024-12-10_12h22.48.282,MoralCondition_v2,2022.2.5,30.011878701200324,
2,0,2,0,5,0,5,0,,,,,,,,,,,,,,,,,,,,,,,,,,,,,,,,,,,,,,,,,,,,,,,,,,,,264.6301449993625,264.6301449993625,0.007426699623465538,0.09884809982031584,7.0,1.7589153004810214,,,,,,,,,,,,,,,8536,Moral,2024-12-10_12h22.48.282,MoralCondition_v2,2022.2.5,30.011878701200324,
2,0,2,0,6,0,6,0,,,,,,,,,,,,,,,,,,,,,,,,,,,,,,,,,,,,,,,,,,,,,,,,,,,,266.4301463998854,266.4301463998854,0.00788820069283247,0.09908790048211813,7.0,1.4255629004910588,,,,,,,,,,,,,,,8536,Moral,2024-12-10_12h22.48.282,MoralCondition_v2,2022.2.5,30.011878701200324,
2,0,2,0,,,,,,,,,,,,,,,,,,,,,,,,,,,,,,,,,,,,,,,,,,,,,,,,,,,,,,,,,,,,,,267.8970473995432,267.8970473995432,0.0007192995399236679,0.09917369950562716,1.0,10.099679100327194,,,,,,,,,8536,Moral,2024-12-10_12h22.48.282,MoralCondition_v2,2022.2.5,30.011878701200324,
3,0,3,0,0,0,0,0,,,,,,,,,,,,,,,,,,,,,,278.0301689999178,0.0003700004890561104,0.0973276998847723,284.0468624997884,6.013925899751484,284.26383669953793,284.26383669953793,0.11618490051478148,0.2306409003213048,6.030725200660527,290.3302173996344,290.3302173996344,290.3302173996344,0.08578880038112402,0.1973696006461978,296.03002379927784,296.2301444998011,6.0305656008422375,6.130516100674868,302.23042009957135,12.030862701125443,302.3634801991284,302.3634801991284,0.030831601470708847,0.13049140106886625,up,1.792229700833559,304.19680879916996,3.7400051951408386e-05,0.09769050031900406,310.1968468995765,310.1968468995765,0.00703980028629303,0.09779900033026934,4.0,10.89164540078491,,,,,,,302.33027569949627,302.33027569949627,310.1968468995765,,,,,,8536,Moral,2024-12-10_12h22.48.282,MoralCondition_v2,2022.2.5,30.011878701200324,
3,0,3,0,1,0,1,0,,,,,,,,,,,,,,,,,,,,,,,,,,,,,,,,,,,,,,,,,,,,,,,,,,,,321.1469123000279,321.1469123000279,0.008976800367236137,0.11405969969928265,3.0,4.372441399842501,,,,,,,,,,,,,,,8536,Moral,2024-12-10_12h22.48.282,MoralCondition_v2,2022.2.5,30.011878701200324,
3,0,3,0,2,0,2,0,,,,,,,,,,,,,,,,,,,,,,,,,,,,,,,,,,,,,,,,,,,,,,,,,,,,325.56376970000565,325.56376970000565,0.008700400590896606,0.11434860061854124,3.0,4.539834399707615,,,,,,,,,,,,,,,8536,Moral,2024-12-10_12h22.48.282,MoralCondition_v2,2022.2.5,30.011878701200324,
3,0,3,0,3,0,3,0,,,,,,,,,,,,,,,,,,,,,,,,,,,,,,,,,,,,,,,,,,,,,,,,,,,,330.1301728999242,330.1301728999242,0.006687300279736519,0.09901230037212372,4.0,3.1600839998573065,,,,,,,,,,,,,,,8536,Moral,2024-12-10_12h22.48.282,MoralCondition_v2,2022.2.5,30.011878701200324,
3,0,3,0,4,0,4,0,,,,,,,,,,,,,,,,,,,,,,,,,,,,,,,,,,,,,,,,,,,,,,,,,,,,333.33030329924077,333.33030329924077,0.0071929991245269775,0.09815239999443293,7.0,4.192702700383961,,,,,,,,,,,,,,,8536,Moral,2024-12-10_12h22.48.282,MoralCondition_v2,2022.2.5,30.011878701200324,
3,0,3,0,5,0,5,0,,,,,,,,,,,,,,,,,,,,,,,,,,,,,,,,,,,,,,,,,,,,,,,,,,,,337.5634856997058,337.5634856997058,0.007065899670124054,0.09795130044221878,5.0,3.4585098000243306,,,,,,,,,,,,,,,8536,Moral,2024-12-10_12h22.48.282,MoralCondition_v2,2022.2.5,30.011878701200324,
3,0,3,0,6,0,6,0,,,,,,,,,,,,,,,,,,,,,,,,,,,,,,,,,,,,,,,,,,,,,,,,,,,,341.0804221993312,341.0804221993312,0.010069699957966805,0.11417619977146387,3.0,2.871936700306833,,,,,,,,,,,,,,,8536,Moral,2024-12-10_12h22.48.282,MoralCondition_v2,2022.2.5,30.011878701200324,
3,0,3,0,,,,,,,,,,,,,,,,,,,,,,,,,,,,,,,,,,,,,,,,,,,,,,,,,,,,,,,,,,,,,,343.98021740000695,343.98021740000695,0.002050899900496006,0.09819069970399141,2.0,8.797339799813926,,,,,,,,,8536,Moral,2024-12-10_12h22.48.282,MoralCondition_v2,2022.2.5,30.011878701200324,
4,0,4,0,0,0,0,0,,,,,,,,,,,,,,,,,,,,,,352.81397779937834,0.0002758000046014786,0.09791899938136339,358.81361710000783,6.03127249982208,359.0635058991611,359.0635058991611,0.14193699974566698,0.24800319969654083,6.0146741000935435,365.0969725996256,365.0969725996256,365.0969725996256,0.06934810057282448,0.18128240015357733,370.7967417994514,370.9968208996579,6.014438100159168,6.114778100512922,376.99685169942677,12.01447750069201,377.130224599503,377.130224599503,0.014805400744080544,0.11450050119310617,up,2.4180158004164696,379.61368809919804,4.469975829124451e-05,0.09784880001097918,385.61345029994845,385.61345029994845,0.009350900538265705,0.09768590051680803,4.0,3.156054699793458,,,,,,,377.0970871997997,377.0970871997997,385.61345029994845,,,,,,8536,Moral,2024-12-10_12h22.48.282,MoralCondition_v2,2022.2.5,30.011878701200324,
4,0,4,0,1,0,1,0,,,,,,,,,,,,,,,,,,,,,,,,,,,,,,,,,,,,,,,,,,,,,,,,,,,,388.81360799912363,388.81360799912363,0.006731300614774227,0.09723670035600662,5.0,4.091351999901235,,,,,,,,,,,,,,,8536,Moral,2024-12-10_12h22.48.282,MoralCondition_v2,2022.2.5,30.011878701200324,
4,0,4,0,2,0,2,0,,,,,,,,,,,,,,,,,,,,,,,,,,,,,,,,,,,,,,,,,,,,,,,,,,,,392.9469246994704,392.9469246994704,0.007191799581050873,0.09813779965043068,6.0,3.9585213996469975,,,,,,,,,,,,,,,8536,Moral,2024-12-10_12h22.48.282,MoralCondition_v2,2022.2.5,30.011878701200324,
4,0,4,0,3,0,3,0,,,,,,,,,,,,,,,,,,,,,,,,,,,,,,,,,,,,,,,,,,,,,,,,,,,,396.9467833992094,396.9467833992094,0.006365799345076084,0.09922839980572462,6.0,2.3603194998577237,,,,,,,,,,,,,,,8536,Moral,2024-12-10_12h22.48.282,MoralCondition_v2,2022.2.5,30.011878701200324,
4,0,4,0,4,0,4,0,,,,,,,,,,,,,,,,,,,,,,,,,,,,,,,,,,,,,,,,,,,,,,,,,,,,399.3639444997534,399.3639444997534,0.007623099721968174,0.11380890011787415,5.0,5.20727919973433,,,,,,,,,,,,,,,8536,Moral,2024-12-10_12h22.48.282,MoralCondition_v2,2022.2.5,30.011878701200324,
4,0,4,0,5,0,5,0,,,,,,,,,,,,,,,,,,,,,,,,,,,,,,,,,,,,,,,,,,,,,,,,,,,,404.5968673992902,404.5968673992902,0.007354799658060074,0.09766649920493364,3.0,3.158117400482297,,,,,,,,,,,,,,,8536,Moral,2024-12-10_12h22.48.282,MoralCondition_v2,2022.2.5,30.011878701200324,
4,0,4,0,6,0,6,0,,,,,,,,,,,,,,,,,,,,,,,,,,,,,,,,,,,,,,,,,,,,,,,,,,,,407.81380739994347,407.81380739994347,0.008880499750375748,0.11429290007799864,1.0,2.87326779961586,,,,,,,,,,,,,,,8536,Moral,2024-12-10_12h22.48.282,MoralCondition_v2,2022.2.5,30.011878701200324,
4,0,4,0,,,,,,,,,,,,,,,,,,,,,,,,,,,,,,,,,,,,,,,,,,,,,,,,,,,,,,,,,,,,,,410.71357829961926,410.71357829961926,0.0007221996784210205,0.09931359998881817,6.0,5.901052399538457,,,,,,,,,8536,Moral,2024-12-10_12h22.48.282,MoralCondition_v2,2022.2.5,30.011878701200324,
5,0,5,0,0,0,0,0,,,,,,,,,,,,,,,,,,,,,,416.64710980001837,0.0003904998302459717,0.09741550032049417,422.66362659912556,6.014240199699998,422.8470577998087,422.8470577998087,0.085075200535357,0.19761440064758062,6.030943300575018,428.9468956999481,428.9468956999481,428.9468956999481,0.09541780035942793,0.19785090070217848,434.64694250002503,434.84711699932814,6.031153300777078,6.130933800712228,440.8469433998689,12.03098240122199,440.9802757995203,440.9802757995203,0.031157201156020164,0.13141070120036602,up,1.3037699004635215,442.3468351997435,3.9099715650081635e-05,0.09743529930710793,448.38051479961723,448.38051479961723,0.025088299997150898,0.13049389980733395,7.0,5.906492699868977,,,,,,,440.9469007998705,440.9469007998705,,428.8470540000126,428.8470540000126,,,,8536,Moral,2024-12-10_12h22.48.282,MoralCondition_v2,2022.2.5,30.011878701200324,
5,0,5,0,1,0,1,0,,,,,,,,,,,,,,,,,,,,,,,,,,,,,,,,,,,,,,,,,,,,,,,,,,,,454.3135212995112,454.3135212995112,0.007004899904131889,0.0989207997918129,7.0,1.6264169998466969,,,,,,,,,,,,,,,8536,Moral,2024-12-10_12h22.48.282,MoralCondition_v2,2022.2.5,30.011878701200324,
5,0,5,0,2,0,2,0,,,,,,,,,,,,,,,,,,,,,,,,,,,,,,,,,,,,,,,,,,,,,,,,,,,,455.98014979995787,455.98014979995787,0.007486100308597088,0.09793080016970634,7.0,1.7580282995477319,,,,,,,,,,,,,,,8536,Moral,2024-12-10_12h22.48.282,MoralCondition_v2,2022.2.5,30.011878701200324,
5,0,5,0,3,0,3,0,,,,,,,,,,,,,,,,,,,,,,,,,,,,,,,,,,,,,,,,,,,,,,,,,,,,457.7802784992382,457.7802784992382,0.007447799667716026,0.09797300025820732,7.0,1.6914594005793333,,,,,,,,,,,,,,,8536,Moral,2024-12-10_12h22.48.282,MoralCondition_v2,2022.2.5,30.011878701200324,
5,0,5,0,4,0,4,0,,,,,,,,,,,,,,,,,,,,,,,,,,,,,,,,,,,,,,,,,,,,,,,,,,,,459.5135543998331,459.5135543998331,0.007476300001144409,0.09827409964054823,7.0,1.725318600423634,,,,,,,,,,,,,,,8536,Moral,2024-12-10_12h22.48.282,MoralCondition_v2,2022.2.5,30.011878701200324,
5,0,5,0,5,0,5,0,,,,,,,,,,,,,,,,,,,,,,,,,,,,,,,,,,,,,,,,,,,,,,,,,,,,461.2807958992198,461.2807958992198,0.0075019001960754395,0.09779760055243969,3.0,3.524936500005424,,,,,,,,,,,,,,,8536,Moral,2024-12-10_12h22.48.282,MoralCondition_v2,2022.2.5,30.011878701200324,
5,0,5,0,6,0,6,0,,,,,,,,,,,,,,,,,,,,,,,,,,,,,,,,,,,,,,,,,,,,,,,,,,,,464.8469270998612,464.8469270998612,0.00886170007288456,0.09936290048062801,7.0,2.3916129004210234,,,,,,,,,,,,,,,8536,Moral,2024-12-10_12h22.48.282,MoralCondition_v2,2022.2.5,30.011878701200324,
5,0,5,0,,,,,,,,,,,,,,,,,,,,,,,,,,,,,,,,,,,,,,,,,,,,,,,,,,,,,,,,,,,,,,467.2800783999264,467.2800783999264,0.0004681004211306572,0.09984499961137772,1.0,5.433608600869775,,,,,,,,,8536,Moral,2024-12-10_12h22.48.282,MoralCondition_v2,2022.2.5,30.011878701200324,
6,0,6,0,0,0,0,0,,,,,,,,,,,,,,,,,,,,,,472.74726979993284,0.00038720015436410904,0.09762100037187338,478.74703689944,6.031159600242972,478.9470587000251,478.9470587000251,0.09261850081384182,0.1979351006448269,6.03114110045135,485.0469335997477,485.0469335997477,485.0469335997477,0.08754630107432604,0.1979233007878065,490.7469215998426,490.9469472998753,6.031008001416922,6.130977900698781,496.9469543993473,12.031014300882816,497.08027099911124,497.08027099911124,0.03122770134359598,0.1309046009555459,up,2.0034685004502535,499.14690489973873,5.699973553419113e-05,0.09795279987156391,505.1466850992292,505.1466850992292,0.007714400067925453,0.09799269959330559,5.0,2.524487399496138,,,,,,,497.0470258994028,497.0470258994028,505.1466850992292,484.9468808993697,484.9468808993697,,,,8536,Moral,2024-12-10_12h22.48.282,MoralCondition_v2,2022.2.5,30.011878701200324,
6,0,6,0,1,0,1,0,,,,,,,,,,,,,,,,,,,,,,,,,,,,,,,,,,,,,,,,,,,,,,,,,,,,507.7304766997695,507.7304766997695,0.007567800581455231,0.11413110047578812,5.0,1.7074374994263053,,,,,,,,,,,,,,,8536,Moral,2024-12-10_12h22.48.282,MoralCondition_v2,2022.2.5,30.011878701200324,
6,0,6,0,2,0,2,0,,,,,,,,,,,,,,,,,,,,,,,,,,,,,,,,,,,,,,,,,,,,,,,,,,,,509.4634377993643,509.4634377993643,0.00761839933693409,0.09746919944882393,4.0,2.957638499327004,,,,,,,,,,,,,,,8536,Moral,2024-12-10_12h22.48.282,MoralCondition_v2,2022.2.5,30.011878701200324,
6,0,6,0,3,0,3,0,,,,,,,,,,,,,,,,,,,,,,,,,,,,,,,,,,,,,,,,,,,,,,,,,,,,512.4634833997115,512.4634833997115,0.007404600270092487,0.09896230045706034,3.0,5.459303199313581,,,,,,,,,,,,,,,8536,Moral,2024-12-10_12h22.48.282,MoralCondition_v2,2022.2.5,30.011878701200324,
6,0,6,0,4,0,4,0,,,,,,,,,,,,,,,,,,,,,,,,,,,,,,,,,,,,,,,,,,,,,,,,,,,,517.9636133993044,517.9636133993044,0.006801699288189411,0.09841209929436445,3.0,2.5925703002139926,,,,,,,,,,,,,,,8536,Moral,2024-12-10_12h22.48.282,MoralCondition_v2,2022.2.5,30.011878701200324,
6,0,6,0,5,0,5,0,,,,,,,,,,,,,,,,,,,,,,,,,,,,,,,,,,,,,,,,,,,,,,,,,,,,520.596904899925,520.596904899925,0.007812400348484516,0.0977102005854249,5.0,4.857535999268293,,,,,,,,,,,,,,,8536,Moral,2024-12-10_12h22.48.282,MoralCondition_v2,2022.2.5,30.011878701200324,
6,0,6,0,6,0,6,0,,,,,,,,,,,,,,,,,,,,,,,,,,,,,,,,,,,,,,,,,,,,,,,,,,,,525.4969767993316,525.4969767993316,0.006945000030100346,0.09710059966892004,5.0,1.5579049997031689,,,,,,,,,,,,,,,8536,Moral,2024-12-10_12h22.48.282,MoralCondition_v2,2022.2.5,30.011878701200324,
6,0,6,0,,,,,,,,,,,,,,,,,,,,,,,,,,,,,,,,,,,,,,,,,,,,,,,,,,,,,,,,,,,,,,527.0971632990986,527.0971632990986,0.00132680032402277,0.097957500256598,5.0,5.664840900339186,,,,,,,,,8536,Moral,2024-12-10_12h22.48.282,MoralCondition_v2,2022.2.5,30.011878701200324,
7,0,7,0,0,0,0,0,,,,,,,,,,,,,,,,,,,,,,532.7974014999345,0.00013670045882463455,0.09917220007628202,538.797009899281,5.999118300154805,538.963454999961,538.963454999961,0.060890500433743,0.16582020092755556,5.999314000830054,545.0637578992173,545.0637578992173,545.0637578992173,0.05690850131213665,0.16593720111995935,550.7635798994452,550.9968958999962,5.999147401191294,6.0991207007318735,556.9969273991883,11.99915090110153,557.0969144999981,557.0969144999981,0.0001840014010667801,0.09918900113552809,down,4.45132640004158,561.5970290992409,3.42000275850296e-05,0.09814850054681301,567.5967593993992,567.5967593993992,0.007515700533986092,0.09795290045440197,6.0,5.424797300249338,,,,,,,557.0637778993696,557.0637778993696,567.5967593993992,544.9636057997122,544.9636057997122,6.0992565006017685,6.099211500957608,12.099391900934279,8536,Moral,2024-12-10_12h22.48.282,MoralCondition_v2,2022.2.5,30.011878701200324,
7,0,7,0,1,0,1,0,,,,,,,,,,,,,,,,,,,,,,,,,,,,,,,,,,,,,,,,,,,,,,,,,,,,573.063356699422,573.063356699422,0.007660199888050556,0.09785350039601326,6.0,1.8579043000936508,,,,,,,,,,,,,,,8536,Moral,2024-12-10_12h22.48.282,MoralCondition_v2,2022.2.5,30.011878701200324,
7,0,7,0,2,0,2,0,,,,,,,,,,,,,,,,,,,,,,,,,,,,,,,,,,,,,,,,,,,,,,,,,,,,574.963934299536,574.963934299536,0.005349300801753998,0.09739970043301582,7.0,2.4932514000684023,,,,,,,,,,,,,,,8536,Moral,2024-12-10_12h22.48.282,MoralCondition_v2,2022.2.5,30.011878701200324,
7,0,7,0,3,0,3,0,,,,,,,,,,,,,,,,,,,,,,,,,,,,,,,,,,,,,,,,,,,,,,,,,,,,577.4969808999449,577.4969808999449,0.00650859996676445,0.09939850028604269,7.0,1.8270483007654548,,,,,,,,,,,,,,,8536,Moral,2024-12-10_12h22.48.282,MoralCondition_v2,2022.2.5,30.011878701200324,
7,0,7,0,4,0,4,0,,,,,,,,,,,,,,,,,,,,,,,,,,,,,,,,,,,,,,,,,,,,,,,,,,,,579.3635779991746,579.3635779991746,0.00726190023124218,0.0977945001795888,7.0,2.624915899708867,,,,,,,,,,,,,,,8536,Moral,2024-12-10_12h22.48.282,MoralCondition_v2,2022.2.5,30.011878701200324,
7,0,7,0,5,0,5,0,,,,,,,,,,,,,,,,,,,,,,,,,,,,,,,,,,,,,,,,,,,,,,,,,,,,582.0302179995924,582.0302179995924,0.007740899920463562,0.098344000056386,6.0,3.0581118995323777,,,,,,,,,,,,,,,8536,Moral,2024-12-10_12h22.48.282,MoralCondition_v2,2022.2.5,30.011878701200324,
7,0,7,0,6,0,6,0,,,,,,,,,,,,,,,,,,,,,,,,,,,,,,,,,,,,,,,,,,,,,,,,,,,,585.1302619995549,585.1302619995549,0.0071334997192025185,0.09764620009809732,2.0,3.524893700145185,,,,,,,,,,,,,,,8536,Moral,2024-12-10_12h22.48.282,MoralCondition_v2,2022.2.5,30.011878701200324,
7,0,7,0,,,,,,,,,,,,,,,,,,,,,,,,,,,,,,,,,,,,,,,,,,,,,,,,,,,,,,,,,,,,,,588.6971044000238,588.6971044000238,0.0007432997226715088,0.09918109979480505,2.0,4.1328081004321575,,,,,,,,,8536,Moral,2024-12-10_12h22.48.282,MoralCondition_v2,2022.2.5,30.011878701200324,
8,0,8,0,0,0,0,0,,,,,,,,,,,,,,,,,,,,,,592.8638610998169,0.0002973005175590515,0.09772100020200014,598.8467647992074,6.0141974007710814,599.113633999601,599.113633999601,0.13800560124218464,0.24765080120414495,6.014360500499606,605.1634898995981,605.1634898995981,605.1634898995981,0.08476260118186474,0.19766360148787498,610.8634642995894,611.0635164994746,6.031051601283252,6.1312744012102485,617.06350379996,12.031044101342559,617.1969885993749,617.1969885993749,0.03133480157703161,0.13076550140976906,up,1.0223539993166924,618.2801862992346,3.9099715650081635e-05,0.09787119925022125,624.296789499931,624.296789499931,0.0120079992339015,0.11441690009087324,4.0,2.6701740995049477,,,,,,,617.1636663991958,617.1636663991958,624.296789499931,,,6.097840200178325,,,8536,Moral,2024-12-10_12h22.48.282,MoralCondition_v2,2022.2.5,30.011878701200324,
8,0,8,0,1,0,1,0,,,,,,,,,,,,,,,,,,,,,,,,,,,,,,,,,,,,,,,,,,,,,,,,,,,,626.9968418991193,626.9968418991193,0.0069474996998906136,0.09899509977549314,4.0,1.5598567994311452,,,,,,,,,,,,,,,8536,Moral,2024-12-10_12h22.48.282,MoralCondition_v2,2022.2.5,30.011878701200324,
8,0,8,0,2,0,2,0,,,,,,,,,,,,,,,,,,,,,,,,,,,,,,,,,,,,,,,,,,,,,,,,,,,,628.5967207998037,628.5967207998037,0.007602199912071228,0.09807540010660887,3.0,4.324846000410616,,,,,,,,,,,,,,,8536,Moral,2024-12-10_12h22.48.282,MoralCondition_v2,2022.2.5,30.011878701200324,
8,0,8,0,3,0,3,0,,,,,,,,,,,,,,,,,,,,,,,,,,,,,,,,,,,,,,,,,,,,,,,,,,,,632.9634520998225,632.9634520998225,0.006000099703669548,0.09936119988560677,3.0,1.960843300446868,,,,,,,,,,,,,,,8536,Moral,2024-12-10_12h22.48.282,MoralCondition_v2,2022.2.5,30.011878701200324,
8,0,8,0,4,0,4,0,,,,,,,,,,,,,,,,,,,,,,,,,,,,,,,,,,,,,,,,,,,,,,,,,,,,634.9634124999866,634.9634124999866,0.007408199831843376,0.09792929980903864,2.0,4.22480189986527,,,,,,,,,,,,,,,8536,Moral,2024-12-10_12h22.48.282,MoralCondition_v2,2022.2.5,30.011878701200324,
8,0,8,0,5,0,5,0,,,,,,,,,,,,,,,,,,,,,,,,,,,,,,,,,,,,,,,,,,,,,,,,,,,,639.2301835995167,639.2301835995167,0.006664500571787357,0.09914209973067045,1.0,2.6934655001387,,,,,,,,,,,,,,,8536,Moral,2024-12-10_12h22.48.282,MoralCondition_v2,2022.2.5,30.011878701200324,
8,0,8,0,6,0,6,0,,,,,,,,,,,,,,,,,,,,,,,,,,,,,,,,,,,,,,,,,,,,,,,,,,,,641.9803387997672,641.9803387997672,0.009026499465107918,0.11431979946792126,6.0,3.7392887994647026,,,,,,,,,,,,,,,8536,Moral,2024-12-10_12h22.48.282,MoralCondition_v2,2022.2.5,30.011878701200324,
8,0,8,0,,,,,,,,,,,,,,,,,,,,,,,,,,,,,,,,,,,,,,,,,,,,,,,,,,,,,,,,,,,,,,645.7468784991652,645.7468784991652,0.0013318005949258804,0.09812040068209171,6.0,10.130925999954343,,,,,,,,,8536,Moral,2024-12-10_12h22.48.282,MoralCondition_v2,2022.2.5,30.011878701200324,
9,0,9,0,0,0,0,0,,,,,,,,,,,,,,,,,,,,,,655.913711999543,0.00013410020619630814,0.09948000032454729,661.9301806995645,6.015955300070345,662.1133826998994,662.1133826998994,0.09846010059118271,0.19925690069794655,5.999300600960851,668.1800835998729,668.1800835998729,668.1800835998729,0.0628727013245225,0.16641620080918074,673.8801396992058,674.0801661992446,5.999372800812125,6.099509401246905,680.0801790999249,11.999384701251984,680.2135180998594,680.2135180998594,6.170105189085007e-05,0.09952270146459341,down,2.2142535001039505,682.4801260000095,4.830025136470795e-05,0.0977024994790554,688.4968214994296,688.4968214994296,0.01220330037176609,0.11437099985778332,5.0,4.4366723001003265,,,,,,,680.1800893992186,680.1800893992186,688.4968214994296,668.1800835998729,668.1800835998729,,6.099355300888419,12.099330101162195,8536,Moral,2024-12-10_12h22.48.282,MoralCondition_v2,2022.2.5,30.011878701200324,
9,0,9,0,1,0,1,0,,,,,,,,,,,,,,,,,,,,,,,,,,,,,,,,,,,,,,,,,,,,,,,,,,,,692.9633438996971,692.9633438996971,0.007003700360655785,0.09929370041936636,6.0,2.859945500269532,,,,,,,,,,,,,,,8536,Moral,2024-12-10_12h22.48.282,MoralCondition_v2,2022.2.5,30.011878701200324,
9,0,9,0,2,0,2,0,,,,,,,,,,,,,,,,,,,,,,,,,,,,,,,,,,,,,,,,,,,,,,,,,,,,695.8802779996768,695.8802779996768,0.009079399518668652,0.11505219992250204,2.0,2.6072808001190424,,,,,,,,,,,,,,,8536,Moral,2024-12-10_12h22.48.282,MoralCondition_v2,2022.2.5,30.011878701200324,
9,0,9,0,3,0,3,0,,,,,,,,,,,,,,,,,,,,,,,,,,,,,,,,,,,,,,,,,,,,,,,,,,,,698.5134991994128,698.5134991994128,0.006446399725973606,0.09925839956849813,5.0,4.62690129969269,,,,,,,,,,,,,,,8536,Moral,2024-12-10_12h22.48.282,MoralCondition_v2,2022.2.5,30.011878701200324,
9,0,9,0,4,0,4,0,,,,,,,,,,,,,,,,,,,,,,,,,,,,,,,,,,,,,,,,,,,,,,,,,,,,703.1802393998951,703.1802393998951,0.007098999805748463,0.09817270003259182,6.0,4.925243499688804,,,,,,,,,,,,,,,8536,Moral,2024-12-10_12h22.48.282,MoralCondition_v2,2022.2.5,30.011878701200324,
9,0,9,0,5,0,5,0,,,,,,,,,,,,,,,,,,,,,,,,,,,,,,,,,,,,,,,,,,,,,,,,,,,,708.1468343995512,708.1468343995512,0.006564999930560589,0.09924430027604103,7.0,2.960240600630641,,,,,,,,,,,,,,,8536,Moral,2024-12-10_12h22.48.282,MoralCondition_v2,2022.2.5,30.011878701200324,
9,0,9,0,6,0,6,0,,,,,,,,,,,,,,,,,,,,,,,,,,,,,,,,,,,,,,,,,,,,,,,,,,,,711.1468971995637,711.1468971995637,0.0068223001435399055,0.09935990069061518,7.0,1.5935506001114845,,,,,,,,,,,,,,,8536,Moral,2024-12-10_12h22.48.282,MoralCondition_v2,2022.2.5,30.011878701200324,
9,0,9,0,,,,,,,,,,,,,,,,,,,,,,,,,,,,,,,,,,,,,,,,,,,,,,,,,,,,,,,,,,,,,,712.780200199224,712.780200199224,0.0015401998534798622,0.09797369968146086,2.0,4.997618899680674,,,,,,,,,8536,Moral,2024-12-10_12h22.48.282,MoralCondition_v2,2022.2.5,30.011878701200324,
10,0,10,0,0,0,0,0,,,,,,,,,,,,,,,,,,,,,,717.81362769939,0.00024409964680671692,0.0981899993494153,723.8300361000001,6.014727399684489,723.9967596996576,723.9967596996576,0.08175520040094852,0.1816074000671506,6.014734400436282,730.09680069983,730.09680069983,730.09680069983,0.07412310037761927,0.18143430072814226,735.7967790998518,735.9967452995479,6.014786300249398,6.114668500609696,741.9966871999204,12.014723100699484,742.1300837993622,742.1300837993622,0.01467010099440813,0.11466170102357864,down,1.9772995002567768,744.1634882995859,7.700081914663315e-05,0.09788500051945448,750.1633339999244,750.1633339999244,0.009939000010490417,0.09776310063898563,5.0,4.021999999880791,,,,,,,742.0798782994971,742.0798782994971,750.1633339999244,729.9967418992892,729.9967418992892,,,,8536,Moral,2024-12-10_12h22.48.282,MoralCondition_v2,2022.2.5,30.011878701200324,
10,0,10,0,1,0,1,0,,,,,,,,,,,,,,,,,,,,,,,,,,,,,,,,,,,,,,,,,,,,,,,,,,,,754.2301136991009,754.2301136991009,0.007393600419163704,0.09888910036534071,6.0,3.559363099746406,,,,,,,,,,,,,,,8536,Moral,2024-12-10_12h22.48.282,MoralCondition_v2,2022.2.5,30.011878701200324,
10,0,10,0,2,0,2,0,,,,,,,,,,,,,,,,,,,,,,,,,,,,,,,,,,,,,,,,,,,,,,,,,,,,757.8300868999213,757.8300868999213,0.006837399676442146,0.09868119936436415,2.0,2.926093600690365,,,,,,,,,,,,,,,8536,Moral,2024-12-10_12h22.48.282,MoralCondition_v2,2022.2.5,30.011878701200324,
10,0,10,0,3,0,3,0,,,,,,,,,,,,,,,,,,,,,,,,,,,,,,,,,,,,,,,,,,,,,,,,,,,,760.7967065991834,760.7967065991834,0.006664100103080273,0.09955519996583462,7.0,3.8602713998407125,,,,,,,,,,,,,,,8536,Moral,2024-12-10_12h22.48.282,MoralCondition_v2,2022.2.5,30.011878701200324,
10,0,10,0,4,0,4,0,,,,,,,,,,,,,,,,,,,,,,,,,,,,,,,,,,,,,,,,,,,,,,,,,,,,764.6965538999066,764.6965538999066,0.008298699744045734,0.09940259996801615,7.0,1.7918764995411038,,,,,,,,,,,,,,,8536,Moral,2024-12-10_12h22.48.282,MoralCondition_v2,2022.2.5,30.011878701200324,
10,0,10,0,5,0,5,0,,,,,,,,,,,,,,,,,,,,,,,,,,,,,,,,,,,,,,,,,,,,,,,,,,,,766.5299547994509,766.5299547994509,0.007499299943447113,0.09905190020799637,7.0,1.4591946993023157,,,,,,,,,,,,,,,8536,Moral,2024-12-10_12h22.48.282,MoralCondition_v2,2022.2.5,30.011878701200324,
10,0,10,0,6,0,6,0,,,,,,,,,,,,,,,,,,,,,,,,,,,,,,,,,,,,,,,,,,,,,,,,,,,,768.0298948995769,768.0298948995769,0.007309500128030777,0.09880880080163479,7.0,2.7927214996889234,,,,,,,,,,,,,,,8536,Moral,2024-12-10_12h22.48.282,MoralCondition_v2,2022.2.5,30.011878701200324,
10,0,10,0,,,,,,,,,,,,,,,,,,,,,,,,,,,,,,,,,,,,,,,,,,,,,,,,,,,,,,,,,,,,,,770.8634428000078,770.8634428000078,0.0012512002140283585,0.09797979984432459,2.0,5.6641301000490785,,,,,,,,,8536,Moral,2024-12-10_12h22.48.282,MoralCondition_v2,2022.2.5,30.011878701200324,
11,0,11,0,0,0,0,0,,,,,,,,,,,,,,,,,,,,,,776.563629699871,0.00024409964680671692,0.09821589943021536,782.563257499598,6.031488100066781,782.7797665996477,782.7797665996477,0.10041469987481833,0.21447840053588152,6.014783699996769,788.8467595996335,788.8467595996335,788.8467595996335,0.0702224001288414,0.18171280063688755,794.5466056996956,794.7466401997954,6.014875700697303,6.114764500409365,800.7465778999031,12.014802700839937,800.8798996992409,800.8798996992409,0.014977200888097286,0.11475820094347,down,1.4361324002966285,802.3798948992044,5.119945853948593e-05,0.09777409955859184,808.3963962998241,808.3963962998241,0.0257489001378417,0.11458639986813068,5.0,3.0896829003468156,,,,,,,800.8465579999611,800.8465579999611,,,,,,,8536,Moral,2024-12-10_12h22.48.282,MoralCondition_v2,2022.2.5,30.011878701200324,
11,0,11,0,1,0,1,0,,,,,,,,,,,,,,,,,,,,,,,,,,,,,,,,,,,,,,,,,,,,,,,,,,,,811.5299636991695,811.5299636991695,0.00757449958473444,0.09751159977167845,2.0,3.490804400295019,,,,,,,,,,,,,,,8536,Moral,2024-12-10_12h22.48.282,MoralCondition_v2,2022.2.5,30.011878701200324,
11,0,11,0,2,0,2,0,,,,,,,,,,,,,,,,,,,,,,,,,,,,,,,,,,,,,,,,,,,,,,,,,,,,815.0631131995469,815.0631131995469,0.006671600043773651,0.09919020067900419,2.0,2.2603193996474147,,,,,,,,,,,,,,,8536,Moral,2024-12-10_12h22.48.282,MoralCondition_v2,2022.2.5,30.011878701200324,
11,0,11,0,3,0,3,0,,,,,,,,,,,,,,,,,,,,,,,,,,,,,,,,,,,,,,,,,,,,,,,,,,,,817.3631311999634,817.3631311999634,0.008555999957025051,0.09702369943261147,3.0,2.423080500215292,,,,,,,,,,,,,,,8536,Moral,2024-12-10_12h22.48.282,MoralCondition_v2,2022.2.5,30.011878701200324,
11,0,11,0,4,0,4,0,,,,,,,,,,,,,,,,,,,,,,,,,,,,,,,,,,,,,,,,,,,,,,,,,,,,819.8297844994813,819.8297844994813,0.007277499884366989,0.09731930028647184,2.0,2.391562099568546,,,,,,,,,,,,,,,8536,Moral,2024-12-10_12h22.48.282,MoralCondition_v2,2022.2.5,30.011878701200324,
11,0,11,0,5,0,5,0,,,,,,,,,,,,,,,,,,,,,,,,,,,,,,,,,,,,,,,,,,,,,,,,,,,,822.2632838999853,822.2632838999853,0.006555600091814995,0.09927480015903711,4.0,2.8936466006562114,,,,,,,,,,,,,,,8536,Moral,2024-12-10_12h22.48.282,MoralCondition_v2,2022.2.5,30.011878701200324,
11,0,11,0,6,0,6,0,,,,,,,,,,,,,,,,,,,,,,,,,,,,,,,,,,,,,,,,,,,,,,,,,,,,825.1963612996042,825.1963612996042,0.00788860023021698,0.09789480082690716,5.0,3.6910143001005054,,,,,,,,,,,,,,,8536,Moral,2024-12-10_12h22.48.282,MoralCondition_v2,2022.2.5,30.011878701200324,
11,0,11,0,,,,,,,,,,,,,,,,,,,,,,,,,,,,,,,,,,,,,,,,,,,,,,,,,,,,,,,,,,,,,,828.9299395997077,828.9299395997077,0.0015230998396873474,0.09876859933137894,3.0,4.631726399995387,,,,,,,,,8536,Moral,2024-12-10_12h22.48.282,MoralCondition_v2,2022.2.5,30.011878701200324,
12,0,12,0,0,0,0,0,,,,,,,,,,,,,,,,,,,,,,833.596817499958,0.00013280007988214493,0.09938990045338869,839.6131587997079,6.015942900441587,839.779807199724,839.779807199724,0.07551760040223598,0.18258490040898323,6.015921000391245,845.8798479996622,845.8798479996622,845.8798479996622,0.06892740074545145,0.18281290121376514,851.5798454992473,851.7798202997074,6.0159345008432865,6.116106701083481,857.7797700995579,12.015887101180851,857.9131706999615,857.9131706999615,0.015857401303946972,0.11594940163195133,down,1.6982995998114347,859.6465012999251,8.040014654397964e-05,0.09796399995684624,865.6800288995728,865.6800288995728,0.02539170067757368,0.1312143001705408,5.0,4.1401794999837875,,,,,,,857.8630430996418,857.8630430996418,,845.7797198994085,845.7797198994085,,,,8536,Moral,2024-12-10_12h22.48.282,MoralCondition_v2,2022.2.5,30.011878701200324,
12,0,12,0,1,0,1,0,,,,,,,,,,,,,,,,,,,,,,,,,,,,,,,,,,,,,,,,,,,,,,,,,,,,869.8464324995875,869.8464324995875,0.006433499976992607,0.09911129996180534,2.0,3.3934858003631234,,,,,,,,,,,,,,,8536,Moral,2024-12-10_12h22.48.282,MoralCondition_v2,2022.2.5,30.011878701200324,
12,0,12,0,2,0,2,0,,,,,,,,,,,,,,,,,,,,,,,,,,,,,,,,,,,,,,,,,,,,,,,,,,,,873.2797036999837,873.2797036999837,0.007687900215387344,0.0977063998579979,2.0,1.6575648002326488,,,,,,,,,,,,,,,8536,Moral,2024-12-10_12h22.48.282,MoralCondition_v2,2022.2.5,30.011878701200324,
12,0,12,0,3,0,3,0,,,,,,,,,,,,,,,,,,,,,,,,,,,,,,,,,,,,,,,,,,,,,,,,,,,,874.9797793999314,874.9797793999314,0.007185099646449089,0.09938459936529398,2.0,1.6265959003940225,,,,,,,,,,,,,,,8536,Moral,2024-12-10_12h22.48.282,MoralCondition_v2,2022.2.5,30.011878701200324,
12,0,12,0,4,0,4,0,,,,,,,,,,,,,,,,,,,,,,,,,,,,,,,,,,,,,,,,,,,,,,,,,,,,876.6462767999619,876.6462767999619,0.006513599306344986,0.09916759934276342,1.0,3.4271508008241653,,,,,,,,,,,,,,,8536,Moral,2024-12-10_12h22.48.282,MoralCondition_v2,2022.2.5,30.011878701200324,
12,0,12,0,5,0,5,0,,,,,,,,,,,,,,,,,,,,,,,,,,,,,,,,,,,,,,,,,,,,,,,,,,,,880.1300353994593,880.1300353994593,0.008252800442278385,0.11411990039050579,4.0,2.7738864002749324,,,,,,,,,,,,,,,8536,Moral,2024-12-10_12h22.48.282,MoralCondition_v2,2022.2.5,30.011878701200324,
12,0,12,0,6,0,6,0,,,,,,,,,,,,,,,,,,,,,,,,,,,,,,,,,,,,,,,,,,,,,,,,,,,,882.9297219999135,882.9297219999135,0.008606499992311,0.09927070047706366,2.0,2.6917420998215675,,,,,,,,,,,,,,,8536,Moral,2024-12-10_12h22.48.282,MoralCondition_v2,2022.2.5,30.011878701200324,
12,0,12,0,,,,,,,,,,,,,,,,,,,,,,,,,,,,,,,,,,,,,,,,,,,,,,,,,,,,,,,,,,,,,,885.6629878999665,885.6629878999665,0.0019206004217267036,0.09738580044358969,2.0,4.529987099580467,,,,,,,,,8536,Moral,2024-12-10_12h22.48.282,MoralCondition_v2,2022.2.5,30.011878701200324,
13,0,13,0,0,0,0,0,,,,,,,,,,,,,,,,,,,,,,890.2297313995659,0.0003173006698489189,0.09742460027337074,896.2463849997148,6.013935500755906,896.4131546998397,896.4131546998397,0.0705917002633214,0.18055620044469833,6.013967000879347,902.5129331992939,902.5129331992939,902.5129331992939,0.06629710085690022,0.18055650126188993,908.2130356999114,908.4132486991584,6.014160200953484,6.113908001221716,914.4130530999973,12.013957301154733,914.5463272994384,914.5463272994384,0.014118500985205173,0.11363660171627998,down,1.4810792999342084,916.0630407994613,3.9499253034591675e-05,0.09788430016487837,922.0800351994112,922.0800351994112,0.009076999500393867,0.11458809953182936,5.0,4.773110399954021,,,,,,,914.5130508998409,914.5130508998409,922.0800351994112,902.4128916999325,902.4128916999325,,,,8536,Moral,2024-12-10_12h22.48.282,MoralCondition_v2,2022.2.5,30.011878701200324,
13,0,13,0,1,0,1,0,,,,,,,,,,,,,,,,,,,,,,,,,,,,,,,,,,,,,,,,,,,,,,,,,,,,926.879545099102,926.879545099102,0.007318300195038319,0.09922930039465427,4.0,3.9596359999850392,,,,,,,,,,,,,,,8536,Moral,2024-12-10_12h22.48.282,MoralCondition_v2,2022.2.5,30.011878701200324,
13,0,13,0,2,0,2,0,,,,,,,,,,,,,,,,,,,,,,,,,,,,,,,,,,,,,,,,,,,,,,,,,,,,930.8794922996312,930.8794922996312,0.006612599827349186,0.09917430020868778,6.0,2.9601972000673413,,,,,,,,,,,,,,,8536,Moral,2024-12-10_12h22.48.282,MoralCondition_v2,2022.2.5,30.011878701200324,
13,0,13,0,3,0,3,0,,,,,,,,,,,,,,,,,,,,,,,,,,,,,,,,,,,,,,,,,,,,,,,,,,,,933.8794797994196,933.8794797994196,0.007839400321245193,0.09769410081207752,7.0,2.490875399671495,,,,,,,,,,,,,,,8536,Moral,2024-12-10_12h22.48.282,MoralCondition_v2,2022.2.5,30.011878701200324,
13,0,13,0,4,0,4,0,,,,,,,,,,,,,,,,,,,,,,,,,,,,,,,,,,,,,,,,,,,,,,,,,,,,936.4130672998726,936.4130672998726,0.009375300258398056,0.09817409981042147,6.0,2.4566928008571267,,,,,,,,,,,,,,,8536,Moral,2024-12-10_12h22.48.282,MoralCondition_v2,2022.2.5,30.011878701200324,
13,0,13,0,5,0,5,0,,,,,,,,,,,,,,,,,,,,,,,,,,,,,,,,,,,,,,,,,,,,,,,,,,,,938.9129960993305,938.9129960993305,0.006781799718737602,0.09815100021660328,2.0,3.1258578998968005,,,,,,,,,,,,,,,8536,Moral,2024-12-10_12h22.48.282,MoralCondition_v2,2022.2.5,30.011878701200324,
13,0,13,0,6,0,6,0,,,,,,,,,,,,,,,,,,,,,,,,,,,,,,,,,,,,,,,,,,,,,,,,,,,,942.0796520998701,942.0796520998701,0.007043699733912945,0.09903210029006004,5.0,3.8263995004817843,,,,,,,,,,,,,,,8536,Moral,2024-12-10_12h22.48.282,MoralCondition_v2,2022.2.5,30.011878701200324,
13,0,13,0,,,,,,,,,,,,,,,,,,,,,,,,,,,,,,,,,,,,,,,,,,,,,,,,,,,,,,,,,,,,,,945.9461819995195,945.9461819995195,0.0014575999230146408,0.09806289989501238,3.0,5.964068000204861,,,,,,,,,8536,Moral,2024-12-10_12h22.48.282,MoralCondition_v2,2022.2.5,30.011878701200324,
14,0,14,0,0,0,0,0,,,,,,,,,,,,,,,,,,,,,,951.9464876996353,0.00027689989656209946,0.097970400005579,957.9462811993435,6.031304399482906,958.1295188991353,958.1295188991353,0.08017720002681017,0.1814580000936985,6.014579500071704,964.2297661993653,964.2297661993653,964.2297661993653,0.08012059982866049,0.18157669994980097,969.9296171991155,970.129567399621,6.0145931001752615,6.114622000604868,976.129631199874,12.014674399979413,976.2629391998053,976.2629391998053,0.015001600608229637,0.11453800089657307,up,1.8447468997910619,978.1628624992445,2.350006252527237e-05,0.09868120029568672,984.1962499991059,984.1962499991059,0.02701030019670725,0.13208890054374933,5.0,5.639383899979293,,,,,,,976.2297304999083,976.2297304999083,,964.129790299572,964.129790299572,,,,8536,Moral,2024-12-10_12h22.48.282,MoralCondition_v2,2022.2.5,30.011878701200324,
14,0,14,0,1,0,1,0,,,,,,,,,,,,,,,,,,,,,,,,,,,,,,,,,,,,,,,,,,,,,,,,,,,,989.8628549994901,989.8628549994901,0.007828599773347378,0.09838190022855997,2.0,5.124990800395608,,,,,,,,,,,,,,,8536,Moral,2024-12-10_12h22.48.282,MoralCondition_v2,2022.2.5,30.011878701200324,
14,0,14,0,2,0,2,0,,,,,,,,,,,,,,,,,,,,,,,,,,,,,,,,,,,,,,,,,,,,,,,,,,,,995.0296537997201,995.0296537997201,0.007150099612772465,0.09800380002707243,3.0,2.59189959987998,,,,,,,,,,,,,,,8536,Moral,2024-12-10_12h22.48.282,MoralCondition_v2,2022.2.5,30.011878701200324,
14,0,14,0,3,0,3,0,,,,,,,,,,,,,,,,,,,,,,,,,,,,,,,,,,,,,,,,,,,,,,,,,,,,997.6626959992573,997.6626959992573,0.006463699974119663,0.09916989970952272,5.0,3.760478200390935,,,,,,,,,,,,,,,8536,Moral,2024-12-10_12h22.48.282,MoralCondition_v2,2022.2.5,30.011878701200324,
14,0,14,0,4,0,4,0,,,,,,,,,,,,,,,,,,,,,,,,,,,,,,,,,,,,,,,,,,,,,,,,,,,,1001.4629212999716,1001.4629212999716,0.00777829997241497,0.09816229995340109,5.0,2.2914602998644114,,,,,,,,,,,,,,,8536,Moral,2024-12-10_12h22.48.282,MoralCondition_v2,2022.2.5,30.011878701200324,
14,0,14,0,5,0,5,0,,,,,,,,,,,,,,,,,,,,,,,,,,,,,,,,,,,,,,,,,,,,,,,,,,,,1003.7964419992641,1003.7964419992641,0.009061399847269058,0.09727209992706776,1.0,2.6560516003519297,,,,,,,,,,,,,,,8536,Moral,2024-12-10_12h22.48.282,MoralCondition_v2,2022.2.5,30.011878701200324,
14,0,14,0,6,0,6,0,,,,,,,,,,,,,,,,,,,,,,,,,,,,,,,,,,,,,,,,,,,,,,,,,,,,1006.4959959993139,1006.4959959993139,0.006351400166749954,0.09903489984571934,4.0,4.360604200512171,,,,,,,,,,,,,,,8536,Moral,2024-12-10_12h22.48.282,MoralCondition_v2,2022.2.5,30.011878701200324,
14,0,14,0,,,,,,,,,,,,,,,,,,,,,,,,,,,,,,,,,,,,,,,,,,,,,,,,,,,,,,,,,,,,,,1010.8960874993354,1010.8960874993354,0.0015373993664979935,0.0977609995752573,5.0,6.363861800171435,,,,,,,,,8536,Moral,2024-12-10_12h22.48.282,MoralCondition_v2,2022.2.5,30.011878701200324,
15,0,15,0,0,0,0,0,,,,,,,,,,,,,,,,,,,,,,1017.2962691998109,0.0003800000995397568,0.09721870068460703,1023.2961446996778,6.030593700706959,1023.479349299334,1023.479349299334,0.07850140053778887,0.18054170068353415,6.013990600593388,1029.57930989936,1029.57930989936,1029.57930989936,0.06883760076016188,0.18044530134648085,1035.2794436998665,1035.479457599111,6.013920601457357,6.113823100924492,1041.4794220998883,12.013872501440346,1041.6128779994324,1041.6128779994324,0.014084601774811745,0.113857701420784,up,1.8232233002781868,1043.4793650992215,1.670047640800476e-05,0.09903400018811226,1049.5126089993864,1049.5126089993864,0.027093200013041496,0.13270040042698383,4.0,6.973091299645603,,,,,,,1041.5794496992603,1041.5794496992603,,1029.479478799738,1029.479478799738,,,,8536,Moral,2024-12-10_12h22.48.282,MoralCondition_v2,2022.2.5,30.011878701200324,
15,0,15,0,1,0,1,0,,,,,,,,,,,,,,,,,,,,,,,,,,,,,,,,,,,,,,,,,,,,,,,,,,,,1056.5127336997539,1056.5127336997539,0.0076294997707009315,0.09828410018235445,5.0,2.7581817004829645,,,,,,,,,,,,,,,8536,Moral,2024-12-10_12h22.48.282,MoralCondition_v2,2022.2.5,30.011878701200324,
15,0,15,0,2,0,2,0,,,,,,,,,,,,,,,,,,,,,,,,,,,,,,,,,,,,,,,,,,,,,,,,,,,,1059.3127972995862,1059.3127972995862,0.006887900643050671,0.09908230043947697,2.0,3.9929266003891826,,,,,,,,,,,,,,,8536,Moral,2024-12-10_12h22.48.282,MoralCondition_v2,2022.2.5,30.011878701200324,
15,0,15,0,3,0,3,0,,,,,,,,,,,,,,,,,,,,,,,,,,,,,,,,,,,,,,,,,,,,,,,,,,,,1063.3460325999185,1063.3460325999185,0.008295300416648388,0.09872009977698326,2.0,3.5247103990986943,,,,,,,,,,,,,,,8536,Moral,2024-12-10_12h22.48.282,MoralCondition_v2,2022.2.5,30.011878701200324,
15,0,15,0,4,0,4,0,,,,,,,,,,,,,,,,,,,,,,,,,,,,,,,,,,,,,,,,,,,,,,,,,,,,1066.912588599138,1066.912588599138,0.008524799719452858,0.09742819983512163,2.0,2.3565504997968674,,,,,,,,,,,,,,,8536,Moral,2024-12-10_12h22.48.282,MoralCondition_v2,2022.2.5,30.011878701200324,
15,0,15,0,5,0,5,0,,,,,,,,,,,,,,,,,,,,,,,,,,,,,,,,,,,,,,,,,,,,,,,,,,,,1069.312816299498,1069.312816299498,0.006935399957001209,0.09918390028178692,5.0,6.3934825994074345,,,,,,,,,,,,,,,8536,Moral,2024-12-10_12h22.48.282,MoralCondition_v2,2022.2.5,30.011878701200324,
15,0,15,0,6,0,6,0,,,,,,,,,,,,,,,,,,,,,,,,,,,,,,,,,,,,,,,,,,,,,,,,,,,,1075.7460925998166,1075.7460925998166,0.007212599739432335,0.09799230005592108,4.0,2.4584535006433725,,,,,,,,,,,,,,,8536,Moral,2024-12-10_12h22.48.282,MoralCondition_v2,2022.2.5,30.011878701200324,
15,0,15,0,,,,,,,,,,,,,,,,,,,,,,,,,,,,,,,,,,,,,,,,,,,,,,,,,,,,,,,,,,,,,,1078.2459344994277,1078.2459344994277,0.0012886999174952507,0.0978732006624341,5.0,4.531115599907935,,,,,,,,,8536,Moral,2024-12-10_12h22.48.282,MoralCondition_v2,2022.2.5,30.011878701200324,
16,0,16,0,0,0,0,0,,,,,,,,,,,,,,,,,,,,,,1082.812847899273,0.00032040011137723923,0.09759390074759722,1088.8292925991118,6.014179000630975,1088.9960012994707,1088.9960012994707,0.0775715010240674,0.18111920077353716,6.014156200923026,1095.0961410999298,1095.0961410999298,1095.0961410999298,0.07427290081977844,0.18117730133235455,1100.7960067996755,1100.9958881000057,6.014169001020491,6.114106801338494,1106.9958682991564,12.01412340067327,1107.12924499996,1107.12924499996,0.014355501160025597,0.11410170141607523,up,1.8581540994346142,1109.04593189992,4.620011895895004e-05,0.09779199957847595,1115.0629089996219,1115.0629089996219,0.0248090997338295,0.1144642997533083,4.0,2.457239800132811,,,,,,,1107.0959013998508,1107.0959013998508,,1094.995923999697,1094.995923999697,,,,8536,Moral,2024-12-10_12h22.48.282,MoralCondition_v2,2022.2.5,30.011878701200324,
16,0,16,0,1,0,1,0,,,,,,,,,,,,,,,,,,,,,,,,,,,,,,,,,,,,,,,,,,,,,,,,,,,,1117.5625946000218,1117.5625946000218,0.007526000030338764,0.09801310021430254,3.0,5.824938800185919,,,,,,,,,,,,,,,8536,Moral,2024-12-10_12h22.48.282,MoralCondition_v2,2022.2.5,30.011878701200324,
16,0,16,0,2,0,2,0,,,,,,,,,,,,,,,,,,,,,,,,,,,,,,,,,,,,,,,,,,,,,,,,,,,,1123.429195699282,1123.429195699282,0.0065609002485871315,0.09926720056682825,1.0,3.626927999779582,,,,,,,,,,,,,,,8536,Moral,2024-12-10_12h22.48.282,MoralCondition_v2,2022.2.5,30.011878701200324,
16,0,16,0,3,0,3,0,,,,,,,,,,,,,,,,,,,,,,,,,,,,,,,,,,,,,,,,,,,,,,,,,,,,1127.095818899572,1127.095818899572,0.006776300258934498,0.09958969987928867,2.0,2.4936128007248044,,,,,,,,,,,,,,,8536,Moral,2024-12-10_12h22.48.282,MoralCondition_v2,2022.2.5,30.011878701200324,
16,0,16,0,4,0,4,0,,,,,,,,,,,,,,,,,,,,,,,,,,,,,,,,,,,,,,,,,,,,,,,,,,,,1129.6290394999087,1129.6290394999087,0.007117999717593193,0.0981345996260643,3.0,2.958627199754119,,,,,,,,,,,,,,,8536,Moral,2024-12-10_12h22.48.282,MoralCondition_v2,2022.2.5,30.011878701200324,
16,0,16,0,5,0,5,0,,,,,,,,,,,,,,,,,,,,,,,,,,,,,,,,,,,,,,,,,,,,,,,,,,,,1132.6460784999654,1132.6460784999654,0.007775899954140186,0.11402130033820868,5.0,3.0408212998881936,,,,,,,,,,,,,,,8536,Moral,2024-12-10_12h22.48.282,MoralCondition_v2,2022.2.5,30.011878701200324,
16,0,16,0,6,0,6,0,,,,,,,,,,,,,,,,,,,,,,,,,,,,,,,,,,,,,,,,,,,,,,,,,,,,1135.7124889995903,1135.7124889995903,0.007613000459969044,0.09788910020142794,4.0,2.3245989000424743,,,,,,,,,,,,,,,8536,Moral,2024-12-10_12h22.48.282,MoralCondition_v2,2022.2.5,30.011878701200324,
16,0,16,0,,,,,,,,,,,,,,,,,,,,,,,,,,,,,,,,,,,,,,,,,,,,,,,,,,,,,,,,,,,,,,1138.0792792998254,1138.0792792998254,0.0006660996004939079,0.09928969945758581,5.0,4.366166199557483,,,,,,,,,8536,Moral,2024-12-10_12h22.48.282,MoralCondition_v2,2022.2.5,30.011878701200324,
17,0,17,0,0,0,0,0,,,,,,,,,,,,,,,,,,,,,,1142.4793763998896,0.00031700078397989273,0.09783980064094067,1148.4958428991958,6.014449200592935,1148.6623877994716,1148.6623877994716,0.08072700072079897,0.18132160045206547,6.014485101215541,1154.762639399618,1154.762639399618,1154.762639399618,0.07269040122628212,0.18131930101662874,1160.4624548992142,1160.6624641995877,6.0145027013495564,6.114472000859678,1166.662499299273,12.014543200843036,1166.7957410998642,1166.7957410998642,0.014628601260483265,0.11440550163388252,up,1.536106999963522,1168.3957233997062,1.5100464224815369e-05,0.09943659976124763,1174.4125413997099,1174.4125413997099,0.011052600108087063,0.1161337997764349,5.0,3.839264800772071,,,,,,,1166.7624258995056,1166.7624258995056,1174.4125413997099,1154.6624612994492,1154.6624612994492,,,,8536,Moral,2024-12-10_12h22.48.282,MoralCondition_v2,2022.2.5,30.011878701200324,
17,0,17,0,1,0,1,0,,,,,,,,,,,,,,,,,,,,,,,,,,,,,,,,,,,,,,,,,,,,,,,,,,,,1178.2789795994759,1178.2789795994759,0.006065700203180313,0.09904490038752556,5.0,1.7939844001084566,,,,,,,,,,,,,,,8536,Moral,2024-12-10_12h22.48.282,MoralCondition_v2,2022.2.5,30.011878701200324,
17,0,17,0,2,0,2,0,,,,,,,,,,,,,,,,,,,,,,,,,,,,,,,,,,,,,,,,,,,,,,,,,,,,1180.1123540997505,1180.1123540997505,0.007644200697541237,0.09774430003017187,5.0,3.8244156995788217,,,,,,,,,,,,,,,8536,Moral,2024-12-10_12h22.48.282,MoralCondition_v2,2022.2.5,30.011878701200324,
17,0,17,0,3,0,3,0,,,,,,,,,,,,,,,,,,,,,,,,,,,,,,,,,,,,,,,,,,,,,,,,,,,,1183.979095599614,1183.979095599614,0.008089500479400158,0.09911479987204075,2.0,4.658712400123477,,,,,,,,,,,,,,,8536,Moral,2024-12-10_12h22.48.282,MoralCondition_v2,2022.2.5,30.011878701200324,
17,0,17,0,4,0,4,0,,,,,,,,,,,,,,,,,,,,,,,,,,,,,,,,,,,,,,,,,,,,,,,,,,,,1188.6792403999716,1188.6792403999716,0.0066405003890395164,0.0992280999198556,2.0,1.7268795995041728,,,,,,,,,,,,,,,8536,Moral,2024-12-10_12h22.48.282,MoralCondition_v2,2022.2.5,30.011878701200324,
17,0,17,0,5,0,5,0,,,,,,,,,,,,,,,,,,,,,,,,,,,,,,,,,,,,,,,,,,,,,,,,,,,,1190.462606200017,1190.462606200017,0.007712299935519695,0.11429559998214245,1.0,2.807612999342382,,,,,,,,,,,,,,,8536,Moral,2024-12-10_12h22.48.282,MoralCondition_v2,2022.2.5,30.011878701200324,
17,0,17,0,6,0,6,0,,,,,,,,,,,,,,,,,,,,,,,,,,,,,,,,,,,,,,,,,,,,,,,,,,,,1193.29558969941,1193.29558969941,0.007653200067579746,0.09776889998465776,4.0,2.5581299997866154,,,,,,,,,,,,,,,8536,Moral,2024-12-10_12h22.48.282,MoralCondition_v2,2022.2.5,30.011878701200324,
17,0,17,0,,,,,,,,,,,,,,,,,,,,,,,,,,,,,,,,,,,,,,,,,,,,,,,,,,,,,,,,,,,,,,1195.8958254000172,1195.8958254000172,0.0013600001111626625,0.09798299986869097,5.0,4.597703699953854,,,,,,,,,8536,Moral,2024-12-10_12h22.48.282,MoralCondition_v2,2022.2.5,30.011878701200324,
18,0,18,0,0,0,0,0,,,,,,,,,,,,,,,,,,,,,,1200.5294323991984,0.0003452003002166748,0.09785860031843185,1206.528937199153,6.031121999956667,1206.728917199187,1206.728917199187,0.09077150002121925,0.19802600052207708,6.031267200596631,1212.8122331993654,1212.8122331993654,1212.8122331993654,0.06737250089645386,0.1811229009181261,1218.5123580992222,1218.7121719997376,6.014289200305939,6.114414501003921,1224.7122730994597,12.014465500600636,1224.8456756994128,1224.8456756994128,0.014594901353120804,0.11458650138229132,down,1.9341302998363972,1226.8289869995788,2.87005677819252e-05,0.09920420031994581,1232.8290070993826,1232.8290070993826,0.006640600040555,0.09866250026971102,6.0,5.526614000089467,,,,,,,1224.8122463999316,1224.8122463999316,1232.8290070993826,1212.712088599801,1212.712088599801,,,,8536,Moral,2024-12-10_12h22.48.282,MoralCondition_v2,2022.2.5,30.011878701200324,
18,0,18,0,1,0,1,0,,,,,,,,,,,,,,,,,,,,,,,,,,,,,,,,,,,,,,,,,,,,,,,,,,,,1238.3955706991255,1238.3955706991255,0.00715629942715168,0.09806230012327433,7.0,2.658618699759245,,,,,,,,,,,,,,,8536,Moral,2024-12-10_12h22.48.282,MoralCondition_v2,2022.2.5,30.011878701200324,
18,0,18,0,2,0,2,0,,,,,,,,,,,,,,,,,,,,,,,,,,,,,,,,,,,,,,,,,,,,,,,,,,,,1241.112248099409,1241.112248099409,0.009197100065648556,0.11418840009719133,3.0,2.7394168004393578,,,,,,,,,,,,,,,8536,Moral,2024-12-10_12h22.48.282,MoralCondition_v2,2022.2.5,30.011878701200324,
18,0,18,0,3,0,3,0,,,,,,,,,,,,,,,,,,,,,,,,,,,,,,,,,,,,,,,,,,,,,,,,,,,,1243.8789094993845,1243.8789094993845,0.007906999439001083,0.09798359964042902,4.0,2.09144870005548,,,,,,,,,,,,,,,8536,Moral,2024-12-10_12h22.48.282,MoralCondition_v2,2022.2.5,30.011878701200324,
18,0,18,0,4,0,4,0,,,,,,,,,,,,,,,,,,,,,,,,,,,,,,,,,,,,,,,,,,,,,,,,,,,,1246.0121700996533,1246.0121700996533,0.008347999304533005,0.0981271993368864,2.0,3.690861999988556,,,,,,,,,,,,,,,8536,Moral,2024-12-10_12h22.48.282,MoralCondition_v2,2022.2.5,30.011878701200324,
18,0,18,0,5,0,5,0,,,,,,,,,,,,,,,,,,,,,,,,,,,,,,,,,,,,,,,,,,,,,,,,,,,,1249.7454856997356,1249.7454856997356,0.008046099916100502,0.09793960023671389,2.0,2.5908265998587012,,,,,,,,,,,,,,,8536,Moral,2024-12-10_12h22.48.282,MoralCondition_v2,2022.2.5,30.011878701200324,
18,0,18,0,6,0,6,0,,,,,,,,,,,,,,,,,,,,,,,,,,,,,,,,,,,,,,,,,,,,,,,,,,,,1252.3789103999734,1252.3789103999734,0.007584899663925171,0.09911759942770004,2.0,1.5927679995074868,,,,,,,,,,,,,,,8536,Moral,2024-12-10_12h22.48.282,MoralCondition_v2,2022.2.5,30.011878701200324,
18,0,18,0,,,,,,,,,,,,,,,,,,,,,,,,,,,,,,,,,,,,,,,,,,,,,,,,,,,,,,,,,,,,,,1254.0123423999175,1254.0123423999175,0.0007017003372311592,0.09955930057913065,2.0,4.933065099641681,,,,,,,,,8536,Moral,2024-12-10_12h22.48.282,MoralCondition_v2,2022.2.5,30.011878701200324,
19,0,19,0,0,0,0,0,,,,,,,,,,,,,,,,,,,,,,1258.979120399803,0.0001447005197405815,0.09919309988617897,1264.9954997999594,6.015771600417793,1265.1620029993355,1265.1620029993355,0.07769570033997297,0.18277400080114603,6.015924000181258,1271.2619987996295,1271.2619987996295,1271.2619987996295,0.08282000105828047,0.18264070060104132,1276.9621241996065,1277.162320399657,6.016023401170969,6.115782700479031,1283.1621930999681,12.01589700113982,1283.2954276995733,1283.2954276995733,0.01592470146715641,0.11582060158252716,up,1.0200843997299671,1284.3621827997267,4.720035940408707e-05,0.0979516003280878,1290.3953546993434,1290.3953546993434,0.025733300484716892,0.1310708001255989,5.0,3.1068104999139905,,,,,,,1283.2620888995007,1283.2620888995007,,1271.1621154993773,1271.1621154993773,,,,8536,Moral,2024-12-10_12h22.48.282,MoralCondition_v2,2022.2.5,30.011878701200324,
19,0,19,0,1,0,1,0,,,,,,,,,,,,,,,,,,,,,,,,,,,,,,,,,,,,,,,,,,,,,,,,,,,,1293.5285969991237,1293.5285969991237,0.007885199971497059,0.09866390004754066,3.0,4.558259399607778,,,,,,,,,,,,,,,8536,Moral,2024-12-10_12h22.48.282,MoralCondition_v2,2022.2.5,30.011878701200324,
19,0,19,0,2,0,2,0,,,,,,,,,,,,,,,,,,,,,,,,,,,,,,,,,,,,,,,,,,,,,,,,,,,,1298.1287201996893,1298.1287201996893,0.007023800164461136,0.09913229942321777,4.0,2.893281700089574,,,,,,,,,,,,,,,8536,Moral,2024-12-10_12h22.48.282,MoralCondition_v2,2022.2.5,30.011878701200324,
19,0,19,0,3,0,3,0,,,,,,,,,,,,,,,,,,,,,,,,,,,,,,,,,,,,,,,,,,,,,,,,,,,,1301.061993099749,1301.061993099749,0.00661539938300848,0.09914979990571737,3.0,4.026604899205267,,,,,,,,,,,,,,,8536,Moral,2024-12-10_12h22.48.282,MoralCondition_v2,2022.2.5,30.011878701200324,
19,0,19,0,4,0,4,0,,,,,,,,,,,,,,,,,,,,,,,,,,,,,,,,,,,,,,,,,,,,,,,,,,,,1305.1287290994078,1305.1287290994078,0.0073955003172159195,0.09784399997442961,3.0,2.0912087000906467,,,,,,,,,,,,,,,8536,Moral,2024-12-10_12h22.48.282,MoralCondition_v2,2022.2.5,30.011878701200324,
19,0,19,0,5,0,5,0,,,,,,,,,,,,,,,,,,,,,,,,,,,,,,,,,,,,,,,,,,,,,,,,,,,,1307.2619531992823,1307.2619531992823,0.007527999579906464,0.0976412994787097,5.0,2.7910812003538013,,,,,,,,,,,,,,,8536,Moral,2024-12-10_12h22.48.282,MoralCondition_v2,2022.2.5,30.011878701200324,
19,0,19,0,6,0,6,0,,,,,,,,,,,,,,,,,,,,,,,,,,,,,,,,,,,,,,,,,,,,,,,,,,,,1310.095350499265,1310.095350499265,0.007311800494790077,0.09803079999983311,1.0,3.424869299866259,,,,,,,,,,,,,,,8536,Moral,2024-12-10_12h22.48.282,MoralCondition_v2,2022.2.5,30.011878701200324,
19,0,19,0,,,,,,,,,,,,,,,,,,,,,,,,,,,,,,,,,,,,,,,,,,,,,,,,,,,,,,,,,,,,,,1313.5619610995054,1313.5619610995054,0.0010504992678761482,0.09838869981467724,6.0,7.698235299438238,,,,,,,,,8536,Moral,2024-12-10_12h22.48.282,MoralCondition_v2,2022.2.5,30.011878701200324,
