loop.thisRepN,loop.thisTrialN,loop.thisN,loop.thisIndex,evaluate_all_emotions.thisRepN,evaluate_all_emotions.thisTrialN,evaluate_all_emotions.thisN,evaluate_all_emotions.thisIndex,sync_beep_1.started,p_port.started,p_port.stopped,sync_beep_1.stopped,sync_beep_2.started,sync_beep_2.stopped,sync_beep_3.started,sync_beep_3.stopped,sync_beep_4.started,sync_beep_4.stopped,baseline.started,p_port_2.started,p_port_2.stopped,baseline.stopped,p_port_3.started,Game_Start_Text.started,p_port_4.started,p_port_4.stopped,key_resp.started,key_resp.keys,key_resp.rt,fixation_cross.started,p_port_5.started,p_port_5.stopped,fixation_cross.stopped,p_port_6.started,player_image_intro.started,player_name_intro.started,p_port_7.started,p_port_7.stopped,p_port_8.started,player_image_offer.started,player_name_offer.started,proposed_split.started,p_port_9.started,p_port_9.stopped,proposed_split.stopped,accept_reject.started,p_port_15.started,p_port_15.stopped,accept_reject.stopped,p_port_10.started,arrow_instructions.started,offer_choice.started,p_port_11.started,p_port_11.stopped,offer_choice.keys,offer_choice.rt,Instructions_Affinity_Score.started,p_port_12.started,p_port_12.stopped,Instructions_Affinity_Score.stopped,Emotion_Image.started,AffinityScore.started,p_port_13.started,p_port_13.stopped,AffinityScore.response,AffinityScore.rt,Instruction.started,Moral_Disgust_Score.started,p_port_14.started,p_port_14.stopped,Moral_Disgust_Score.response,Moral_Disgust_Score.rt,player_image_intro.stopped,player_name_intro.stopped,player_image_offer.stopped,player_name_offer.stopped,p_port_8.stopped,p_port_10.stopped,p_port_6.stopped,participant,session,date,expName,psychopyVersion,frameRate,
,,,,,,,,25.296909862197936,0.0009689014405012131,0.10137169994413853,25.613336799666286,25.913268559612334,26.212947599589825,26.496312960051,26.813167298212647,27.11309335846454,27.429677499458194,27.429677499458194,0.0008373018354177475,0.10156210139393806,42.44641829840839,15.018194701522589,42.52974549867213,0.0014696009457111359,0.10151760093867779,42.99646279960871,space,1.6360346004366875,,,,,,,,,,,,,,,,,,,,,,,,,,,,,,,,,,,,,,,,,,,,,,,,,,,8576,Moral,2024-06-14_13h31.37.522,MoralCondition_v2,2022.2.5,30.000822063709386,
0,0,0,0,0,0,0,0,,,,,,,,,,,,,,,,,,,,,,44.69657619856298,0.013592800125479698,0.13162150047719479,50.69643549993634,6.014885799959302,50.92968439869583,50.92968439869583,0.11526920087635517,0.24824000149965286,6.0148471016436815,56.996461099013686,56.996461099013686,56.996461099013686,0.07683160156011581,0.21484020166099072,62.696426598355174,62.863072199746966,6.014866601675749,6.114845301955938,68.86309009976685,12.014883501455188,68.99654569849372,68.99654569849372,0.01510610245168209,0.11481470242142677,up,0.4115600008517504,69.46319719962776,4.6100467443466187e-05,0.09756829962134361,75.49644469842315,75.49644469842315,75.49644469842315,0.02109220065176487,0.13093290105462074,2.0,7.644158899784088,,,,,,,,,,,,,,8576,Moral,2024-06-14_13h31.37.522,MoralCondition_v2,2022.2.5,30.000822063709386,
0,0,0,0,1,0,1,0,,,,,,,,,,,,,,,,,,,,,,,,,,,,,,,,,,,,,,,,,,,,,,,,,,,,,83.17993859946728,83.17993859946728,0.014266900718212128,0.1147914994508028,4.0,7.601458700373769,,,,,,,,,,,,,,8576,Moral,2024-06-14_13h31.37.522,MoralCondition_v2,2022.2.5,30.000822063709386,
0,0,0,0,2,0,2,0,,,,,,,,,,,,,,,,,,,,,,,,,,,,,,,,,,,,,,,,,,,,,,,,,,,,,90.81305269896984,90.81305269896984,0.0076455008238554,0.09934750013053417,2.0,3.692630600184202,,,,,,,,,,,,,,8576,Moral,2024-06-14_13h31.37.522,MoralCondition_v2,2022.2.5,30.000822063709386,
0,0,0,0,3,0,3,0,,,,,,,,,,,,,,,,,,,,,,,,,,,,,,,,,,,,,,,,,,,,,,,,,,,,,94.54620329849422,94.54620329849422,0.010318201035261154,0.09752090089023113,2.0,1.78843479976058,,,,,,,,,,,,,,8576,Moral,2024-06-14_13h31.37.522,MoralCondition_v2,2022.2.5,30.000822063709386,
0,0,0,0,4,0,4,0,,,,,,,,,,,,,,,,,,,,,,,,,,,,,,,,,,,,,,,,,,,,,,,,,,,,,96.37958659976721,96.37958659976721,0.009258599951863289,0.09776229970157146,1.0,3.523464299738407,,,,,,,,,,,,,,8576,Moral,2024-06-14_13h31.37.522,MoralCondition_v2,2022.2.5,30.000822063709386,
0,0,0,0,5,0,5,0,,,,,,,,,,,,,,,,,,,,,,,,,,,,,,,,,,,,,,,,,,,,,,,,,,,,,99.96320309862494,99.96320309862494,0.010397499427199364,0.1149389985948801,1.0,2.438943400979042,,,,,,,,,,,,,,8576,Moral,2024-06-14_13h31.37.522,MoralCondition_v2,2022.2.5,30.000822063709386,
0,0,0,0,6,0,6,0,,,,,,,,,,,,,,,,,,,,,,,,,,,,,,,,,,,,,,,,,,,,,,,,,,,,,102.44665789976716,102.44665789976716,0.00934549979865551,0.11449179984629154,1.0,1.572937000542879,,,,,,,,,,,,,,8576,Moral,2024-06-14_13h31.37.522,MoralCondition_v2,2022.2.5,30.000822063709386,
0,0,0,0,,,,,,,,,,,,,,,,,,,,,,,,,,,,,,,,,,,,,,,,,,,,,,,,,,,,,,,,,,,,,,,104.04639679938555,104.04639679938555,0.002381499856710434,0.09741969965398312,4.0,5.196161899715662,,,,,,,,8576,Moral,2024-06-14_13h31.37.522,MoralCondition_v2,2022.2.5,30.000822063709386,
1,0,1,0,0,0,0,0,,,,,,,,,,,,,,,,,,,,,,109.28014459833503,0.0002699997276067734,0.09787840023636818,115.29639699868858,6.0144056007266045,115.46304409950972,115.46304409950972,0.07228440046310425,0.18109040148556232,6.01445659995079,121.56300419941545,121.56300419941545,121.56300419941545,0.06899070180952549,0.18129860050976276,127.26308729872108,127.4631180986762,6.014593500643969,6.114480400457978,133.46309809945524,12.01445640064776,133.5965564996004,133.5965564996004,0.014820601791143417,0.11445870250463486,up,1.0756581015884876,134.71307609975338,4.1000545024871826e-05,0.09807300008833408,,140.72958819940686,140.72958819940686,0.022104300558567047,0.11467139981687069,2.0,3.4936282001435757,,,,,,,121.46306979842484,121.46306979842484,133.56331979855895,133.56331979855895,,,,8576,Moral,2024-06-14_13h31.37.522,MoralCondition_v2,2022.2.5,30.000822063709386,
1,0,1,0,1,0,1,0,,,,,,,,,,,,,,,,,,,,,,,,,,,,,,,,,,,,,,,,,,,,,,,,,,,,,144.26307410001755,144.26307410001755,0.008090000599622726,0.09823570027947426,2.0,1.2581289000809193,,,,,,,,,,,,,,8576,Moral,2024-06-14_13h31.37.522,MoralCondition_v2,2022.2.5,30.000822063709386,
1,0,1,0,2,0,2,0,,,,,,,,,,,,,,,,,,,,,,,,,,,,,,,,,,,,,,,,,,,,,,,,,,,,,145.5631999988109,145.5631999988109,0.007083199918270111,0.09929629974067211,2.0,1.1597959995269775,,,,,,,,,,,,,,8576,Moral,2024-06-14_13h31.37.522,MoralCondition_v2,2022.2.5,30.000822063709386,
1,0,1,0,3,0,3,0,,,,,,,,,,,,,,,,,,,,,,,,,,,,,,,,,,,,,,,,,,,,,,,,,,,,,146.76293789967895,146.76293789967895,0.00640299916267395,0.09915649890899658,2.0,1.4270479995757341,,,,,,,,,,,,,,8576,Moral,2024-06-14_13h31.37.522,MoralCondition_v2,2022.2.5,30.000822063709386,
1,0,1,0,4,0,4,0,,,,,,,,,,,,,,,,,,,,,,,,,,,,,,,,,,,,,,,,,,,,,,,,,,,,,148.2464502993971,148.2464502993971,0.007676800712943077,0.11418100073933601,2.0,1.707405000925064,,,,,,,,,,,,,,8576,Moral,2024-06-14_13h31.37.522,MoralCondition_v2,2022.2.5,30.000822063709386,
1,0,1,0,5,0,5,0,,,,,,,,,,,,,,,,,,,,,,,,,,,,,,,,,,,,,,,,,,,,,,,,,,,,,149.97994009964168,149.97994009964168,0.00784200057387352,0.09779169969260693,2.0,3.2912944983690977,,,,,,,,,,,,,,8576,Moral,2024-06-14_13h31.37.522,MoralCondition_v2,2022.2.5,30.000822063709386,
1,0,1,0,6,0,6,0,,,,,,,,,,,,,,,,,,,,,,,,,,,,,,,,,,,,,,,,,,,,,,,,,,,,,153.3130750991404,153.3130750991404,0.007355000823736191,0.09763769991695881,2.0,1.8582229986786842,,,,,,,,,,,,,,8576,Moral,2024-06-14_13h31.37.522,MoralCondition_v2,2022.2.5,30.000822063709386,
1,0,1,0,,,,,,,,,,,,,,,,,,,,,,,,,,,,,,,,,,,,,,,,,,,,,,,,,,,,,,,,,,,,,,,155.21312819980085,155.21312819980085,0.0007493998855352402,0.09901899844408035,4.0,3.632853200659156,,,,,,,,8576,Moral,2024-06-14_13h31.37.522,MoralCondition_v2,2022.2.5,30.000822063709386,
2,0,2,0,0,0,0,0,,,,,,,,,,,,,,,,,,,,,,158.87998079881072,0.00013689883053302765,0.09923340007662773,164.89648599922657,6.015934599563479,165.09652619995177,165.09652619995177,0.1123002003878355,0.2160458005964756,6.0161045007407665,171.1632605995983,171.1632605995983,171.1632605995983,0.07568100094795227,0.1827913001179695,176.86309329979122,177.0633519999683,6.016272399574518,6.115959700196981,183.06336729973555,12.016254400834441,183.19667269848287,183.19667269848287,0.016244901344180107,0.11619050055742264,down,2.2839678023010492,185.52977089956403,4.1600316762924194e-05,0.09748199954628944,,191.56308029964566,191.56308029964566,0.026712000370025635,0.1309730000793934,5.0,5.771969601511955,,,,,,,,,183.16318199969828,183.16318199969828,,,,8576,Moral,2024-06-14_13h31.37.522,MoralCondition_v2,2022.2.5,30.000822063709386,
2,0,2,0,1,0,1,0,,,,,,,,,,,,,,,,,,,,,,,,,,,,,,,,,,,,,,,,,,,,,,,,,,,,,197.36295729875565,197.36295729875565,0.006429700180888176,0.09924700111150742,5.0,2.227311599999666,,,,,,,,,,,,,,8576,Moral,2024-06-14_13h31.37.522,MoralCondition_v2,2022.2.5,30.000822063709386,
2,0,2,0,2,0,2,0,,,,,,,,,,,,,,,,,,,,,,,,,,,,,,,,,,,,,,,,,,,,,,,,,,,,,199.629923498258,199.629923498258,0.008019300177693367,0.09828680008649826,5.0,4.858168199658394,,,,,,,,,,,,,,8576,Moral,2024-06-14_13h31.37.522,MoralCondition_v2,2022.2.5,30.000822063709386,
2,0,2,0,3,0,3,0,,,,,,,,,,,,,,,,,,,,,,,,,,,,,,,,,,,,,,,,,,,,,,,,,,,,,204.52976619824767,204.52976619824767,0.006959499791264534,0.09798550046980381,5.0,4.025395298376679,,,,,,,,,,,,,,8576,Moral,2024-06-14_13h31.37.522,MoralCondition_v2,2022.2.5,30.000822063709386,
2,0,2,0,4,0,4,0,,,,,,,,,,,,,,,,,,,,,,,,,,,,,,,,,,,,,,,,,,,,,,,,,,,,,208.59634009934962,208.59634009934962,0.005499700084328651,0.099253099411726,4.0,2.394948799163103,,,,,,,,,,,,,,8576,Moral,2024-06-14_13h31.37.522,MoralCondition_v2,2022.2.5,30.000822063709386,
2,0,2,0,5,0,5,0,,,,,,,,,,,,,,,,,,,,,,,,,,,,,,,,,,,,,,,,,,,,,,,,,,,,,211.02995029836893,211.02995029836893,0.006836799904704094,0.09739429876208305,2.0,5.824996501207352,,,,,,,,,,,,,,8576,Moral,2024-06-14_13h31.37.522,MoralCondition_v2,2022.2.5,30.000822063709386,
2,0,2,0,6,0,6,0,,,,,,,,,,,,,,,,,,,,,,,,,,,,,,,,,,,,,,,,,,,,,,,,,,,,,216.91321489959955,216.91321489959955,0.008051499724388123,0.11427699960768223,2.0,1.3404495995491743,,,,,,,,,,,,,,8576,Moral,2024-06-14_13h31.37.522,MoralCondition_v2,2022.2.5,30.000822063709386,
2,0,2,0,,,,,,,,,,,,,,,,,,,,,,,,,,,,,,,,,,,,,,,,,,,,,,,,,,,,,,,,,,,,,,,218.2797615993768,218.2797615993768,0.0013137012720108032,0.09813300147652626,3.0,8.93134449981153,,,,,,,,8576,Moral,2024-06-14_13h31.37.522,MoralCondition_v2,2022.2.5,30.000822063709386,
3,0,3,0,0,0,0,0,,,,,,,,,,,,,,,,,,,,,,227.24655609950423,0.0002647005021572113,0.0977886002510786,233.24643569998443,6.031038101762533,233.47963029891253,233.47963029891253,0.11591630056500435,0.2310331016778946,6.031014900654554,239.5464805997908,239.5464805997908,239.5464805997908,0.0932788010686636,0.19783920235931873,245.24647029861808,245.44647619873285,6.031095301732421,6.130991602316499,251.446516899392,12.031113902106881,251.5797869991511,251.5797869991511,0.031246302649378777,0.13106570206582546,up,1.48474040068686,253.12980039976537,9.150058031082153e-05,0.09786880016326904,259.14671240001917,259.14671240001917,259.14671240001917,0.009099701419472694,0.11463590152561665,2.0,2.706647399812937,,,,,,,,,251.54645149968565,251.54645149968565,,,,8576,Moral,2024-06-14_13h31.37.522,MoralCondition_v2,2022.2.5,30.000822063709386,
3,0,3,0,1,0,1,0,,,,,,,,,,,,,,,,,,,,,,,,,,,,,,,,,,,,,,,,,,,,,,,,,,,,,261.87966649979353,261.87966649979353,0.007081599906086922,0.09867839887738228,4.0,6.0254797004163265,,,,,,,,,,,,,,8576,Moral,2024-06-14_13h31.37.522,MoralCondition_v2,2022.2.5,30.000822063709386,
3,0,3,0,2,0,2,0,,,,,,,,,,,,,,,,,,,,,,,,,,,,,,,,,,,,,,,,,,,,,,,,,,,,,267.9465961996466,267.9465961996466,0.008923498913645744,0.09681089967489243,2.0,3.2225265987217426,,,,,,,,,,,,,,8576,Moral,2024-06-14_13h31.37.522,MoralCondition_v2,2022.2.5,30.000822063709386,
3,0,3,0,3,0,3,0,,,,,,,,,,,,,,,,,,,,,,,,,,,,,,,,,,,,,,,,,,,,,,,,,,,,,271.21310739964247,271.21310739964247,0.0065680984407663345,0.09898479841649532,2.0,1.160290900617838,,,,,,,,,,,,,,8576,Moral,2024-06-14_13h31.37.522,MoralCondition_v2,2022.2.5,30.000822063709386,
3,0,3,0,4,0,4,0,,,,,,,,,,,,,,,,,,,,,,,,,,,,,,,,,,,,,,,,,,,,,,,,,,,,,272.41303229890764,272.41303229890764,0.007524600252509117,0.09781819954514503,2.0,1.25844950042665,,,,,,,,,,,,,,8576,Moral,2024-06-14_13h31.37.522,MoralCondition_v2,2022.2.5,30.000822063709386,
3,0,3,0,5,0,5,0,,,,,,,,,,,,,,,,,,,,,,,,,,,,,,,,,,,,,,,,,,,,,,,,,,,,,273.7131515983492,273.7131515983492,0.007515499368309975,0.09802459925413132,2.0,0.9583689998835325,,,,,,,,,,,,,,8576,Moral,2024-06-14_13h31.37.522,MoralCondition_v2,2022.2.5,30.000822063709386,
3,0,3,0,6,0,6,0,,,,,,,,,,,,,,,,,,,,,,,,,,,,,,,,,,,,,,,,,,,,,,,,,,,,,274.71319229900837,274.71319229900837,0.0066363997757434845,0.09923760034143925,2.0,1.8605112992227077,,,,,,,,,,,,,,8576,Moral,2024-06-14_13h31.37.522,MoralCondition_v2,2022.2.5,30.000822063709386,
3,0,3,0,,,,,,,,,,,,,,,,,,,,,,,,,,,,,,,,,,,,,,,,,,,,,,,,,,,,,,,,,,,,,,,276.6131779998541,276.6131779998541,0.00096919946372509,0.09861239977180958,4.0,3.0322404988110065,,,,,,,,8576,Moral,2024-06-14_13h31.37.522,MoralCondition_v2,2022.2.5,30.000822063709386,
4,0,4,0,0,0,0,0,,,,,,,,,,,,,,,,,,,,,,279.6802185997367,0.0001375991851091385,0.09903869964182377,285.69647569954395,6.015736699104309,285.86301489919424,285.86301489919424,0.07631419971585274,0.18239890038967133,6.015710501000285,291.96295689977705,291.96295689977705,291.96295689977705,0.07961990125477314,0.18215620145201683,297.66311019845307,297.8633934985846,6.016001300886273,6.115747500211,303.8631560988724,12.015833200886846,303.9964585993439,303.9964585993439,0.015996400266885757,0.11556050181388855,down,0.6523794028908014,304.69650659896433,4.040077328681946e-05,0.09790919907391071,310.7130847983062,310.7130847983062,310.7130847983062,0.009891999885439873,0.11460860073566437,3.0,5.339106200262904,,,,,,,291.8632052000612,291.8632052000612,303.9631740991026,303.9631740991026,,,,8576,Moral,2024-06-14_13h31.37.522,MoralCondition_v2,2022.2.5,30.000822063709386,
4,0,4,0,1,0,1,0,,,,,,,,,,,,,,,,,,,,,,,,,,,,,,,,,,,,,,,,,,,,,,,,,,,,,316.08000869862735,316.08000869862735,0.006436999887228012,0.09904460050165653,2.0,3.193699600175023,,,,,,,,,,,,,,8576,Moral,2024-06-14_13h31.37.522,MoralCondition_v2,2022.2.5,30.000822063709386,
4,0,4,0,2,0,2,0,,,,,,,,,,,,,,,,,,,,,,,,,,,,,,,,,,,,,,,,,,,,,,,,,,,,,319.3132119998336,319.3132119998336,0.0064518991857767105,0.09934110008180141,2.0,3.927342301234603,,,,,,,,,,,,,,8576,Moral,2024-06-14_13h31.37.522,MoralCondition_v2,2022.2.5,30.000822063709386,
4,0,4,0,3,0,3,0,,,,,,,,,,,,,,,,,,,,,,,,,,,,,,,,,,,,,,,,,,,,,,,,,,,,,323.2796952985227,323.2796952985227,0.0064631011337041855,0.09929910115897655,2.0,3.5269581004977226,,,,,,,,,,,,,,8576,Moral,2024-06-14_13h31.37.522,MoralCondition_v2,2022.2.5,30.000822063709386,
4,0,4,0,4,0,4,0,,,,,,,,,,,,,,,,,,,,,,,,,,,,,,,,,,,,,,,,,,,,,,,,,,,,,326.84637279994786,326.84637279994786,0.006379300728440285,0.0993559006601572,2.0,1.7938636001199484,,,,,,,,,,,,,,8576,Moral,2024-06-14_13h31.37.522,MoralCondition_v2,2022.2.5,30.000822063709386,
4,0,4,0,5,0,5,0,,,,,,,,,,,,,,,,,,,,,,,,,,,,,,,,,,,,,,,,,,,,,,,,,,,,,328.679848998785,328.679848998785,0.006616299971938133,0.09916830062866211,2.0,2.2271365001797676,,,,,,,,,,,,,,8576,Moral,2024-06-14_13h31.37.522,MoralCondition_v2,2022.2.5,30.000822063709386,
4,0,4,0,6,0,6,0,,,,,,,,,,,,,,,,,,,,,,,,,,,,,,,,,,,,,,,,,,,,,,,,,,,,,330.9469868000597,330.9469868000597,0.009463399648666382,0.09744380041956902,2.0,3.0888735000044107,,,,,,,,,,,,,,8576,Moral,2024-06-14_13h31.37.522,MoralCondition_v2,2022.2.5,30.000822063709386,
4,0,4,0,,,,,,,,,,,,,,,,,,,,,,,,,,,,,,,,,,,,,,,,,,,,,,,,,,,,,,,,,,,,,,,334.0797079000622,334.0797079000622,0.0011946987360715866,0.09794779866933823,3.0,4.831276498734951,,,,,,,,8576,Moral,2024-06-14_13h31.37.522,MoralCondition_v2,2022.2.5,30.000822063709386,
5,0,5,0,0,0,0,0,,,,,,,,,,,,,,,,,,,,,,338.9467824995518,0.00027750059962272644,0.0986056998372078,344.9631354995072,6.015191700309515,345.1299618985504,345.1299618985504,0.07658940181136131,0.18204240128397942,6.015147101134062,351.22975329868495,351.22975329868495,351.22975329868495,0.07518400065600872,0.18198700062930584,356.92996689863503,357.12982459925115,6.015190001577139,6.115111501887441,363.12980429828167,12.015190001577139,363.26315029896796,363.26315029896796,0.015341602265834808,0.11508120223879814,up,1.289002301171422,364.61316609941423,2.619996666908264e-05,0.09882180020213127,,370.6463548988104,370.6463548988104,0.0271247997879982,0.1321572009474039,2.0,3.039496500045061,,,,,,,351.1129910983145,351.1129910983145,363.2297801990062,363.2297801990062,,,,8576,Moral,2024-06-14_13h31.37.522,MoralCondition_v2,2022.2.5,30.000822063709386,
5,0,5,0,1,0,1,0,,,,,,,,,,,,,,,,,,,,,,,,,,,,,,,,,,,,,,,,,,,,,,,,,,,,,373.71316509880126,373.71316509880126,0.007180599495768547,0.09800530038774014,2.0,1.3584040999412537,,,,,,,,,,,,,,8576,Moral,2024-06-14_13h31.37.522,MoralCondition_v2,2022.2.5,30.000822063709386,
5,0,5,0,2,0,2,0,,,,,,,,,,,,,,,,,,,,,,,,,,,,,,,,,,,,,,,,,,,,,,,,,,,,,375.1129671987146,375.1129671987146,0.007504798471927643,0.09734669886529446,2.0,4.357656499370933,,,,,,,,,,,,,,8576,Moral,2024-06-14_13h31.37.522,MoralCondition_v2,2022.2.5,30.000822063709386,
5,0,5,0,3,0,3,0,,,,,,,,,,,,,,,,,,,,,,,,,,,,,,,,,,,,,,,,,,,,,,,,,,,,,379.51316079869866,379.51316079869866,0.007117399945855141,0.09800009988248348,2.0,0.9589350987225771,,,,,,,,,,,,,,8576,Moral,2024-06-14_13h31.37.522,MoralCondition_v2,2022.2.5,30.000822063709386,
5,0,5,0,4,0,4,0,,,,,,,,,,,,,,,,,,,,,,,,,,,,,,,,,,,,,,,,,,,,,,,,,,,,,380.51312389969826,380.51312389969826,0.006916500627994537,0.09902369976043701,2.0,2.193442899733782,,,,,,,,,,,,,,8576,Moral,2024-06-14_13h31.37.522,MoralCondition_v2,2022.2.5,30.000822063709386,
5,0,5,0,5,0,5,0,,,,,,,,,,,,,,,,,,,,,,,,,,,,,,,,,,,,,,,,,,,,,,,,,,,,,382.7465174999088,382.7465174999088,0.007240800186991692,0.09934959933161736,2.0,2.69284849986434,,,,,,,,,,,,,,8576,Moral,2024-06-14_13h31.37.522,MoralCondition_v2,2022.2.5,30.000822063709386,
5,0,5,0,6,0,6,0,,,,,,,,,,,,,,,,,,,,,,,,,,,,,,,,,,,,,,,,,,,,,,,,,,,,,385.47990319877863,385.47990319877863,0.008752599358558655,0.0974607989192009,2.0,0.8895578999072313,,,,,,,,,,,,,,8576,Moral,2024-06-14_13h31.37.522,MoralCondition_v2,2022.2.5,30.000822063709386,
5,0,5,0,,,,,,,,,,,,,,,,,,,,,,,,,,,,,,,,,,,,,,,,,,,,,,,,,,,,,,,,,,,,,,,386.4132105987519,386.4132105987519,0.0012242011725902557,0.0977925006300211,4.0,2.2310664001852274,,,,,,,,8576,Moral,2024-06-14_13h31.37.522,MoralCondition_v2,2022.2.5,30.000822063709386,
6,0,6,0,0,0,0,0,,,,,,,,,,,,,,,,,,,,,,388.67977389879525,0.00046200118958950043,0.09736640006303787,394.69653919897974,6.013992700725794,394.8629666995257,394.8629666995257,0.07061940059065819,0.18068750202655792,6.014045001938939,400.963318599388,400.963318599388,400.963318599388,0.06908140145242214,0.18087630160152912,406.6631218995899,406.86309969983995,6.0140493009239435,6.114254500716925,412.8630919996649,12.014039101079106,412.979631498456,412.979631498456,0.01399180106818676,0.09732300229370594,up,1.317398302257061,414.3465299997479,6.010010838508606e-05,0.09800419956445694,,420.36292509920895,420.36292509920895,0.025417599827051163,0.11471839994192123,2.0,2.7570203002542257,,,,,,,400.8463421985507,400.8463421985507,412.9462351985276,412.9462351985276,,,,8576,Moral,2024-06-14_13h31.37.522,MoralCondition_v2,2022.2.5,30.000822063709386,
6,0,6,0,1,0,1,0,,,,,,,,,,,,,,,,,,,,,,,,,,,,,,,,,,,,,,,,,,,,,,,,,,,,,423.16319709829986,423.16319709829986,0.0078116003423929214,0.09845979884266853,2.0,1.8253696002066135,,,,,,,,,,,,,,8576,Moral,2024-06-14_13h31.37.522,MoralCondition_v2,2022.2.5,30.000822063709386,
6,0,6,0,2,0,2,0,,,,,,,,,,,,,,,,,,,,,,,,,,,,,,,,,,,,,,,,,,,,,,,,,,,,,425.0298289991915,425.0298289991915,0.0073764994740486145,0.09750409983098507,2.0,0.6579153016209602,,,,,,,,,,,,,,8576,Moral,2024-06-14_13h31.37.522,MoralCondition_v2,2022.2.5,30.000822063709386,
6,0,6,0,3,0,3,0,,,,,,,,,,,,,,,,,,,,,,,,,,,,,,,,,,,,,,,,,,,,,,,,,,,,,425.7465391997248,425.7465391997248,0.011795300990343094,0.11534610018134117,2.0,1.1376642994582653,,,,,,,,,,,,,,8576,Moral,2024-06-14_13h31.37.522,MoralCondition_v2,2022.2.5,30.000822063709386,
6,0,6,0,4,0,4,0,,,,,,,,,,,,,,,,,,,,,,,,,,,,,,,,,,,,,,,,,,,,,,,,,,,,,426.9128896985203,426.9128896985203,0.0076493993401527405,0.0978322010487318,2.0,1.05788859911263,,,,,,,,,,,,,,8576,Moral,2024-06-14_13h31.37.522,MoralCondition_v2,2022.2.5,30.000822063709386,
6,0,6,0,5,0,5,0,,,,,,,,,,,,,,,,,,,,,,,,,,,,,,,,,,,,,,,,,,,,,,,,,,,,,428.01306709833443,428.01306709833443,0.0067392997443675995,0.09911289997398853,2.0,0.8601605985313654,,,,,,,,,,,,,,8576,Moral,2024-06-14_13h31.37.522,MoralCondition_v2,2022.2.5,30.000822063709386,
6,0,6,0,6,0,6,0,,,,,,,,,,,,,,,,,,,,,,,,,,,,,,,,,,,,,,,,,,,,,,,,,,,,,428.9131763987243,428.9131763987243,0.0065567996352910995,0.09921040013432503,2.0,1.3934923000633717,,,,,,,,,,,,,,8576,Moral,2024-06-14_13h31.37.522,MoralCondition_v2,2022.2.5,30.000822063709386,
6,0,6,0,,,,,,,,,,,,,,,,,,,,,,,,,,,,,,,,,,,,,,,,,,,,,,,,,,,,,,,,,,,,,,,430.34671049937606,430.34671049937606,0.0018740985542535782,0.09813569858670235,4.0,2.0305410996079445,,,,,,,,8576,Moral,2024-06-14_13h31.37.522,MoralCondition_v2,2022.2.5,30.000822063709386,
7,0,7,0,0,0,0,0,,,,,,,,,,,,,,,,,,,,,,432.4133628997952,0.0002546999603509903,0.09777979925274849,438.42974959872663,6.014432899653912,438.6133802998811,438.6133802998811,0.08258099853992462,0.1979402992874384,6.031048400327563,444.71291719935834,444.71291719935834,444.71291719935834,0.08559739962220192,0.19792249985039234,450.4131098985672,450.6133874990046,6.031425500288606,6.131166499108076,456.61297599971294,12.031064100563526,456.7464862987399,456.7464862987399,0.03141389973461628,0.13135370053350925,down,1.2865753024816513,458.079761499539,4.560127854347229e-05,0.0980015005916357,464.09654299914837,464.09654299914837,464.09654299914837,0.009576400741934776,0.11454450152814388,2.0,9.272653000429273,,,,,,,444.61323929950595,444.61323929950595,456.7132152989507,456.7132152989507,,,,8576,Moral,2024-06-14_13h31.37.522,MoralCondition_v2,2022.2.5,30.000822063709386,
7,0,7,0,1,0,1,0,,,,,,,,,,,,,,,,,,,,,,,,,,,,,,,,,,,,,,,,,,,,,,,,,,,,,473.3963621985167,473.3963621985167,0.006509700790047646,0.09901859983801842,2.0,1.6604229994118214,,,,,,,,,,,,,,8576,Moral,2024-06-14_13h31.37.522,MoralCondition_v2,2022.2.5,30.000822063709386,
7,0,7,0,2,0,2,0,,,,,,,,,,,,,,,,,,,,,,,,,,,,,,,,,,,,,,,,,,,,,,,,,,,,,475.1132562998682,475.1132562998682,0.00893470086157322,0.1141234003007412,2.0,2.406309399753809,,,,,,,,,,,,,,8576,Moral,2024-06-14_13h31.37.522,MoralCondition_v2,2022.2.5,30.000822063709386,
7,0,7,0,3,0,3,0,,,,,,,,,,,,,,,,,,,,,,,,,,,,,,,,,,,,,,,,,,,,,,,,,,,,,477.5632655993104,477.5632655993104,0.007932201027870178,0.11406920105218887,3.0,2.640472199767828,,,,,,,,,,,,,,8576,Moral,2024-06-14_13h31.37.522,MoralCondition_v2,2022.2.5,30.000822063709386,
7,0,7,0,4,0,4,0,,,,,,,,,,,,,,,,,,,,,,,,,,,,,,,,,,,,,,,,,,,,,,,,,,,,,480.2295971997082,480.2295971997082,0.007348999381065369,0.09780050069093704,3.0,1.9247514996677637,,,,,,,,,,,,,,8576,Moral,2024-06-14_13h31.37.522,MoralCondition_v2,2022.2.5,30.000822063709386,
7,0,7,0,5,0,5,0,,,,,,,,,,,,,,,,,,,,,,,,,,,,,,,,,,,,,,,,,,,,,,,,,,,,,482.2132576983422,482.2132576983422,0.007542101666331291,0.1133504007011652,2.0,1.8402232006192207,,,,,,,,,,,,,,8576,Moral,2024-06-14_13h31.37.522,MoralCondition_v2,2022.2.5,30.000822063709386,
7,0,7,0,6,0,6,0,,,,,,,,,,,,,,,,,,,,,,,,,,,,,,,,,,,,,,,,,,,,,,,,,,,,,484.07957899942994,484.07957899942994,0.006326001137495041,0.09924730099737644,2.0,4.760664701461792,,,,,,,,,,,,,,8576,Moral,2024-06-14_13h31.37.522,MoralCondition_v2,2022.2.5,30.000822063709386,
7,0,7,0,,,,,,,,,,,,,,,,,,,,,,,,,,,,,,,,,,,,,,,,,,,,,,,,,,,,,,,,,,,,,,,488.87976369820535,488.87976369820535,0.0011886991560459137,0.09790590032935143,3.0,2.9312098994851112,,,,,,,,8576,Moral,2024-06-14_13h31.37.522,MoralCondition_v2,2022.2.5,30.000822063709386,
8,0,8,0,0,0,0,0,,,,,,,,,,,,,,,,,,,,,,491.84668089821935,0.00022209994494915009,0.09856759943068027,497.863011399284,6.015283798798919,498.02956959977746,498.02956959977746,0.07869130000472069,0.18200070038437843,6.015363799408078,504.12969929911196,504.12969929911196,504.12969929911196,0.08013010025024414,0.1822469998151064,509.8295353986323,510.0296641997993,6.015270499512553,6.115385500714183,516.0296842996031,12.015312200412154,516.1629994995892,516.1629994995892,0.015527000650763512,0.11523240059614182,up,2.165495101362467,518.3630985990167,3.7400051951408386e-05,0.09762110002338886,524.3632215987891,524.3632215987891,524.3632215987891,0.005541199818253517,0.09773219935595989,2.0,5.959861200302839,,,,,,,504.029912898317,504.029912898317,516.1297100000083,516.1297100000083,,,,8576,Moral,2024-06-14_13h31.37.522,MoralCondition_v2,2022.2.5,30.000822063709386,
8,0,8,0,1,0,1,0,,,,,,,,,,,,,,,,,,,,,,,,,,,,,,,,,,,,,,,,,,,,,,,,,,,,,530.3629731982946,530.3629731982946,0.006474299356341362,0.09904509969055653,2.0,2.5103898998349905,,,,,,,,,,,,,,8576,Moral,2024-06-14_13h31.37.522,MoralCondition_v2,2022.2.5,30.000822063709386,
8,0,8,0,2,0,2,0,,,,,,,,,,,,,,,,,,,,,,,,,,,,,,,,,,,,,,,,,,,,,,,,,,,,,532.9131770990789,532.9131770990789,0.006797200068831444,0.09826609864830971,2.0,1.6593471001833677,,,,,,,,,,,,,,8576,Moral,2024-06-14_13h31.37.522,MoralCondition_v2,2022.2.5,30.000822063709386,
8,0,8,0,3,0,3,0,,,,,,,,,,,,,,,,,,,,,,,,,,,,,,,,,,,,,,,,,,,,,,,,,,,,,534.6129161994904,534.6129161994904,0.0069753993302583694,0.09842840023338795,2.0,2.2260583993047476,,,,,,,,,,,,,,8576,Moral,2024-06-14_13h31.37.522,MoralCondition_v2,2022.2.5,30.000822063709386,
8,0,8,0,4,0,4,0,,,,,,,,,,,,,,,,,,,,,,,,,,,,,,,,,,,,,,,,,,,,,,,,,,,,,536.8800661992282,536.8800661992282,0.0070687998086214066,0.09833719953894615,2.0,1.1255805995315313,,,,,,,,,,,,,,8576,Moral,2024-06-14_13h31.37.522,MoralCondition_v2,2022.2.5,30.000822063709386,
8,0,8,0,5,0,5,0,,,,,,,,,,,,,,,,,,,,,,,,,,,,,,,,,,,,,,,,,,,,,,,,,,,,,538.0631264988333,538.0631264988333,0.008085301145911217,0.11458040028810501,2.0,0.9740056004375219,,,,,,,,,,,,,,8576,Moral,2024-06-14_13h31.37.522,MoralCondition_v2,2022.2.5,30.000822063709386,
8,0,8,0,6,0,6,0,,,,,,,,,,,,,,,,,,,,,,,,,,,,,,,,,,,,,,,,,,,,,,,,,,,,,539.0630079992115,539.0630079992115,0.006456799805164337,0.09910209849476814,2.0,1.7271972000598907,,,,,,,,,,,,,,8576,Moral,2024-06-14_13h31.37.522,MoralCondition_v2,2022.2.5,30.000822063709386,
8,0,8,0,,,,,,,,,,,,,,,,,,,,,,,,,,,,,,,,,,,,,,,,,,,,,,,,,,,,,,,,,,,,,,,540.8296173997223,540.8296173997223,0.0014947988092899323,0.09751410037279129,4.0,2.0306528992950916,,,,,,,,8576,Moral,2024-06-14_13h31.37.522,MoralCondition_v2,2022.2.5,30.000822063709386,
9,0,9,0,0,0,0,0,,,,,,,,,,,,,,,,,,,,,,542.8966525997967,0.000223599374294281,0.09850119985640049,548.896308798343,6.031668499112129,549.0965618994087,549.0965618994087,0.09694309905171394,0.19850130006670952,6.031587900593877,555.1963723991066,555.1963723991066,555.1963723991066,0.09411320090293884,0.19843569956719875,560.8964834995568,561.0962554998696,6.03163450025022,6.131584899500012,567.0962446983904,12.031592100858688,567.2296081986278,567.2296081986278,0.03177889995276928,0.131597600877285,down,1.6585728004574776,568.9462135992944,4.700012505054474e-05,0.09794110059738159,574.9629975985736,574.9629975985736,574.9629975985736,0.010159900411963463,0.11471769958734512,5.0,4.40554410032928,,,,,,,555.0962792988867,555.0962792988867,567.1962460000068,567.1962460000068,,,,8576,Moral,2024-06-14_13h31.37.522,MoralCondition_v2,2022.2.5,30.000822063709386,
9,0,9,0,1,0,1,0,,,,,,,,,,,,,,,,,,,,,,,,,,,,,,,,,,,,,,,,,,,,,,,,,,,,,579.396116098389,579.396116098389,0.007198899984359741,0.09934999980032444,5.0,5.926382400095463,,,,,,,,,,,,,,8576,Moral,2024-06-14_13h31.37.522,MoralCondition_v2,2022.2.5,30.000822063709386,
9,0,9,0,2,0,2,0,,,,,,,,,,,,,,,,,,,,,,,,,,,,,,,,,,,,,,,,,,,,,,,,,,,,,585.3797891996801,585.3797891996801,0.00786370038986206,0.11414659954607487,2.0,2.374005800113082,,,,,,,,,,,,,,8576,Moral,2024-06-14_13h31.37.522,MoralCondition_v2,2022.2.5,30.000822063709386,
9,0,9,0,3,0,3,0,,,,,,,,,,,,,,,,,,,,,,,,,,,,,,,,,,,,,,,,,,,,,,,,,,,,,587.7794713992625,587.7794713992625,0.006889300420880318,0.09948470070958138,2.0,4.160368099808693,,,,,,,,,,,,,,8576,Moral,2024-06-14_13h31.37.522,MoralCondition_v2,2022.2.5,30.000822063709386,
9,0,9,0,4,0,4,0,,,,,,,,,,,,,,,,,,,,,,,,,,,,,,,,,,,,,,,,,,,,,,,,,,,,,591.9796379990876,591.9796379990876,0.006953001022338867,0.09942550025880337,2.0,1.2600427996367216,,,,,,,,,,,,,,8576,Moral,2024-06-14_13h31.37.522,MoralCondition_v2,2022.2.5,30.000822063709386,
9,0,9,0,5,0,5,0,,,,,,,,,,,,,,,,,,,,,,,,,,,,,,,,,,,,,,,,,,,,,,,,,,,,,593.2795742992312,593.2795742992312,0.006623201072216034,0.09910810180008411,2.0,1.3601022008806467,,,,,,,,,,,,,,8576,Moral,2024-06-14_13h31.37.522,MoralCondition_v2,2022.2.5,30.000822063709386,
9,0,9,0,6,0,6,0,,,,,,,,,,,,,,,,,,,,,,,,,,,,,,,,,,,,,,,,,,,,,,,,,,,,,594.6796059999615,594.6796059999615,0.0071461014449596405,0.09808829985558987,2.0,2.225372700020671,,,,,,,,,,,,,,8576,Moral,2024-06-14_13h31.37.522,MoralCondition_v2,2022.2.5,30.000822063709386,
9,0,9,0,,,,,,,,,,,,,,,,,,,,,,,,,,,,,,,,,,,,,,,,,,,,,,,,,,,,,,,,,,,,,,,596.946379698813,596.946379698813,0.0010085999965667725,0.09940440021455288,3.0,3.5997147988528013,,,,,,,,8576,Moral,2024-06-14_13h31.37.522,MoralCondition_v2,2022.2.5,30.000822063709386,
10,0,10,0,0,0,0,0,,,,,,,,,,,,,,,,,,,,,,600.5798926986754,0.00029700063169002533,0.09827109985053539,606.596162898466,6.014655200764537,606.7629351988435,606.7629351988435,0.0736612007021904,0.1814029011875391,6.014514300972223,612.8628621995449,612.8628621995449,612.8628621995449,0.07104390114545822,0.1814208012074232,618.5628531984985,618.7628867998719,6.014653101563454,6.114518301561475,624.7628130987287,12.014611901715398,624.8961060997099,624.8961060997099,0.015026601031422615,0.11453800089657307,down,1.0561107005923986,625.996106499806,3.830157220363617e-05,0.0980663001537323,,632.029485899955,632.029485899955,0.025865700095891953,0.13137450069189072,4.0,3.27321869879961,,,,,,,612.7627797983587,612.7627797983587,624.8630032986403,624.8630032986403,,,,8576,Moral,2024-06-14_13h31.37.522,MoralCondition_v2,2022.2.5,30.000822063709386,
10,0,10,0,1,0,1,0,,,,,,,,,,,,,,,,,,,,,,,,,,,,,,,,,,,,,,,,,,,,,,,,,,,,,635.3293328993022,635.3293328993022,0.006367199122905731,0.09920839965343475,2.0,3.293706899508834,,,,,,,,,,,,,,8576,Moral,2024-06-14_13h31.37.522,MoralCondition_v2,2022.2.5,30.000822063709386,
10,0,10,0,2,0,2,0,,,,,,,,,,,,,,,,,,,,,,,,,,,,,,,,,,,,,,,,,,,,,,,,,,,,,638.6627349983901,638.6627349983901,0.006314899772405624,0.09916389919817448,2.0,1.4606020990759134,,,,,,,,,,,,,,8576,Moral,2024-06-14_13h31.37.522,MoralCondition_v2,2022.2.5,30.000822063709386,
10,0,10,0,3,0,3,0,,,,,,,,,,,,,,,,,,,,,,,,,,,,,,,,,,,,,,,,,,,,,,,,,,,,,640.1630186997354,640.1630186997354,0.006417199969291687,0.09819929860532284,2.0,1.6263551004230976,,,,,,,,,,,,,,8576,Moral,2024-06-14_13h31.37.522,MoralCondition_v2,2022.2.5,30.000822063709386,
10,0,10,0,4,0,4,0,,,,,,,,,,,,,,,,,,,,,,,,,,,,,,,,,,,,,,,,,,,,,,,,,,,,,641.8293167985976,641.8293167985976,0.007350999861955643,0.09788819961249828,2.0,1.1249883994460106,,,,,,,,,,,,,,8576,Moral,2024-06-14_13h31.37.522,MoralCondition_v2,2022.2.5,30.000822063709386,
10,0,10,0,5,0,5,0,,,,,,,,,,,,,,,,,,,,,,,,,,,,,,,,,,,,,,,,,,,,,,,,,,,,,642.9963400997221,642.9963400997221,0.00827920064330101,0.09891610033810139,2.0,1.258492100983858,,,,,,,,,,,,,,8576,Moral,2024-06-14_13h31.37.522,MoralCondition_v2,2022.2.5,30.000822063709386,
10,0,10,0,6,0,6,0,,,,,,,,,,,,,,,,,,,,,,,,,,,,,,,,,,,,,,,,,,,,,,,,,,,,,644.2962400000542,644.2962400000542,0.007720399647951126,0.09770580008625984,2.0,0.8577413987368345,,,,,,,,,,,,,,8576,Moral,2024-06-14_13h31.37.522,MoralCondition_v2,2022.2.5,30.000822063709386,
10,0,10,0,,,,,,,,,,,,,,,,,,,,,,,,,,,,,,,,,,,,,,,,,,,,,,,,,,,,,,,,,,,,,,,645.1961797997355,645.1961797997355,0.001686200499534607,0.09730720147490501,3.0,2.4634994007647038,,,,,,,,8576,Moral,2024-06-14_13h31.37.522,MoralCondition_v2,2022.2.5,30.000822063709386,
11,0,11,0,0,0,0,0,,,,,,,,,,,,,,,,,,,,,,647.6961076986045,0.00013640150427818298,0.09907670132815838,653.7126943990588,6.015761701390147,653.8961314987391,653.8961314987391,0.09056470170617104,0.19929280132055283,5.999078800901771,659.9628201983869,659.9628201983869,659.9628201983869,0.05507580190896988,0.1656808014959097,665.6626629997045,665.862687099725,6.032313602045178,6.132295401766896,671.8626593984663,11.99902400188148,671.9959964994341,671.9959964994341,-9.789876639842987e-05,0.09889430180191994,down,1.1166621018201113,673.1459437999874,0.00025040097534656525,0.09729089960455894,679.1627039983869,679.1627039983869,679.1627039983869,0.00874200090765953,0.1139439009130001,2.0,3.5730081982910633,,,,,,,659.9628201983869,659.9628201983869,671.9626642987132,671.9626642987132,6.098978701978922,12.099097302183509,,8576,Moral,2024-06-14_13h31.37.522,MoralCondition_v2,2022.2.5,30.000822063709386,
11,0,11,0,1,0,1,0,,,,,,,,,,,,,,,,,,,,,,,,,,,,,,,,,,,,,,,,,,,,,,,,,,,,,682.7795646991581,682.7795646991581,0.007986798882484436,0.1142771989107132,2.0,1.3073990996927023,,,,,,,,,,,,,,8576,Moral,2024-06-14_13h31.37.522,MoralCondition_v2,2022.2.5,30.000822063709386,
11,0,11,0,2,0,2,0,,,,,,,,,,,,,,,,,,,,,,,,,,,,,,,,,,,,,,,,,,,,,,,,,,,,,684.1126148998737,684.1126148998737,0.006583500653505325,0.09927820041775703,2.0,2.260335501283407,,,,,,,,,,,,,,8576,Moral,2024-06-14_13h31.37.522,MoralCondition_v2,2022.2.5,30.000822063709386,
11,0,11,0,3,0,3,0,,,,,,,,,,,,,,,,,,,,,,,,,,,,,,,,,,,,,,,,,,,,,,,,,,,,,686.4295628983527,686.4295628983527,0.0085378997027874,0.11502479948103428,4.0,3.5077728014439344,,,,,,,,,,,,,,8576,Moral,2024-06-14_13h31.37.522,MoralCondition_v2,2022.2.5,30.000822063709386,
11,0,11,0,4,0,4,0,,,,,,,,,,,,,,,,,,,,,,,,,,,,,,,,,,,,,,,,,,,,,,,,,,,,,689.9626327995211,689.9626327995211,0.006318099796772003,0.09920869953930378,2.0,2.3605962991714478,,,,,,,,,,,,,,8576,Moral,2024-06-14_13h31.37.522,MoralCondition_v2,2022.2.5,30.000822063709386,
11,0,11,0,5,0,5,0,,,,,,,,,,,,,,,,,,,,,,,,,,,,,,,,,,,,,,,,,,,,,,,,,,,,,692.3626218996942,692.3626218996942,0.007154598832130432,0.09815610013902187,2.0,1.125273298472166,,,,,,,,,,,,,,8576,Moral,2024-06-14_13h31.37.522,MoralCondition_v2,2022.2.5,30.000822063709386,
11,0,11,0,6,0,6,0,,,,,,,,,,,,,,,,,,,,,,,,,,,,,,,,,,,,,,,,,,,,,,,,,,,,,693.5461866986006,693.5461866986006,0.008290199562907219,0.11459719948470592,2.0,1.007338099181652,,,,,,,,,,,,,,8576,Moral,2024-06-14_13h31.37.522,MoralCondition_v2,2022.2.5,30.000822063709386,
11,0,11,0,,,,,,,,,,,,,,,,,,,,,,,,,,,,,,,,,,,,,,,,,,,,,,,,,,,,,,,,,,,,,,,694.5791438985616,694.5791438985616,0.0013465993106365204,0.09744130074977875,3.0,2.3973714001476765,,,,,,,,8576,Moral,2024-06-14_13h31.37.522,MoralCondition_v2,2022.2.5,30.000822063709386,
12,0,12,0,0,0,0,0,,,,,,,,,,,,,,,,,,,,,,697.0128814987838,0.0002474002540111542,0.09767189994454384,703.0125811994076,6.03125630132854,703.195921998471,703.195921998471,0.07109140045940876,0.1814177017658949,6.014497300609946,709.2959461994469,709.2959461994469,709.2959461994469,0.07485480234026909,0.18154390156269073,714.9958839993924,715.1957660987973,6.014420101419091,6.114525601267815,721.195858899504,12.014532200992107,721.3291826993227,721.3291826993227,0.014680402353405952,0.11455570161342621,up,1.6877907011657953,723.0625275988132,4.220008850097656e-05,0.09786440059542656,,729.0960915982723,729.0960915982723,0.024773400276899338,0.13129799999296665,2.0,6.674186700955033,,,,,,,709.1960677988827,709.1960677988827,721.295826099813,721.295826099813,,,,8576,Moral,2024-06-14_13h31.37.522,MoralCondition_v2,2022.2.5,30.000822063709386,
12,0,12,0,1,0,1,0,,,,,,,,,,,,,,,,,,,,,,,,,,,,,,,,,,,,,,,,,,,,,,,,,,,,,735.7958176992834,735.7958176992834,0.008361700922250748,0.09809740073978901,2.0,0.990700701251626,,,,,,,,,,,,,,8576,Moral,2024-06-14_13h31.37.522,MoralCondition_v2,2022.2.5,30.000822063709386,
12,0,12,0,2,0,2,0,,,,,,,,,,,,,,,,,,,,,,,,,,,,,,,,,,,,,,,,,,,,,,,,,,,,,736.8290987983346,736.8290987983346,0.006428899243474007,0.09926169924438,4.0,2.7940858006477356,,,,,,,,,,,,,,8576,Moral,2024-06-14_13h31.37.522,MoralCondition_v2,2022.2.5,30.000822063709386,
12,0,12,0,3,0,3,0,,,,,,,,,,,,,,,,,,,,,,,,,,,,,,,,,,,,,,,,,,,,,,,,,,,,,739.6624660994858,739.6624660994858,0.007620999589562416,0.09887219965457916,2.0,2.0255977008491755,,,,,,,,,,,,,,8576,Moral,2024-06-14_13h31.37.522,MoralCondition_v2,2022.2.5,30.000822063709386,
12,0,12,0,4,0,4,0,,,,,,,,,,,,,,,,,,,,,,,,,,,,,,,,,,,,,,,,,,,,,,,,,,,,,741.7290466986597,741.7290466986597,0.007311800494790077,0.09781469963490963,2.0,1.0249204002320766,,,,,,,,,,,,,,8576,Moral,2024-06-14_13h31.37.522,MoralCondition_v2,2022.2.5,30.000822063709386,
12,0,12,0,5,0,5,0,,,,,,,,,,,,,,,,,,,,,,,,,,,,,,,,,,,,,,,,,,,,,,,,,,,,,742.7958024982363,742.7958024982363,0.006475299596786499,0.0992892999202013,2.0,0.8938715998083353,,,,,,,,,,,,,,8576,Moral,2024-06-14_13h31.37.522,MoralCondition_v2,2022.2.5,30.000822063709386,
12,0,12,0,6,0,6,0,,,,,,,,,,,,,,,,,,,,,,,,,,,,,,,,,,,,,,,,,,,,,,,,,,,,,743.7290404997766,743.7290404997766,0.006638700142502785,0.09926930069923401,2.0,2.2936452999711037,,,,,,,,,,,,,,8576,Moral,2024-06-14_13h31.37.522,MoralCondition_v2,2022.2.5,30.000822063709386,
12,0,12,0,,,,,,,,,,,,,,,,,,,,,,,,,,,,,,,,,,,,,,,,,,,,,,,,,,,,,,,,,,,,,,,746.0625398997217,746.0625398997217,0.001408599317073822,0.09737559966742992,4.0,2.5973474998027086,,,,,,,,8576,Moral,2024-06-14_13h31.37.522,MoralCondition_v2,2022.2.5,30.000822063709386,
13,0,13,0,0,0,0,0,,,,,,,,,,,,,,,,,,,,,,748.6960624996573,0.0003573000431060791,0.0977375004440546,754.7124103996903,6.014360200613737,754.8793082982302,754.8793082982302,0.07403810136020184,0.18127980083227158,6.014376200735569,760.9622952993959,760.9622952993959,760.9622952993959,0.06538880243897438,0.1644383016973734,766.6622378993779,766.895718999207,6.031027602031827,6.130978802219033,772.8957348000258,12.031045701354742,773.0122027993202,773.0122027993202,0.031060902401804924,0.11426330171525478,up,1.028727700933814,774.0790000986308,3.5099685192108154e-05,0.0982028990983963,780.0788925997913,780.0788925997913,780.0788925997913,0.008975200355052948,0.09801420010626316,2.0,2.957234101369977,,,,,,,760.8793617989868,760.8793617989868,772.9623713996261,772.9623713996261,,,,8576,Moral,2024-06-14_13h31.37.522,MoralCondition_v2,2022.2.5,30.000822063709386,
13,0,13,0,1,0,1,0,,,,,,,,,,,,,,,,,,,,,,,,,,,,,,,,,,,,,,,,,,,,,,,,,,,,,783.0959312990308,783.0959312990308,0.007811300456523895,0.11382870003581047,2.0,0.9071812015026808,,,,,,,,,,,,,,8576,Moral,2024-06-14_13h31.37.522,MoralCondition_v2,2022.2.5,30.000822063709386,
13,0,13,0,2,0,2,0,,,,,,,,,,,,,,,,,,,,,,,,,,,,,,,,,,,,,,,,,,,,,,,,,,,,,784.0290072988719,784.0290072988719,0.008762799203395844,0.09827389940619469,2.0,1.4568637013435364,,,,,,,,,,,,,,8576,Moral,2024-06-14_13h31.37.522,MoralCondition_v2,2022.2.5,30.000822063709386,
13,0,13,0,3,0,3,0,,,,,,,,,,,,,,,,,,,,,,,,,,,,,,,,,,,,,,,,,,,,,,,,,,,,,785.529334699735,785.529334699735,0.0070454999804496765,0.09793700091540813,2.0,1.7922843005508184,,,,,,,,,,,,,,8576,Moral,2024-06-14_13h31.37.522,MoralCondition_v2,2022.2.5,30.000822063709386,
13,0,13,0,4,0,4,0,,,,,,,,,,,,,,,,,,,,,,,,,,,,,,,,,,,,,,,,,,,,,,,,,,,,,787.362518498674,787.362518498674,0.007074300199747086,0.09792139939963818,4.0,2.5921497009694576,,,,,,,,,,,,,,8576,Moral,2024-06-14_13h31.37.522,MoralCondition_v2,2022.2.5,30.000822063709386,
13,0,13,0,5,0,5,0,,,,,,,,,,,,,,,,,,,,,,,,,,,,,,,,,,,,,,,,,,,,,,,,,,,,,790.0124139990658,790.0124139990658,0.008468899875879288,0.11435299925506115,2.0,2.1069693993777037,,,,,,,,,,,,,,8576,Moral,2024-06-14_13h31.37.522,MoralCondition_v2,2022.2.5,30.000822063709386,
13,0,13,0,6,0,6,0,,,,,,,,,,,,,,,,,,,,,,,,,,,,,,,,,,,,,,,,,,,,,,,,,,,,,792.1456748992205,792.1456748992205,0.007414700463414192,0.09747279994189739,3.0,4.424726400524378,,,,,,,,,,,,,,8576,Moral,2024-06-14_13h31.37.522,MoralCondition_v2,2022.2.5,30.000822063709386,
13,0,13,0,,,,,,,,,,,,,,,,,,,,,,,,,,,,,,,,,,,,,,,,,,,,,,,,,,,,,,,,,,,,,,,796.6124610994011,796.6124610994011,0.001645401120185852,0.09770160168409348,4.0,2.3308519013226032,,,,,,,,8576,Moral,2024-06-14_13h31.37.522,MoralCondition_v2,2022.2.5,30.000822063709386,
14,0,14,0,0,0,0,0,,,,,,,,,,,,,,,,,,,,,,798.979129999876,0.0003497004508972168,0.09683440066874027,804.9788168985397,6.0133441016077995,805.1623749993742,805.1623749993742,0.06779970042407513,0.18024330027401447,6.013449801132083,811.2624864988029,811.2624864988029,811.2624864988029,0.06844240054488182,0.18037110194563866,816.9622289985418,817.1622311994433,6.013441601768136,6.1136671006679535,823.1622620988637,12.013470301404595,823.2955582998693,823.2955582998693,0.013871902599930763,0.1133768018335104,down,1.1285111010074615,824.4790993984789,3.769993782043457e-05,0.09800110012292862,,830.4957713000476,830.4957713000476,0.025828400626778603,0.11459730006754398,2.0,3.356691800057888,,,,,,,811.1622387990355,811.1622387990355,823.2622691988945,823.2622691988945,,,,8576,Moral,2024-06-14_13h31.37.522,MoralCondition_v2,2022.2.5,30.000822063709386,
14,0,14,0,1,0,1,0,,,,,,,,,,,,,,,,,,,,,,,,,,,,,,,,,,,,,,,,,,,,,,,,,,,,,833.8956397995353,833.8956397995353,0.007746599614620209,0.09725230000913143,4.0,3.0907581988722086,,,,,,,,,,,,,,8576,Moral,2024-06-14_13h31.37.522,MoralCondition_v2,2022.2.5,30.000822063709386,
14,0,14,0,2,0,2,0,,,,,,,,,,,,,,,,,,,,,,,,,,,,,,,,,,,,,,,,,,,,,,,,,,,,,837.028918499127,837.028918499127,0.006479799747467041,0.09936659969389439,4.0,1.9271425008773804,,,,,,,,,,,,,,8576,Moral,2024-06-14_13h31.37.522,MoralCondition_v2,2022.2.5,30.000822063709386,
14,0,14,0,3,0,3,0,,,,,,,,,,,,,,,,,,,,,,,,,,,,,,,,,,,,,,,,,,,,,,,,,,,,,838.9954828992486,838.9954828992486,0.007328800857067108,0.09879780001938343,2.0,3.1592015996575356,,,,,,,,,,,,,,8576,Moral,2024-06-14_13h31.37.522,MoralCondition_v2,2022.2.5,30.000822063709386,
14,0,14,0,4,0,4,0,,,,,,,,,,,,,,,,,,,,,,,,,,,,,,,,,,,,,,,,,,,,,,,,,,,,,842.195621099323,842.195621099323,0.007569098845124245,0.09934119880199432,2.0,0.9927674997597933,,,,,,,,,,,,,,8576,Moral,2024-06-14_13h31.37.522,MoralCondition_v2,2022.2.5,30.000822063709386,
14,0,14,0,5,0,5,0,,,,,,,,,,,,,,,,,,,,,,,,,,,,,,,,,,,,,,,,,,,,,,,,,,,,,843.2289604991674,843.2289604991674,0.007549699395895004,0.09750130027532578,2.0,0.7241417989134789,,,,,,,,,,,,,,8576,Moral,2024-06-14_13h31.37.522,MoralCondition_v2,2022.2.5,30.000822063709386,
14,0,14,0,6,0,6,0,,,,,,,,,,,,,,,,,,,,,,,,,,,,,,,,,,,,,,,,,,,,,,,,,,,,,844.0124469995499,844.0124469995499,0.008641200140118599,0.1138215996325016,2.0,2.17284270003438,,,,,,,,,,,,,,8576,Moral,2024-06-14_13h31.37.522,MoralCondition_v2,2022.2.5,30.000822063709386,
14,0,14,0,,,,,,,,,,,,,,,,,,,,,,,,,,,,,,,,,,,,,,,,,,,,,,,,,,,,,,,,,,,,,,,846.2123428992927,846.2123428992927,0.0007029995322227478,0.09890300035476685,3.0,4.53273499943316,,,,,,,,8576,Moral,2024-06-14_13h31.37.522,MoralCondition_v2,2022.2.5,30.000822063709386,
15,0,15,0,0,0,0,0,,,,,,,,,,,,,,,,,,,,,,850.7791868988425,0.00023059919476509094,0.09793559834361076,856.7955027986318,6.014555398374796,856.9623520988971,856.9623520988971,0.0726028997451067,0.18147850036621094,6.014524100348353,863.0619468986988,863.0619468986988,863.0619468986988,0.06837680004537106,0.18121339939534664,868.7620946988463,868.9622382987291,6.014689099043608,6.114497900009155,874.9621030986309,12.014542799443007,875.0954173989594,875.0954173989594,0.014698700979351997,0.11448010057210922,down,1.3613667003810406,876.5120623987168,5.430169403553009e-05,0.09800510108470917,882.5120877996087,882.5120877996087,882.5120877996087,0.005843000486493111,0.09816300123929977,2.0,2.626555999740958,,,,,,,862.962102599442,862.962102599442,875.0620752982795,875.0620752982795,,,,8576,Moral,2024-06-14_13h31.37.522,MoralCondition_v2,2022.2.5,30.000822063709386,
15,0,15,0,1,0,1,0,,,,,,,,,,,,,,,,,,,,,,,,,,,,,,,,,,,,,,,,,,,,,,,,,,,,,885.1786785982549,885.1786785982549,0.006179800257086754,0.09886140003800392,2.0,3.9938301015645266,,,,,,,,,,,,,,8576,Moral,2024-06-14_13h31.37.522,MoralCondition_v2,2022.2.5,30.000822063709386,
15,0,15,0,2,0,2,0,,,,,,,,,,,,,,,,,,,,,,,,,,,,,,,,,,,,,,,,,,,,,,,,,,,,,889.2120636999607,889.2120636999607,0.007083099335432053,0.09850279986858368,2.0,1.8921479992568493,,,,,,,,,,,,,,8576,Moral,2024-06-14_13h31.37.522,MoralCondition_v2,2022.2.5,30.000822063709386,
15,0,15,0,3,0,3,0,,,,,,,,,,,,,,,,,,,,,,,,,,,,,,,,,,,,,,,,,,,,,,,,,,,,,891.162280999124,891.162280999124,0.008302498608827591,0.11460370011627674,2.0,1.7408948000520468,,,,,,,,,,,,,,8576,Moral,2024-06-14_13h31.37.522,MoralCondition_v2,2022.2.5,30.000822063709386,
15,0,15,0,4,0,4,0,,,,,,,,,,,,,,,,,,,,,,,,,,,,,,,,,,,,,,,,,,,,,,,,,,,,,892.9287286996841,892.9287286996841,0.0074212998151779175,0.09781999886035919,3.0,1.8914603013545275,,,,,,,,,,,,,,8576,Moral,2024-06-14_13h31.37.522,MoralCondition_v2,2022.2.5,30.000822063709386,
15,0,15,0,5,0,5,0,,,,,,,,,,,,,,,,,,,,,,,,,,,,,,,,,,,,,,,,,,,,,,,,,,,,,894.8622005991638,894.8622005991638,0.008611800149083138,0.09726180136203766,2.0,1.4896843992173672,,,,,,,,,,,,,,8576,Moral,2024-06-14_13h31.37.522,MoralCondition_v2,2022.2.5,30.000822063709386,
15,0,15,0,6,0,6,0,,,,,,,,,,,,,,,,,,,,,,,,,,,,,,,,,,,,,,,,,,,,,,,,,,,,,896.3953971993178,896.3953971993178,0.007805800065398216,0.09720640070736408,2.0,0.8904794994741678,,,,,,,,,,,,,,8576,Moral,2024-06-14_13h31.37.522,MoralCondition_v2,2022.2.5,30.000822063709386,
15,0,15,0,,,,,,,,,,,,,,,,,,,,,,,,,,,,,,,,,,,,,,,,,,,,,,,,,,,,,,,,,,,,,,,897.3288709986955,897.3288709986955,0.0015434995293617249,0.09784809872508049,3.0,3.331197900697589,,,,,,,,8576,Moral,2024-06-14_13h31.37.522,MoralCondition_v2,2022.2.5,30.000822063709386,
16,0,16,0,0,0,0,0,,,,,,,,,,,,,,,,,,,,,,900.695383798331,0.00016009993851184845,0.09920389950275421,906.6785052996129,6.015632700175047,906.8618249986321,906.8618249986321,0.053363900631666183,0.16575120016932487,6.0322814006358385,912.9787618983537,912.9787618983537,912.9787618983537,0.06741620041429996,0.18243359960615635,918.6787035986781,918.8786260988563,6.015777500346303,6.115677200257778,924.878669699654,12.015783600509167,925.0119553990662,925.0119553990662,0.01632090099155903,0.11571200005710125,up,3.132486902177334,928.1786226984113,3.859959542751312e-05,0.09775589965283871,,934.2119506988674,934.2119506988674,0.025251999497413635,0.13103209994733334,2.0,1.940311100333929,,,,,,,912.8453318998218,912.8453318998218,924.978983098641,924.978983098641,,,6.099025599658489,8576,Moral,2024-06-14_13h31.37.522,MoralCondition_v2,2022.2.5,30.000822063709386,
16,0,16,0,1,0,1,0,,,,,,,,,,,,,,,,,,,,,,,,,,,,,,,,,,,,,,,,,,,,,,,,,,,,,936.1785815991461,936.1785815991461,0.0064230989664793015,0.09890269860625267,2.0,2.160317599773407,,,,,,,,,,,,,,8576,Moral,2024-06-14_13h31.37.522,MoralCondition_v2,2022.2.5,30.000822063709386,
16,0,16,0,2,0,2,0,,,,,,,,,,,,,,,,,,,,,,,,,,,,,,,,,,,,,,,,,,,,,,,,,,,,,938.378650598228,938.378650598228,0.006816800683736801,0.09817790053784847,2.0,1.5590802002698183,,,,,,,,,,,,,,8576,Moral,2024-06-14_13h31.37.522,MoralCondition_v2,2022.2.5,30.000822063709386,
16,0,16,0,3,0,3,0,,,,,,,,,,,,,,,,,,,,,,,,,,,,,,,,,,,,,,,,,,,,,,,,,,,,,939.9786350987852,939.9786350987852,0.007447699084877968,0.09782920032739639,2.0,1.3251798003911972,,,,,,,,,,,,,,8576,Moral,2024-06-14_13h31.37.522,MoralCondition_v2,2022.2.5,30.000822063709386,
16,0,16,0,4,0,4,0,,,,,,,,,,,,,,,,,,,,,,,,,,,,,,,,,,,,,,,,,,,,,,,,,,,,,941.3454471994191,941.3454471994191,0.007549900561571121,0.09791560098528862,3.0,2.024900399148464,,,,,,,,,,,,,,8576,Moral,2024-06-14_13h31.37.522,MoralCondition_v2,2022.2.5,30.000822063709386,
16,0,16,0,5,0,5,0,,,,,,,,,,,,,,,,,,,,,,,,,,,,,,,,,,,,,,,,,,,,,,,,,,,,,943.4121359996498,943.4121359996498,0.006729898974299431,0.09945379942655563,2.0,1.6933134011924267,,,,,,,,,,,,,,8576,Moral,2024-06-14_13h31.37.522,MoralCondition_v2,2022.2.5,30.000822063709386,
16,0,16,0,6,0,6,0,,,,,,,,,,,,,,,,,,,,,,,,,,,,,,,,,,,,,,,,,,,,,,,,,,,,,945.16205749847,945.16205749847,0.008018499240279198,0.11433999985456467,2.0,1.5738893002271652,,,,,,,,,,,,,,8576,Moral,2024-06-14_13h31.37.522,MoralCondition_v2,2022.2.5,30.000822063709386,
16,0,16,0,,,,,,,,,,,,,,,,,,,,,,,,,,,,,,,,,,,,,,,,,,,,,,,,,,,,,,,,,,,,,,,946.762098999694,946.762098999694,0.001410800963640213,0.09784920141100883,4.0,3.697758700698614,,,,,,,,8576,Moral,2024-06-14_13h31.37.522,MoralCondition_v2,2022.2.5,30.000822063709386,
17,0,17,0,0,0,0,0,,,,,,,,,,,,,,,,,,,,,,950.4954412989318,0.00013689883053302765,0.09926989860832691,956.511849898845,6.015782099217176,956.6617606990039,956.6617606990039,0.0648793987929821,0.1660354994237423,5.999083099886775,962.7451024986804,962.7451024986804,962.7451024986804,0.05019170045852661,0.1493235006928444,968.4451503995806,968.6784899998456,6.015786800533533,6.1158664003014565,974.6784617993981,12.01579730026424,974.8118007984012,974.8118007984012,0.015894800424575806,0.11572830006480217,up,0.8603198025375605,975.7284577991813,4.419870674610138e-05,0.09792969934642315,981.7452746983618,981.7452746983618,981.7452746983618,0.009777599945664406,0.1146756000816822,2.0,3.072580000385642,,,,,,,962.6618073992431,962.6618073992431,974.7451089993119,974.7451089993119,6.099126199260354,,,8576,Moral,2024-06-14_13h31.37.522,MoralCondition_v2,2022.2.5,30.000822063709386,
17,0,17,0,1,0,1,0,,,,,,,,,,,,,,,,,,,,,,,,,,,,,,,,,,,,,,,,,,,,,,,,,,,,,984.8452793993056,984.8452793993056,0.006836900487542152,0.09919410012662411,2.0,1.3266165014356375,,,,,,,,,,,,,,8576,Moral,2024-06-14_13h31.37.522,MoralCondition_v2,2022.2.5,30.000822063709386,
17,0,17,0,2,0,2,0,,,,,,,,,,,,,,,,,,,,,,,,,,,,,,,,,,,,,,,,,,,,,,,,,,,,,986.2118827998638,986.2118827998638,0.006531599909067154,0.09910389967262745,2.0,0.9605289995670319,,,,,,,,,,,,,,8576,Moral,2024-06-14_13h31.37.522,MoralCondition_v2,2022.2.5,30.000822063709386,
17,0,17,0,3,0,3,0,,,,,,,,,,,,,,,,,,,,,,,,,,,,,,,,,,,,,,,,,,,,,,,,,,,,,987.2116793990135,987.2116793990135,0.006172800436615944,0.0991360992193222,2.0,2.6937566995620728,,,,,,,,,,,,,,8576,Moral,2024-06-14_13h31.37.522,MoralCondition_v2,2022.2.5,30.000822063709386,
17,0,17,0,4,0,4,0,,,,,,,,,,,,,,,,,,,,,,,,,,,,,,,,,,,,,,,,,,,,,,,,,,,,,989.9450295995921,989.9450295995921,0.006698900833725929,0.09735630080103874,2.0,2.058492200449109,,,,,,,,,,,,,,8576,Moral,2024-06-14_13h31.37.522,MoralCondition_v2,2022.2.5,30.000822063709386,
17,0,17,0,5,0,5,0,,,,,,,,,,,,,,,,,,,,,,,,,,,,,,,,,,,,,,,,,,,,,,,,,,,,,992.0452087987214,992.0452087987214,0.005794299766421318,0.09894669987261295,2.0,1.1607879996299744,,,,,,,,,,,,,,8576,Moral,2024-06-14_13h31.37.522,MoralCondition_v2,2022.2.5,30.000822063709386,
17,0,17,0,6,0,6,0,,,,,,,,,,,,,,,,,,,,,,,,,,,,,,,,,,,,,,,,,,,,,,,,,,,,,993.2617332991213,993.2617332991213,0.007838699966669083,0.114113699644804,2.0,0.9740259014070034,,,,,,,,,,,,,,8576,Moral,2024-06-14_13h31.37.522,MoralCondition_v2,2022.2.5,30.000822063709386,
17,0,17,0,,,,,,,,,,,,,,,,,,,,,,,,,,,,,,,,,,,,,,,,,,,,,,,,,,,,,,,,,,,,,,,994.2619404997677,994.2619404997677,0.0013708993792533875,0.09761299937963486,4.0,1.8974816985428333,,,,,,,,8576,Moral,2024-06-14_13h31.37.522,MoralCondition_v2,2022.2.5,30.000822063709386,
18,0,18,0,0,0,0,0,,,,,,,,,,,,,,,,,,,,,,996.1953004989773,0.0001547001302242279,0.09921460039913654,1002.2117236983031,6.016022900119424,1002.3783054985106,1002.3783054985106,0.07393300160765648,0.18256290070712566,6.015835501253605,1008.4784460999072,1008.4784460999072,1008.4784460999072,0.07249530032277107,0.18275180086493492,1014.1782670989633,1014.378471499309,6.015994600951672,6.115829400718212,1020.3783255983144,12.015844801440835,1020.5116642992944,1020.5116642992944,0.016163600608706474,0.11573890224099159,up,0.6091818008571863,1021.1782871987671,4.430115222930908e-05,0.09806310012936592,1027.1784085985273,1027.1784085985273,1027.1784085985273,0.008996600285172462,0.09798189997673035,2.0,1.8569856993854046,,,,,,,1008.3783432990313,1008.3783432990313,1020.4783377982676,1020.4783377982676,,,,8576,Moral,2024-06-14_13h31.37.522,MoralCondition_v2,2022.2.5,30.000822063709386,
18,0,18,0,1,0,1,0,,,,,,,,,,,,,,,,,,,,,,,,,,,,,,,,,,,,,,,,,,,,,,,,,,,,,1029.0783925000578,1029.0783925000578,0.007198600098490715,0.09791220165789127,2.0,1.291653599590063,,,,,,,,,,,,,,8576,Moral,2024-06-14_13h31.37.522,MoralCondition_v2,2022.2.5,30.000822063709386,
18,0,18,0,2,0,2,0,,,,,,,,,,,,,,,,,,,,,,,,,,,,,,,,,,,,,,,,,,,,,,,,,,,,,1030.411654599011,1030.411654599011,0.007933801040053368,0.09757759980857372,2.0,0.7906672991812229,,,,,,,,,,,,,,8576,Moral,2024-06-14_13h31.37.522,MoralCondition_v2,2022.2.5,30.000822063709386,
18,0,18,0,3,0,3,0,,,,,,,,,,,,,,,,,,,,,,,,,,,,,,,,,,,,,,,,,,,,,,,,,,,,,1031.2449355982244,1031.2449355982244,0.008047500625252724,0.09772250056266785,2.0,0.8238482996821404,,,,,,,,,,,,,,8576,Moral,2024-06-14_13h31.37.522,MoralCondition_v2,2022.2.5,30.000822063709386,
18,0,18,0,4,0,4,0,,,,,,,,,,,,,,,,,,,,,,,,,,,,,,,,,,,,,,,,,,,,,,,,,,,,,1032.1118436995894,1032.1118436995894,0.0081884004175663,0.09773760102689266,2.0,1.0574046988040209,,,,,,,,,,,,,,8576,Moral,2024-06-14_13h31.37.522,MoralCondition_v2,2022.2.5,30.000822063709386,
18,0,18,0,5,0,5,0,,,,,,,,,,,,,,,,,,,,,,,,,,,,,,,,,,,,,,,,,,,,,,,,,,,,,1033.2116964999586,1033.2116964999586,0.006964398548007011,0.0982098001986742,2.0,1.7922021001577377,,,,,,,,,,,,,,8576,Moral,2024-06-14_13h31.37.522,MoralCondition_v2,2022.2.5,30.000822063709386,
18,0,18,0,6,0,6,0,,,,,,,,,,,,,,,,,,,,,,,,,,,,,,,,,,,,,,,,,,,,,,,,,,,,,1035.0449806991965,1035.0449806991965,0.0070788003504276276,0.0978872012346983,2.0,1.1590285003185272,,,,,,,,,,,,,,8576,Moral,2024-06-14_13h31.37.522,MoralCondition_v2,2022.2.5,30.000822063709386,
18,0,18,0,,,,,,,,,,,,,,,,,,,,,,,,,,,,,,,,,,,,,,,,,,,,,,,,,,,,,,,,,,,,,,,1036.2449938990176,1036.2449938990176,0.002017499879002571,0.09725390002131462,4.0,1.6294621005654335,,,,,,,,8576,Moral,2024-06-14_13h31.37.522,MoralCondition_v2,2022.2.5,30.000822063709386,
19,0,19,0,0,0,0,0,,,,,,,,,,,,,,,,,,,,,,1037.9118693992496,0.00013629905879497528,0.09906289912760258,1043.9282310996205,6.015732800588012,1044.0947830993682,1044.0947830993682,0.06912400014698505,0.18244550004601479,6.015712400898337,1050.194949598983,1050.194949598983,1050.194949598983,0.07127370126545429,0.18261460028588772,1055.8951640985906,1056.094820998609,6.015719899907708,6.115831499919295,1062.0947998985648,12.015734501183033,1062.2281825989485,1062.2281825989485,0.015951000154018402,0.1156454011797905,down,1.2122629024088383,1063.478183498606,4.22988086938858e-05,0.09805949963629246,1069.4781193993986,1069.4781193993986,1069.4781193993986,0.007356299087405205,0.09816869907081127,5.0,2.991515699774027,,,,,,,1050.0948537997901,1050.0948537997901,1062.19484349899,1062.19484349899,,,,8576,Moral,2024-06-14_13h31.37.522,MoralCondition_v2,2022.2.5,30.000822063709386,
19,0,19,0,1,0,1,0,,,,,,,,,,,,,,,,,,,,,,,,,,,,,,,,,,,,,,,,,,,,,,,,,,,,,1072.5284485984594,1072.5284485984594,0.008357400074601173,0.11470639891922474,2.0,4.1071122996509075,,,,,,,,,,,,,,8576,Moral,2024-06-14_13h31.37.522,MoralCondition_v2,2022.2.5,30.000822063709386,
19,0,19,0,2,0,2,0,,,,,,,,,,,,,,,,,,,,,,,,,,,,,,,,,,,,,,,,,,,,,,,,,,,,,1076.6783922985196,1076.6783922985196,0.00784350000321865,0.11463740095496178,2.0,1.140793900936842,,,,,,,,,,,,,,8576,Moral,2024-06-14_13h31.37.522,MoralCondition_v2,2022.2.5,30.000822063709386,
19,0,19,0,3,0,3,0,,,,,,,,,,,,,,,,,,,,,,,,,,,,,,,,,,,,,,,,,,,,,,,,,,,,,1077.8446268998086,1077.8446268998086,0.007687900215387344,0.09766680002212524,2.0,0.8910817001014948,,,,,,,,,,,,,,8576,Moral,2024-06-14_13h31.37.522,MoralCondition_v2,2022.2.5,30.000822063709386,
19,0,19,0,4,0,4,0,,,,,,,,,,,,,,,,,,,,,,,,,,,,,,,,,,,,,,,,,,,,,,,,,,,,,1078.7781336996704,1078.7781336996704,0.007697800174355507,0.09793679974973202,2.0,0.7912606988102198,,,,,,,,,,,,,,8576,Moral,2024-06-14_13h31.37.522,MoralCondition_v2,2022.2.5,30.000822063709386,
19,0,19,0,5,0,5,0,,,,,,,,,,,,,,,,,,,,,,,,,,,,,,,,,,,,,,,,,,,,,,,,,,,,,1079.6114703994244,1079.6114703994244,0.006730999797582626,0.09928129985928535,5.0,2.293386299163103,,,,,,,,,,,,,,8576,Moral,2024-06-14_13h31.37.522,MoralCondition_v2,2022.2.5,30.000822063709386,
19,0,19,0,6,0,6,0,,,,,,,,,,,,,,,,,,,,,,,,,,,,,,,,,,,,,,,,,,,,,,,,,,,,,1081.961599798873,1081.961599798873,0.008348800241947174,0.11434319987893105,2.0,1.9070381000638008,,,,,,,,,,,,,,8576,Moral,2024-06-14_13h31.37.522,MoralCondition_v2,2022.2.5,30.000822063709386,
19,0,19,0,,,,,,,,,,,,,,,,,,,,,,,,,,,,,,,,,,,,,,,,,,,,,,,,,,,,,,,,,,,,,,,1083.8948649000376,1083.8948649000376,0.0014865994453430176,0.09783419966697693,3.0,2.7974926996976137,,,,,,,,8576,Moral,2024-06-14_13h31.37.522,MoralCondition_v2,2022.2.5,30.000822063709386,
