loop.thisRepN,loop.thisTrialN,loop.thisN,loop.thisIndex,evaluate_all_emotions.thisRepN,evaluate_all_emotions.thisTrialN,evaluate_all_emotions.thisN,evaluate_all_emotions.thisIndex,sync_beep_1.started,p_port.started,p_port.stopped,sync_beep_1.stopped,sync_beep_2.started,sync_beep_2.stopped,sync_beep_3.started,sync_beep_3.stopped,sync_beep_4.started,sync_beep_4.stopped,baseline.started,p_port_2.started,p_port_2.stopped,baseline.stopped,p_port_3.started,Game_Start_Text.started,p_port_4.started,p_port_4.stopped,key_resp.started,key_resp.keys,key_resp.rt,fixation_cross.started,p_port_5.started,p_port_5.stopped,fixation_cross.stopped,p_port_6.started,player_image_intro.started,player_name_intro.started,p_port_7.started,p_port_7.stopped,p_port_8.started,player_image_offer.started,player_name_offer.started,proposed_split.started,p_port_9.started,p_port_9.stopped,proposed_split.stopped,accept_reject.started,p_port_15.started,p_port_15.stopped,accept_reject.stopped,p_port_10.started,arrow_instructions.started,offer_choice.started,p_port_11.started,p_port_11.stopped,offer_choice.keys,offer_choice.rt,Instructions_Affinity_Score.started,p_port_12.started,p_port_12.stopped,Instructions_Affinity_Score.stopped,Emotion_Image.started,AffinityScore.started,p_port_13.started,p_port_13.stopped,AffinityScore.response,AffinityScore.rt,Instruction.started,Moral_Disgust_Score.started,p_port_14.started,p_port_14.stopped,Moral_Disgust_Score.response,Moral_Disgust_Score.rt,p_port_6.stopped,player_image_intro.stopped,player_name_intro.stopped,player_image_offer.stopped,player_name_offer.stopped,p_port_8.stopped,p_port_10.stopped,participant,session,date,expName,psychopyVersion,frameRate,
,,,,,,,,14.777454510331154,0.0008017998188734055,0.12169579975306988,15.08996729971841,15.373324729967862,15.673365599941462,15.990510729607195,16.290012799669057,16.57338482979685,16.906678299885243,16.906678299885243,0.005681399721652269,0.10495639964938164,31.906737099867314,15.004851199686527,32.00685239955783,0.005891799461096525,0.10494099976494908,32.4733699997887,space,2.903314500115812,,,,,,,,,,,,,,,,,,,,,,,,,,,,,,,,,,,,,,,,,,,,,,,,,,,8755,Moral,2025-02-19_13h33.32.448,MoralCondition_v2,2022.2.5,30.00936591406689,
0,0,0,0,0,0,0,0,,,,,,,,,,,,,,,,,,,,,,35.42339469958097,0.0015807999297976494,0.09854569984599948,41.44005209999159,6.015108000021428,41.67330209957436,41.67330209957436,0.11706209974363446,0.24842559965327382,6.015277199912816,47.740020299796015,47.740020299796015,47.740020299796015,0.07857049955055118,0.2151765995658934,53.44034989969805,53.60668529989198,6.015147699508816,6.115237899590284,59.606794899795204,12.015269299503416,59.739944599568844,59.739944599568844,0.015279199462383986,0.11489669978618622,up,3.2206707997247577,63.02332039969042,7.910002022981644e-05,0.09762510005384684,69.0567843997851,69.0567843997851,69.0567843997851,0.019040099810808897,0.13107179990038276,4.0,9.29618339985609,,,,,,,,,,,,,,8755,Moral,2025-02-19_13h33.32.448,MoralCondition_v2,2022.2.5,30.00936591406689,
0,0,0,0,1,0,1,0,,,,,,,,,,,,,,,,,,,,,,,,,,,,,,,,,,,,,,,,,,,,,,,,,,,,,78.37320899963379,78.37320899963379,0.009338600095361471,0.09781419998034835,4.0,5.4895399999804795,,,,,,,,,,,,,,8755,Moral,2025-02-19_13h33.32.448,MoralCondition_v2,2022.2.5,30.00936591406689,
0,0,0,0,2,0,2,0,,,,,,,,,,,,,,,,,,,,,,,,,,,,,,,,,,,,,,,,,,,,,,,,,,,,,83.92328599980101,83.92328599980101,0.009001100435853004,0.11514430027455091,4.0,2.5749118998646736,,,,,,,,,,,,,,8755,Moral,2025-02-19_13h33.32.448,MoralCondition_v2,2022.2.5,30.00936591406689,
0,0,0,0,3,0,3,0,,,,,,,,,,,,,,,,,,,,,,,,,,,,,,,,,,,,,,,,,,,,,,,,,,,,,86.54034939967096,86.54034939967096,0.01074279984459281,0.11411339975893497,4.0,2.270930899772793,,,,,,,,,,,,,,8755,Moral,2025-02-19_13h33.32.448,MoralCondition_v2,2022.2.5,30.00936591406689,
0,0,0,0,4,0,4,0,,,,,,,,,,,,,,,,,,,,,,,,,,,,,,,,,,,,,,,,,,,,,,,,,,,,,88.8567779995501,88.8567779995501,0.009928800165653229,0.11501990025863051,1.0,5.70611170027405,,,,,,,,,,,,,,8755,Moral,2025-02-19_13h33.32.448,MoralCondition_v2,2022.2.5,30.00936591406689,
0,0,0,0,5,0,5,0,,,,,,,,,,,,,,,,,,,,,,,,,,,,,,,,,,,,,,,,,,,,,,,,,,,,,94.60694439988583,94.60694439988583,0.010981499683111906,0.11470249993726611,6.0,8.104853300377727,,,,,,,,,,,,,,8755,Moral,2025-02-19_13h33.32.448,MoralCondition_v2,2022.2.5,30.00936591406689,
0,0,0,0,6,0,6,0,,,,,,,,,,,,,,,,,,,,,,,,,,,,,,,,,,,,,,,,,,,,,,,,,,,,,102.75661669997498,102.75661669997498,0.016974099911749363,0.11580089991912246,1.0,3.4668411002494395,,,,,,,,,,,,,,8755,Moral,2025-02-19_13h33.32.448,MoralCondition_v2,2022.2.5,30.00936591406689,
0,0,0,0,,,,,,,,,,,,,,,,,,,,,,,,,,,,,,,,,,,,,,,,,,,,,,,,,,,,,,,,,,,,,,,106.25664519984275,106.25664519984275,0.0015205000527203083,0.09811459993943572,6.0,10.831126200035214,,,,,,,,8755,Moral,2025-02-19_13h33.32.448,MoralCondition_v2,2022.2.5,30.00936591406689,
1,0,1,0,0,0,0,0,,,,,,,,,,,,,,,,,,,,,,117.12341019976884,0.0003195996396243572,0.09747569961473346,123.12311719963327,6.014088599942625,123.28987689968199,123.28987689968199,0.05819939961656928,0.16440359968692064,6.030793099664152,129.42299719993025,129.42299719993025,129.42299719993025,0.09013989940285683,0.19738339958712459,135.1231901999563,135.323221499566,6.030796999577433,6.130883599631488,141.32310069957748,12.030582499690354,141.42290559969842,141.42290559969842,0.013842399697750807,0.0971880997531116,up,2.464852800127119,143.9400736996904,3.439979627728462e-05,0.09827629989013076,149.94007249968126,149.94007249968126,149.94007249968126,0.007375100161880255,0.09808060014620423,2.0,4.125000400003046,,,,,,,6.097333399578929,129.2898884997703,129.2898884997703,141.40629669977352,141.40629669977352,,,8755,Moral,2025-02-19_13h33.32.448,MoralCondition_v2,2022.2.5,30.00936591406689,
1,0,1,0,1,0,1,0,,,,,,,,,,,,,,,,,,,,,,,,,,,,,,,,,,,,,,,,,,,,,,,,,,,,,154.1065689995885,154.1065689995885,0.00782809965312481,0.09914489975199103,2.0,1.5255277999676764,,,,,,,,,,,,,,8755,Moral,2025-02-19_13h33.32.448,MoralCondition_v2,2022.2.5,30.00936591406689,
1,0,1,0,2,0,2,0,,,,,,,,,,,,,,,,,,,,,,,,,,,,,,,,,,,,,,,,,,,,,,,,,,,,,155.6731235999614,155.6731235999614,0.0071518998593091965,0.09815259976312518,2.0,3.525674400385469,,,,,,,,,,,,,,8755,Moral,2025-02-19_13h33.32.448,MoralCondition_v2,2022.2.5,30.00936591406689,
1,0,1,0,3,0,3,0,,,,,,,,,,,,,,,,,,,,,,,,,,,,,,,,,,,,,,,,,,,,,,,,,,,,,159.25642039999366,159.25642039999366,0.014458900317549706,0.11485480004921556,2.0,1.968017399776727,,,,,,,,,,,,,,8755,Moral,2025-02-19_13h33.32.448,MoralCondition_v2,2022.2.5,30.00936591406689,
1,0,1,0,4,0,4,0,,,,,,,,,,,,,,,,,,,,,,,,,,,,,,,,,,,,,,,,,,,,,,,,,,,,,161.27368619991466,161.27368619991466,0.008977599907666445,0.11416380014270544,1.0,2.639288299717009,,,,,,,,,,,,,,8755,Moral,2025-02-19_13h33.32.448,MoralCondition_v2,2022.2.5,30.00936591406689,
1,0,1,0,5,0,5,0,,,,,,,,,,,,,,,,,,,,,,,,,,,,,,,,,,,,,,,,,,,,,,,,,,,,,163.93983689974993,163.93983689974993,0.0076627000235021114,0.09798649977892637,2.0,3.0911340001039207,,,,,,,,,,,,,,8755,Moral,2025-02-19_13h33.32.448,MoralCondition_v2,2022.2.5,30.00936591406689,
1,0,1,0,6,0,6,0,,,,,,,,,,,,,,,,,,,,,,,,,,,,,,,,,,,,,,,,,,,,,,,,,,,,,167.08995869988576,167.08995869988576,0.011657900176942348,0.11433540005236864,1.0,1.93714559962973,,,,,,,,,,,,,,8755,Moral,2025-02-19_13h33.32.448,MoralCondition_v2,2022.2.5,30.00936591406689,
1,0,1,0,,,,,,,,,,,,,,,,,,,,,,,,,,,,,,,,,,,,,,,,,,,,,,,,,,,,,,,,,,,,,,,169.05641109962016,169.05641109962016,0.0013602999970316887,0.09829390002414584,6.0,5.098046799656004,,,,,,,,8755,Moral,2025-02-19_13h33.32.448,MoralCondition_v2,2022.2.5,30.00936591406689,
2,0,2,0,0,0,0,0,,,,,,,,,,,,,,,,,,,,,,174.19012159993872,0.0003483002074062824,0.09773980034515262,180.20645639998838,6.01404369994998,180.406574299559,180.406574299559,0.10547350021079183,0.21417149994522333,6.01403299998492,186.45640869997442,186.45640869997442,186.45640869997442,0.06382070016115904,0.16402179980650544,192.15643649967387,192.38980859983712,6.03075909987092,6.130663900170475,198.38968889974058,12.030559599865228,198.5231186999008,198.5231186999008,0.030831099953502417,0.1306757996790111,down,1.6529923998750746,200.22312589967623,4.829978570342064e-05,0.09804969979450107,206.22300259955227,206.22300259955227,206.22300259955227,0.009175700135529041,0.09773649973794818,5.0,6.489829400088638,,,,,,,,,,198.4564006999135,198.4564006999135,,,8755,Moral,2025-02-19_13h33.32.448,MoralCondition_v2,2022.2.5,30.00936591406689,
2,0,2,0,1,0,1,0,,,,,,,,,,,,,,,,,,,,,,,,,,,,,,,,,,,,,,,,,,,,,,,,,,,,,212.75652639986947,212.75652639986947,0.006892799865454435,0.0991996000520885,2.0,3.293324700091034,,,,,,,,,,,,,,8755,Moral,2025-02-19_13h33.32.448,MoralCondition_v2,2022.2.5,30.00936591406689,
2,0,2,0,2,0,2,0,,,,,,,,,,,,,,,,,,,,,,,,,,,,,,,,,,,,,,,,,,,,,,,,,,,,,216.08992169983685,216.08992169983685,0.008316099643707275,0.09943149983882904,4.0,4.491943700239062,,,,,,,,,,,,,,8755,Moral,2025-02-19_13h33.32.448,MoralCondition_v2,2022.2.5,30.00936591406689,
2,0,2,0,3,0,3,0,,,,,,,,,,,,,,,,,,,,,,,,,,,,,,,,,,,,,,,,,,,,,,,,,,,,,220.62305469997227,220.62305469997227,0.00837939977645874,0.09786029998213053,5.0,5.257315000053495,,,,,,,,,,,,,,8755,Moral,2025-02-19_13h33.32.448,MoralCondition_v2,2022.2.5,30.00936591406689,
2,0,2,0,4,0,4,0,,,,,,,,,,,,,,,,,,,,,,,,,,,,,,,,,,,,,,,,,,,,,,,,,,,,,225.9230688996613,225.9230688996613,0.006947699934244156,0.09914409974589944,5.0,4.493131600320339,,,,,,,,,,,,,,8755,Moral,2025-02-19_13h33.32.448,MoralCondition_v2,2022.2.5,30.00936591406689,
2,0,2,0,5,0,5,0,,,,,,,,,,,,,,,,,,,,,,,,,,,,,,,,,,,,,,,,,,,,,,,,,,,,,230.45627169962972,230.45627169962972,0.008778700139373541,0.09919470036402345,5.0,2.6580655998550355,,,,,,,,,,,,,,8755,Moral,2025-02-19_13h33.32.448,MoralCondition_v2,2022.2.5,30.00936591406689,
2,0,2,0,6,0,6,0,,,,,,,,,,,,,,,,,,,,,,,,,,,,,,,,,,,,,,,,,,,,,,,,,,,,,233.17293659970164,233.17293659970164,0.010170800145715475,0.11449210019782186,1.0,4.338674100115895,,,,,,,,,,,,,,8755,Moral,2025-02-19_13h33.32.448,MoralCondition_v2,2022.2.5,30.00936591406689,
2,0,2,0,,,,,,,,,,,,,,,,,,,,,,,,,,,,,,,,,,,,,,,,,,,,,,,,,,,,,,,,,,,,,,,237.5397809999995,237.5397809999995,0.001468299888074398,0.09722879994660616,2.0,6.13041380001232,,,,,,,,8755,Moral,2025-02-19_13h33.32.448,MoralCondition_v2,2022.2.5,30.00936591406689,
3,0,3,0,0,0,0,0,,,,,,,,,,,,,,,,,,,,,,243.70652659982443,0.00017460016533732414,0.09862940013408661,249.70623959973454,6.031889700330794,249.8900054995902,249.8900054995902,0.07325370004400611,0.18230530014261603,6.015165300108492,255.98942339979112,255.98942339979112,255.98942339979112,0.07891289982944727,0.1817470001988113,261.68972819997,261.8895884999074,6.015243399888277,6.1151979002170265,267.8895847997628,12.015236800070852,268.02293069986627,268.02293069986627,0.015420599840581417,0.11507009994238615,up,2.713384000118822,270.7729178997688,3.8700178265571594e-05,0.09791970020160079,,276.79001149954274,276.79001149954274,0.025440600235015154,0.11459180014207959,3.0,4.956908599939197,,,,,,,,255.8896338995546,255.8896338995546,267.9895918997936,267.9895918997936,,,8755,Moral,2025-02-19_13h33.32.448,MoralCondition_v2,2022.2.5,30.00936591406689,
3,0,3,0,1,0,1,0,,,,,,,,,,,,,,,,,,,,,,,,,,,,,,,,,,,,,,,,,,,,,,,,,,,,,281.78959969989955,281.78959969989955,0.007513400167226791,0.09868629975244403,2.0,2.5256856000050902,,,,,,,,,,,,,,8755,Moral,2025-02-19_13h33.32.448,MoralCondition_v2,2022.2.5,30.00936591406689,
3,0,3,0,2,0,2,0,,,,,,,,,,,,,,,,,,,,,,,,,,,,,,,,,,,,,,,,,,,,,,,,,,,,,284.35642379987985,284.35642379987985,0.0072246999479830265,0.09756929986178875,4.0,2.6248025000095367,,,,,,,,,,,,,,8755,Moral,2025-02-19_13h33.32.448,MoralCondition_v2,2022.2.5,30.00936591406689,
3,0,3,0,3,0,3,0,,,,,,,,,,,,,,,,,,,,,,,,,,,,,,,,,,,,,,,,,,,,,,,,,,,,,287.0398843996227,287.0398843996227,0.007988899946212769,0.11451150011271238,1.0,2.0075869001448154,,,,,,,,,,,,,,8755,Moral,2025-02-19_13h33.32.448,MoralCondition_v2,2022.2.5,30.00936591406689,
3,0,3,0,4,0,4,0,,,,,,,,,,,,,,,,,,,,,,,,,,,,,,,,,,,,,,,,,,,,,,,,,,,,,289.0894829998724,289.0894829998724,0.008594700135290623,0.11477749980986118,6.0,3.9072692999616265,,,,,,,,,,,,,,8755,Moral,2025-02-19_13h33.32.448,MoralCondition_v2,2022.2.5,30.00936591406689,
3,0,3,0,5,0,5,0,,,,,,,,,,,,,,,,,,,,,,,,,,,,,,,,,,,,,,,,,,,,,,,,,,,,,293.0229944996536,293.0229944996536,0.007489199750125408,0.09744699997827411,3.0,3.3579116999171674,,,,,,,,,,,,,,8755,Moral,2025-02-19_13h33.32.448,MoralCondition_v2,2022.2.5,30.00936591406689,
3,0,3,0,6,0,6,0,,,,,,,,,,,,,,,,,,,,,,,,,,,,,,,,,,,,,,,,,,,,,,,,,,,,,296.422845099587,296.422845099587,0.007261099759489298,0.09945710003376007,3.0,2.5596516001969576,,,,,,,,,,,,,,8755,Moral,2025-02-19_13h33.32.448,MoralCondition_v2,2022.2.5,30.00936591406689,
3,0,3,0,,,,,,,,,,,,,,,,,,,,,,,,,,,,,,,,,,,,,,,,,,,,,,,,,,,,,,,,,,,,,,,299.02290099998936,299.02290099998936,0.000696900300681591,0.09858100023120642,7.0,7.699112500064075,,,,,,,,8755,Moral,2025-02-19_13h33.32.448,MoralCondition_v2,2022.2.5,30.00936591406689,
4,0,4,0,0,0,0,0,,,,,,,,,,,,,,,,,,,,,,306.75636059977114,0.00034449994564056396,0.09794129990041256,312.7728011999279,6.0146188996732235,312.9393069995567,312.9393069995567,0.06822509970515966,0.18126199999824166,6.014600900001824,319.02252909960225,319.02252909960225,319.02252909960225,0.06631299946457148,0.16451519960537553,324.72275179997087,324.9560976997018,6.031234399881214,6.131353399716318,330.9561218000017,12.031272999476641,331.08955109957606,331.08955109957606,0.03134819958359003,0.13120419951155782,up,1.551063499879092,332.7061174996197,4.3800100684165955e-05,0.09819520032033324,,338.7229036996141,338.7229036996141,0.024701999966055155,0.11505680019035935,1.0,2.3580804001539946,,,,,,,,318.93945709988475,318.93945709988475,331.0227836999111,331.0227836999111,,,8755,Moral,2025-02-19_13h33.32.448,MoralCondition_v2,2022.2.5,30.00936591406689,
4,0,4,0,1,0,1,0,,,,,,,,,,,,,,,,,,,,,,,,,,,,,,,,,,,,,,,,,,,,,,,,,,,,,341.1225991998799,341.1225991998799,0.007147100288420916,0.09860890032723546,1.0,2.5590301998890936,,,,,,,,,,,,,,8755,Moral,2025-02-19_13h33.32.448,MoralCondition_v2,2022.2.5,30.00936591406689,
4,0,4,0,2,0,2,0,,,,,,,,,,,,,,,,,,,,,,,,,,,,,,,,,,,,,,,,,,,,,,,,,,,,,343.72260509990156,343.72260509990156,0.006701999809592962,0.09921280015259981,6.0,3.46009480021894,,,,,,,,,,,,,,8755,Moral,2025-02-19_13h33.32.448,MoralCondition_v2,2022.2.5,30.00936591406689,
4,0,4,0,3,0,3,0,,,,,,,,,,,,,,,,,,,,,,,,,,,,,,,,,,,,,,,,,,,,,,,,,,,,,347.2396741998382,347.2396741998382,0.008408399764448404,0.11458949977532029,3.0,3.9404420000500977,,,,,,,,,,,,,,8755,Moral,2025-02-19_13h33.32.448,MoralCondition_v2,2022.2.5,30.00936591406689,
4,0,4,0,4,0,4,0,,,,,,,,,,,,,,,,,,,,,,,,,,,,,,,,,,,,,,,,,,,,,,,,,,,,,351.206013799645,351.206013799645,0.005976699758321047,0.09928919980302453,1.0,1.8609581999480724,,,,,,,,,,,,,,8755,Moral,2025-02-19_13h33.32.448,MoralCondition_v2,2022.2.5,30.00936591406689,
4,0,4,0,5,0,5,0,,,,,,,,,,,,,,,,,,,,,,,,,,,,,,,,,,,,,,,,,,,,,,,,,,,,,353.10618809983134,353.10618809983134,0.008824300020933151,0.09798630001023412,2.0,3.1569842002354562,,,,,,,,,,,,,,8755,Moral,2025-02-19_13h33.32.448,MoralCondition_v2,2022.2.5,30.00936591406689,
4,0,4,0,6,0,6,0,,,,,,,,,,,,,,,,,,,,,,,,,,,,,,,,,,,,,,,,,,,,,,,,,,,,,356.30599949974567,356.30599949974567,0.007788999937474728,0.0992963002063334,1.0,2.6590902004390955,,,,,,,,,,,,,,8755,Moral,2025-02-19_13h33.32.448,MoralCondition_v2,2022.2.5,30.00936591406689,
4,0,4,0,,,,,,,,,,,,,,,,,,,,,,,,,,,,,,,,,,,,,,,,,,,,,,,,,,,,,,,,,,,,,,,359.00620249984786,359.00620249984786,0.0007348000071942806,0.09898360027000308,7.0,2.733017799910158,,,,,,,,8755,Moral,2025-02-19_13h33.32.448,MoralCondition_v2,2022.2.5,30.00936591406689,
5,0,5,0,0,0,0,0,,,,,,,,,,,,,,,,,,,,,,361.7727046995424,0.00021590013056993484,0.09844589978456497,367.7724697999656,6.014839199837297,367.95604919968173,367.95604919968173,0.06971339974552393,0.1819883999414742,6.015082499943674,374.03935359977186,374.03935359977186,374.03935359977186,0.06374559970572591,0.16530979983508587,379.739258099813,379.97263709967956,6.031757699791342,6.131692099850625,385.9725932995789,12.031715599820018,386.0723881996237,386.0723881996237,0.014899499714374542,0.09814279992133379,up,2.2316451999358833,388.3559050997719,4.310021176934242e-05,0.0982051002793014,394.35591309983283,394.35591309983283,394.35591309983283,0.00735700037330389,0.0981568000279367,1.0,2.158365999814123,,,,,,,6.098276500124484,373.95583109976724,373.95583109976724,386.03909039963037,386.03909039963037,,,8755,Moral,2025-02-19_13h33.32.448,MoralCondition_v2,2022.2.5,30.00936591406689,
5,0,5,0,1,0,1,0,,,,,,,,,,,,,,,,,,,,,,,,,,,,,,,,,,,,,,,,,,,,,,,,,,,,,396.5557512999512,396.5557512999512,0.006999399978667498,0.09909230004996061,1.0,3.1265242001973093,,,,,,,,,,,,,,8755,Moral,2025-02-19_13h33.32.448,MoralCondition_v2,2022.2.5,30.00936591406689,
5,0,5,0,2,0,2,0,,,,,,,,,,,,,,,,,,,,,,,,,,,,,,,,,,,,,,,,,,,,,,,,,,,,,399.73935059970245,399.73935059970245,0.009576499927788973,0.11576620023697615,1.0,1.7073229001834989,,,,,,,,,,,,,,8755,Moral,2025-02-19_13h33.32.448,MoralCondition_v2,2022.2.5,30.00936591406689,
5,0,5,0,3,0,3,0,,,,,,,,,,,,,,,,,,,,,,,,,,,,,,,,,,,,,,,,,,,,,,,,,,,,,401.47249329974875,401.47249329974875,0.00877099996432662,0.09888189984485507,6.0,4.558147700037807,,,,,,,,,,,,,,8755,Moral,2025-02-19_13h33.32.448,MoralCondition_v2,2022.2.5,30.00936591406689,
5,0,5,0,4,0,4,0,,,,,,,,,,,,,,,,,,,,,,,,,,,,,,,,,,,,,,,,,,,,,,,,,,,,,406.07244909973815,406.07244909973815,0.008534600026905537,0.09915059991180897,4.0,5.42530329991132,,,,,,,,,,,,,,8755,Moral,2025-02-19_13h33.32.448,MoralCondition_v2,2022.2.5,30.00936591406689,
5,0,5,0,5,0,5,0,,,,,,,,,,,,,,,,,,,,,,,,,,,,,,,,,,,,,,,,,,,,,,,,,,,,,411.5556558999233,411.5556558999233,0.014341100119054317,0.1153230001218617,2.0,2.4021133999340236,,,,,,,,,,,,,,8755,Moral,2025-02-19_13h33.32.448,MoralCondition_v2,2022.2.5,30.00936591406689,
5,0,5,0,6,0,6,0,,,,,,,,,,,,,,,,,,,,,,,,,,,,,,,,,,,,,,,,,,,,,,,,,,,,,414.00576909957454,414.00576909957454,0.010462699923664331,0.1159828002564609,1.0,2.506280899979174,,,,,,,,,,,,,,8755,Moral,2025-02-19_13h33.32.448,MoralCondition_v2,2022.2.5,30.00936591406689,
5,0,5,0,,,,,,,,,,,,,,,,,,,,,,,,,,,,,,,,,,,,,,,,,,,,,,,,,,,,,,,,,,,,,,,416.539316999726,416.539316999726,0.0005466998554766178,0.0990728996694088,7.0,2.4664695002138615,,,,,,,,8755,Moral,2025-02-19_13h33.32.448,MoralCondition_v2,2022.2.5,30.00936591406689,
6,0,6,0,0,0,0,0,,,,,,,,,,,,,,,,,,,,,,419.0391250997782,0.000112100038677454,0.09921019989997149,425.0557487998158,6.015842100139707,425.23896929994226,425.23896929994226,0.09760609967634082,0.1997352996841073,5.999232799746096,431.30594919994473,431.30594919994473,431.30594919994473,0.055712999776005745,0.16604879964143038,437.0056988997385,437.20574279967695,5.999212499707937,6.0993721997365355,443.20566489966586,11.99913839995861,443.3390361997299,443.3390361997299,-1.400243490934372e-06,0.09910219954326749,up,1.574068899732083,444.97245699958876,4.990026354789734e-05,0.09809580026194453,450.9723024996929,450.9723024996929,450.9723024996929,0.009312900248914957,0.09806660003960133,1.0,2.5565698998980224,,,,,,,,431.30594919994473,431.30594919994473,443.30567789962515,443.30567789962515,6.099165599793196,12.09915649984032,8755,Moral,2025-02-19_13h33.32.448,MoralCondition_v2,2022.2.5,30.00936591406689,
6,0,6,0,1,0,1,0,,,,,,,,,,,,,,,,,,,,,,,,,,,,,,,,,,,,,,,,,,,,,,,,,,,,,453.58921289956197,453.58921289956197,0.008204500190913677,0.11433510016649961,2.0,1.8405629000626504,,,,,,,,,,,,,,8755,Moral,2025-02-19_13h33.32.448,MoralCondition_v2,2022.2.5,30.00936591406689,
6,0,6,0,2,0,2,0,,,,,,,,,,,,,,,,,,,,,,,,,,,,,,,,,,,,,,,,,,,,,,,,,,,,,455.45550639973953,455.45550639973953,0.006379599682986736,0.0990584995597601,6.0,2.8604238000698388,,,,,,,,,,,,,,8755,Moral,2025-02-19_13h33.32.448,MoralCondition_v2,2022.2.5,30.00936591406689,
6,0,6,0,3,0,3,0,,,,,,,,,,,,,,,,,,,,,,,,,,,,,,,,,,,,,,,,,,,,,,,,,,,,,458.35584489954636,458.35584489954636,0.007627999875694513,0.09775759978219867,3.0,4.291211999952793,,,,,,,,,,,,,,8755,Moral,2025-02-19_13h33.32.448,MoralCondition_v2,2022.2.5,30.00936591406689,
6,0,6,0,4,0,4,0,,,,,,,,,,,,,,,,,,,,,,,,,,,,,,,,,,,,,,,,,,,,,,,,,,,,,462.6891585998237,462.6891585998237,0.006478799972683191,0.09937659977003932,2.0,5.060309499967843,,,,,,,,,,,,,,8755,Moral,2025-02-19_13h33.32.448,MoralCondition_v2,2022.2.5,30.00936591406689,
6,0,6,0,5,0,5,0,,,,,,,,,,,,,,,,,,,,,,,,,,,,,,,,,,,,,,,,,,,,,,,,,,,,,467.7888076999225,467.7888076999225,0.007407699711620808,0.09829399967566133,1.0,1.925233299843967,,,,,,,,,,,,,,8755,Moral,2025-02-19_13h33.32.448,MoralCondition_v2,2022.2.5,30.00936591406689,
6,0,6,0,6,0,6,0,,,,,,,,,,,,,,,,,,,,,,,,,,,,,,,,,,,,,,,,,,,,,,,,,,,,,469.75567019963637,469.75567019963637,0.007506900001317263,0.0979114999063313,1.0,1.4246645998209715,,,,,,,,,,,,,,8755,Moral,2025-02-19_13h33.32.448,MoralCondition_v2,2022.2.5,30.00936591406689,
6,0,6,0,,,,,,,,,,,,,,,,,,,,,,,,,,,,,,,,,,,,,,,,,,,,,,,,,,,,,,,,,,,,,,,471.22239909972996,471.22239909972996,0.0007095001637935638,0.09928310010582209,7.0,2.633049299940467,,,,,,,,8755,Moral,2025-02-19_13h33.32.448,MoralCondition_v2,2022.2.5,30.00936591406689,
7,0,7,0,0,0,0,0,,,,,,,,,,,,,,,,,,,,,,473.8889495995827,0.00038509955629706383,0.09706229995936155,479.90553509956226,6.013950599823147,480.07207679981366,480.07207679981366,0.07229449972510338,0.180657799821347,6.0139945996925235,486.1724549997598,486.1724549997598,486.1724549997598,0.07019139965996146,0.18086269963532686,491.87222309969366,492.07239479990676,6.0142067996785045,6.113851799629629,498.07227939972654,12.014064699411392,498.1886062999256,498.1886062999256,0.013660999480634928,0.09719489933922887,up,1.9393619997426867,500.1888375999406,5.1800161600112915e-05,0.09844610001891851,,506.2052789996378,506.2052789996378,0.024995199870318174,0.1143465000204742,3.0,3.057326499838382,,,,,,,,486.0722034997307,486.0722034997307,498.1553181996569,498.1553181996569,,,8755,Moral,2025-02-19_13h33.32.448,MoralCondition_v2,2022.2.5,30.00936591406689,
7,0,7,0,1,0,1,0,,,,,,,,,,,,,,,,,,,,,,,,,,,,,,,,,,,,,,,,,,,,,,,,,,,,,509.3053199998103,509.3053199998103,0.007651799824088812,0.0978647000156343,2.0,4.55796410003677,,,,,,,,,,,,,,8755,Moral,2025-02-19_13h33.32.448,MoralCondition_v2,2022.2.5,30.00936591406689,
7,0,7,0,2,0,2,0,,,,,,,,,,,,,,,,,,,,,,,,,,,,,,,,,,,,,,,,,,,,,,,,,,,,,513.9052370996214,513.9052370996214,0.0074490997940301895,0.09715149970725179,1.0,1.7906549996696413,,,,,,,,,,,,,,8755,Moral,2025-02-19_13h33.32.448,MoralCondition_v2,2022.2.5,30.00936591406689,
7,0,7,0,3,0,3,0,,,,,,,,,,,,,,,,,,,,,,,,,,,,,,,,,,,,,,,,,,,,,,,,,,,,,515.738584799692,515.738584799692,0.0068974001333117485,0.0983674000017345,4.0,2.5590266999788582,,,,,,,,,,,,,,8755,Moral,2025-02-19_13h33.32.448,MoralCondition_v2,2022.2.5,30.00936591406689,
7,0,7,0,4,0,4,0,,,,,,,,,,,,,,,,,,,,,,,,,,,,,,,,,,,,,,,,,,,,,,,,,,,,,518.3388901995495,518.3388901995495,0.006928200367838144,0.09930440038442612,1.0,1.8265263000503182,,,,,,,,,,,,,,8755,Moral,2025-02-19_13h33.32.448,MoralCondition_v2,2022.2.5,30.00936591406689,
7,0,7,0,5,0,5,0,,,,,,,,,,,,,,,,,,,,,,,,,,,,,,,,,,,,,,,,,,,,,,,,,,,,,520.2053118995391,520.2053118995391,0.007825400214642286,0.09796160040423274,2.0,5.091052500065416,,,,,,,,,,,,,,8755,Moral,2025-02-19_13h33.32.448,MoralCondition_v2,2022.2.5,30.00936591406689,
7,0,7,0,6,0,6,0,,,,,,,,,,,,,,,,,,,,,,,,,,,,,,,,,,,,,,,,,,,,,,,,,,,,,525.3388002999127,525.3388002999127,0.0073729995638132095,0.09808889962732792,6.0,2.3248687996529043,,,,,,,,,,,,,,8755,Moral,2025-02-19_13h33.32.448,MoralCondition_v2,2022.2.5,30.00936591406689,
7,0,7,0,,,,,,,,,,,,,,,,,,,,,,,,,,,,,,,,,,,,,,,,,,,,,,,,,,,,,,,,,,,,,,,527.7055597999133,527.7055597999133,0.00137670012190938,0.09778370009735227,7.0,1.964126399718225,,,,,,,,8755,Moral,2025-02-19_13h33.32.448,MoralCondition_v2,2022.2.5,30.00936591406689,
8,0,8,0,0,0,0,0,,,,,,,,,,,,,,,,,,,,,,529.7057036999613,0.00015059998258948326,0.09944409970194101,535.7052968996577,5.999334199819714,535.9216505996883,535.9216505996883,0.1090302998200059,0.21603129990398884,6.0159940999001265,541.9888921999373,541.9888921999373,541.9888921999373,0.070461499504745,0.18260349985212088,547.6885901996866,547.8887516995892,6.016126999631524,6.116019199602306,553.8885748996399,12.015962299425155,554.0219000997022,554.0219000997022,0.0162427993491292,0.11584059940651059,up,1.9455323996953666,555.9846964995377,1.750001683831215e-05,0.1029215999878943,561.9884045999497,561.9884045999497,561.9884045999497,0.019464700017124414,0.11952329985797405,6.0,4.2566209002397954,,,,,,,6.099293799605221,,,553.9886011998169,553.9886011998169,,,8755,Moral,2025-02-19_13h33.32.448,MoralCondition_v2,2022.2.5,30.00936591406689,
8,0,8,0,1,0,1,0,,,,,,,,,,,,,,,,,,,,,,,,,,,,,,,,,,,,,,,,,,,,,,,,,,,,,566.2886819997802,566.2886819997802,0.009066900238394737,0.09761850023642182,2.0,4.456080799922347,,,,,,,,,,,,,,8755,Moral,2025-02-19_13h33.32.448,MoralCondition_v2,2022.2.5,30.00936591406689,
8,0,8,0,2,0,2,0,,,,,,,,,,,,,,,,,,,,,,,,,,,,,,,,,,,,,,,,,,,,,,,,,,,,,570.8054907997139,570.8054907997139,0.00788799999281764,0.11419039964675903,1.0,1.674111200030893,,,,,,,,,,,,,,8755,Moral,2025-02-19_13h33.32.448,MoralCondition_v2,2022.2.5,30.00936591406689,
8,0,8,0,3,0,3,0,,,,,,,,,,,,,,,,,,,,,,,,,,,,,,,,,,,,,,,,,,,,,,,,,,,,,572.5220623998903,572.5220623998903,0.008978600148111582,0.11456859996542335,1.0,2.0064449002966285,,,,,,,,,,,,,,8755,Moral,2025-02-19_13h33.32.448,MoralCondition_v2,2022.2.5,30.00936591406689,
8,0,8,0,4,0,4,0,,,,,,,,,,,,,,,,,,,,,,,,,,,,,,,,,,,,,,,,,,,,,,,,,,,,,574.555107999593,574.555107999593,0.006924400106072426,0.09872099990025163,1.0,1.3265157998539507,,,,,,,,,,,,,,8755,Moral,2025-02-19_13h33.32.448,MoralCondition_v2,2022.2.5,30.00936591406689,
8,0,8,0,5,0,5,0,,,,,,,,,,,,,,,,,,,,,,,,,,,,,,,,,,,,,,,,,,,,,,,,,,,,,575.9217885998078,575.9217885998078,0.006596199702471495,0.09921190002933145,1.0,3.0936011001467705,,,,,,,,,,,,,,8755,Moral,2025-02-19_13h33.32.448,MoralCondition_v2,2022.2.5,30.00936591406689,
8,0,8,0,6,0,6,0,,,,,,,,,,,,,,,,,,,,,,,,,,,,,,,,,,,,,,,,,,,,,,,,,,,,,579.0552046997473,579.0552046997473,0.0076419999822974205,0.09788070013746619,1.0,1.7577426000498235,,,,,,,,,,,,,,8755,Moral,2025-02-19_13h33.32.448,MoralCondition_v2,2022.2.5,30.00936591406689,
8,0,8,0,,,,,,,,,,,,,,,,,,,,,,,,,,,,,,,,,,,,,,,,,,,,,,,,,,,,,,,,,,,,,,,580.855181099847,580.855181099847,0.0014798999764025211,0.09779120003804564,7.0,2.2642208002507687,,,,,,,,8755,Moral,2025-02-19_13h33.32.448,MoralCondition_v2,2022.2.5,30.00936591406689,
9,0,9,0,0,0,0,0,,,,,,,,,,,,,,,,,,,,,,583.155512899626,0.00013669999316334724,0.09918319992721081,589.1552364998497,5.999020999763161,589.322030399926,589.322030399926,0.05275939963757992,0.16601819964125752,6.032342799939215,595.4550794996321,595.4550794996321,595.4550794996321,0.08509219950065017,0.19876369973644614,601.1550804995932,601.3550582998432,6.032392199616879,6.132333399727941,607.3551681996323,12.03247969970107,607.4884077999741,607.4884077999741,0.032637699507176876,0.1322224996984005,up,2.559286800213158,610.1050301999785,4.429975524544716e-05,0.09781449986621737,,616.1385591998696,616.1385591998696,0.025963699910789728,0.13124339981004596,2.0,2.7061366997659206,,,,,,,6.098903799895197,595.3217839999124,595.3217839999124,607.4551395997405,607.4551395997405,,,8755,Moral,2025-02-19_13h33.32.448,MoralCondition_v2,2022.2.5,30.00936591406689,
9,0,9,0,1,0,1,0,,,,,,,,,,,,,,,,,,,,,,,,,,,,,,,,,,,,,,,,,,,,,,,,,,,,,618.8717442997731,618.8717442997731,0.007344200275838375,0.0973654999397695,1.0,1.8244386999867857,,,,,,,,,,,,,,8755,Moral,2025-02-19_13h33.32.448,MoralCondition_v2,2022.2.5,30.00936591406689,
9,0,9,0,2,0,2,0,,,,,,,,,,,,,,,,,,,,,,,,,,,,,,,,,,,,,,,,,,,,,,,,,,,,,620.7383268997073,620.7383268997073,0.00850760005414486,0.09760380024090409,2.0,4.256878400221467,,,,,,,,,,,,,,8755,Moral,2025-02-19_13h33.32.448,MoralCondition_v2,2022.2.5,30.00936591406689,
9,0,9,0,3,0,3,0,,,,,,,,,,,,,,,,,,,,,,,,,,,,,,,,,,,,,,,,,,,,,,,,,,,,,625.0551755996421,625.0551755996421,0.008549300022423267,0.11431699991226196,2.0,2.1399434003978968,,,,,,,,,,,,,,8755,Moral,2025-02-19_13h33.32.448,MoralCondition_v2,2022.2.5,30.00936591406689,
9,0,9,0,4,0,4,0,,,,,,,,,,,,,,,,,,,,,,,,,,,,,,,,,,,,,,,,,,,,,,,,,,,,,627.2215424999595,627.2215424999595,0.007451199926435947,0.09774259990081191,2.0,3.224729200359434,,,,,,,,,,,,,,8755,Moral,2025-02-19_13h33.32.448,MoralCondition_v2,2022.2.5,30.00936591406689,
9,0,9,0,5,0,5,0,,,,,,,,,,,,,,,,,,,,,,,,,,,,,,,,,,,,,,,,,,,,,,,,,,,,,630.4883366995491,630.4883366995491,0.00750499963760376,0.0977192996069789,6.0,1.7911163000389934,,,,,,,,,,,,,,8755,Moral,2025-02-19_13h33.32.448,MoralCondition_v2,2022.2.5,30.00936591406689,
9,0,9,0,6,0,6,0,,,,,,,,,,,,,,,,,,,,,,,,,,,,,,,,,,,,,,,,,,,,,,,,,,,,,632.3386855996214,632.3386855996214,0.007953300140798092,0.11435250006616116,1.0,1.7410666001960635,,,,,,,,,,,,,,8755,Moral,2025-02-19_13h33.32.448,MoralCondition_v2,2022.2.5,30.00936591406689,
9,0,9,0,,,,,,,,,,,,,,,,,,,,,,,,,,,,,,,,,,,,,,,,,,,,,,,,,,,,,,,,,,,,,,,634.1051124995574,634.1051124995574,0.001232100185006857,0.0980238001793623,7.0,2.031216799747199,,,,,,,,8755,Moral,2025-02-19_13h33.32.448,MoralCondition_v2,2022.2.5,30.00936591406689,
10,0,10,0,0,0,0,0,,,,,,,,,,,,,,,,,,,,,,636.1719130999409,0.00013089971616864204,0.09925049962475896,642.1882197996601,6.015756199602038,642.354972299654,642.354972299654,0.07683919975534081,0.1824232996441424,6.015717399772257,648.4549303995445,648.4549303995445,648.4549303995445,0.07671519974246621,0.18298239959403872,654.1548885996453,654.3549986998551,6.015893799718469,6.115785499569029,660.3548364997841,12.015716399531811,660.4882140997797,660.4882140997797,0.015904199331998825,0.11582589941099286,down,1.640063399914652,662.1881656995974,3.989972174167633e-05,0.09806300001218915,668.1881922995672,668.1881922995672,668.1881922995672,0.009176699910312891,0.09803960006684065,6.0,8.02321879984811,,,,,,,,648.3550462997518,648.3550462997518,660.4548270995729,660.4548270995729,,,8755,Moral,2025-02-19_13h33.32.448,MoralCondition_v2,2022.2.5,30.00936591406689,
10,0,10,0,1,0,1,0,,,,,,,,,,,,,,,,,,,,,,,,,,,,,,,,,,,,,,,,,,,,,,,,,,,,,676.2548295999877,676.2548295999877,0.0063586002215743065,0.09890290023759007,6.0,5.194148300215602,,,,,,,,,,,,,,8755,Moral,2025-02-19_13h33.32.448,MoralCondition_v2,2022.2.5,30.00936591406689,
10,0,10,0,2,0,2,0,,,,,,,,,,,,,,,,,,,,,,,,,,,,,,,,,,,,,,,,,,,,,,,,,,,,,681.4880367997102,681.4880367997102,0.00671379966661334,0.09824449988082051,4.0,1.9925204003229737,,,,,,,,,,,,,,8755,Moral,2025-02-19_13h33.32.448,MoralCondition_v2,2022.2.5,30.00936591406689,
10,0,10,0,3,0,3,0,,,,,,,,,,,,,,,,,,,,,,,,,,,,,,,,,,,,,,,,,,,,,,,,,,,,,683.5217710998841,683.5217710998841,0.006667899899184704,0.09835630003362894,5.0,4.6595788998529315,,,,,,,,,,,,,,8755,Moral,2025-02-19_13h33.32.448,MoralCondition_v2,2022.2.5,30.00936591406689,
10,0,10,0,4,0,4,0,,,,,,,,,,,,,,,,,,,,,,,,,,,,,,,,,,,,,,,,,,,,,,,,,,,,,688.2213525995612,688.2213525995612,0.007695499807596207,0.09785209968686104,5.0,2.9245265000499785,,,,,,,,,,,,,,8755,Moral,2025-02-19_13h33.32.448,MoralCondition_v2,2022.2.5,30.00936591406689,
10,0,10,0,5,0,5,0,,,,,,,,,,,,,,,,,,,,,,,,,,,,,,,,,,,,,,,,,,,,,,,,,,,,,691.1880488996394,691.1880488996394,0.006454300135374069,0.09969620034098625,5.0,3.1940921996720135,,,,,,,,,,,,,,8755,Moral,2025-02-19_13h33.32.448,MoralCondition_v2,2022.2.5,30.00936591406689,
10,0,10,0,6,0,6,0,,,,,,,,,,,,,,,,,,,,,,,,,,,,,,,,,,,,,,,,,,,,,,,,,,,,,694.4211856997572,694.4211856997572,0.006313300225883722,0.099390699993819,1.0,2.627361999824643,,,,,,,,,,,,,,8755,Moral,2025-02-19_13h33.32.448,MoralCondition_v2,2022.2.5,30.00936591406689,
10,0,10,0,,,,,,,,,,,,,,,,,,,,,,,,,,,,,,,,,,,,,,,,,,,,,,,,,,,,,,,,,,,,,,,697.0881594996899,697.0881594996899,0.0015244996175169945,0.0974988997913897,2.0,4.79749620007351,,,,,,,,8755,Moral,2025-02-19_13h33.32.448,MoralCondition_v2,2022.2.5,30.00936591406689,
11,0,11,0,0,0,0,0,,,,,,,,,,,,,,,,,,,,,,701.9215980996378,0.0003126002848148346,0.0978093002922833,707.9213713998906,6.03118780022487,708.1048401999287,708.1048401999287,0.0699146999977529,0.18127920012921095,6.014400400221348,714.2044861996546,714.2044861996546,714.2044861996546,0.06797159975394607,0.1808449001982808,719.9046077998355,720.1045267996378,6.014328099787235,6.11435869988054,726.1045679999515,12.01434399979189,726.2380479997955,726.2380479997955,0.014560099691152573,0.11430149991065264,down,1.6182574997656047,727.9045465998352,4.4199638068675995e-05,0.09772399999201298,733.9215505998582,733.9215505998582,733.9215505998582,0.009655399713665247,0.11455889977514744,5.0,3.1059378003701568,,,,,,,,714.1046085995622,714.1046085995622,726.2045876998454,726.2045876998454,,,8755,Moral,2025-02-19_13h33.32.448,MoralCondition_v2,2022.2.5,30.00936591406689,
11,0,11,0,1,0,1,0,,,,,,,,,,,,,,,,,,,,,,,,,,,,,,,,,,,,,,,,,,,,,,,,,,,,,737.0544067998417,737.0544067998417,0.006607600022107363,0.09923389973118901,6.0,2.826958999969065,,,,,,,,,,,,,,8755,Moral,2025-02-19_13h33.32.448,MoralCondition_v2,2022.2.5,30.00936591406689,
11,0,11,0,2,0,2,0,,,,,,,,,,,,,,,,,,,,,,,,,,,,,,,,,,,,,,,,,,,,,,,,,,,,,739.921211999841,739.921211999841,0.007880200166255236,0.09790239995345473,1.0,2.62443479988724,,,,,,,,,,,,,,8755,Moral,2025-02-19_13h33.32.448,MoralCondition_v2,2022.2.5,30.00936591406689,
11,0,11,0,3,0,3,0,,,,,,,,,,,,,,,,,,,,,,,,,,,,,,,,,,,,,,,,,,,,,,,,,,,,,742.5877465996891,742.5877465996891,0.008792799897491932,0.09914669999852777,4.0,3.991386200301349,,,,,,,,,,,,,,8755,Moral,2025-02-19_13h33.32.448,MoralCondition_v2,2022.2.5,30.00936591406689,
11,0,11,0,4,0,4,0,,,,,,,,,,,,,,,,,,,,,,,,,,,,,,,,,,,,,,,,,,,,,,,,,,,,,746.6210448998027,746.6210448998027,0.007487900089472532,0.09764899965375662,5.0,2.857821600046009,,,,,,,,,,,,,,8755,Moral,2025-02-19_13h33.32.448,MoralCondition_v2,2022.2.5,30.00936591406689,
11,0,11,0,5,0,5,0,,,,,,,,,,,,,,,,,,,,,,,,,,,,,,,,,,,,,,,,,,,,,,,,,,,,,749.521040099673,749.521040099673,0.007230999879539013,0.09794889995828271,5.0,2.325146900024265,,,,,,,,,,,,,,8755,Moral,2025-02-19_13h33.32.448,MoralCondition_v2,2022.2.5,30.00936591406689,
11,0,11,0,6,0,6,0,,,,,,,,,,,,,,,,,,,,,,,,,,,,,,,,,,,,,,,,,,,,,,,,,,,,,751.8878757995553,751.8878757995553,0.007604300044476986,0.09915209980681539,5.0,1.9591335002332926,,,,,,,,,,,,,,8755,Moral,2025-02-19_13h33.32.448,MoralCondition_v2,2022.2.5,30.00936591406689,
11,0,11,0,,,,,,,,,,,,,,,,,,,,,,,,,,,,,,,,,,,,,,,,,,,,,,,,,,,,,,,,,,,,,,,753.8879306996241,753.8879306996241,0.0011150999926030636,0.09827740024775267,2.0,3.264909400139004,,,,,,,,8755,Moral,2025-02-19_13h33.32.448,MoralCondition_v2,2022.2.5,30.00936591406689,
12,0,12,0,0,0,0,0,,,,,,,,,,,,,,,,,,,,,,757.1880507995375,0.00013560010120272636,0.09912620019167662,763.1877684998326,5.99910070002079,763.3544179997407,763.3544179997407,0.06185569986701012,0.16578799998387694,5.999247400090098,769.4542995998636,769.4542995998636,769.4542995998636,0.06099949963390827,0.16585769969969988,775.1543835997581,775.3544122995809,5.9991949000395834,6.099258299916983,781.3543433998711,11.999049599748105,781.48768559983,781.48768559983,-4.79002483189106e-05,0.09898369992151856,up,2.240437699947506,783.7709062998183,4.330044612288475e-05,0.09797790041193366,789.770874499809,789.770874499809,789.770874499809,0.008948800154030323,0.09796170005574822,2.0,4.456468000076711,,,,,,,6.099063400179148,769.3544848999009,769.3544848999009,781.4544323999435,781.4544323999435,6.099217100068927,12.099159499630332,8755,Moral,2025-02-19_13h33.32.448,MoralCondition_v2,2022.2.5,30.00936591406689,
12,0,12,0,1,0,1,0,,,,,,,,,,,,,,,,,,,,,,,,,,,,,,,,,,,,,,,,,,,,,,,,,,,,,794.2876260997728,794.2876260997728,0.007738200016319752,0.11394750000908971,2.0,1.8406322002410889,,,,,,,,,,,,,,8755,Moral,2025-02-19_13h33.32.448,MoralCondition_v2,2022.2.5,30.00936591406689,
12,0,12,0,2,0,2,0,,,,,,,,,,,,,,,,,,,,,,,,,,,,,,,,,,,,,,,,,,,,,,,,,,,,,796.1712051997893,796.1712051997893,0.008043000008910894,0.11438299994915724,1.0,2.1738272001966834,,,,,,,,,,,,,,8755,Moral,2025-02-19_13h33.32.448,MoralCondition_v2,2022.2.5,30.00936591406689,
12,0,12,0,3,0,3,0,,,,,,,,,,,,,,,,,,,,,,,,,,,,,,,,,,,,,,,,,,,,,,,,,,,,,798.3708165995777,798.3708165995777,0.005976899992674589,0.0995147000066936,4.0,2.7279333998449147,,,,,,,,,,,,,,8755,Moral,2025-02-19_13h33.32.448,MoralCondition_v2,2022.2.5,30.00936591406689,
12,0,12,0,4,0,4,0,,,,,,,,,,,,,,,,,,,,,,,,,,,,,,,,,,,,,,,,,,,,,,,,,,,,,801.1374879996292,801.1374879996292,0.006927600130438805,0.09816130017861724,3.0,4.1086765001527965,,,,,,,,,,,,,,8755,Moral,2025-02-19_13h33.32.448,MoralCondition_v2,2022.2.5,30.00936591406689,
12,0,12,0,5,0,5,0,,,,,,,,,,,,,,,,,,,,,,,,,,,,,,,,,,,,,,,,,,,,,,,,,,,,,805.2871770998463,805.2871770998463,0.006354900076985359,0.11586730042472482,6.0,2.144036099780351,,,,,,,,,,,,,,8755,Moral,2025-02-19_13h33.32.448,MoralCondition_v2,2022.2.5,30.00936591406689,
12,0,12,0,6,0,6,0,,,,,,,,,,,,,,,,,,,,,,,,,,,,,,,,,,,,,,,,,,,,,,,,,,,,,807.4707272998057,807.4707272998057,0.005621999967843294,0.09853659989312291,1.0,1.9443468996323645,,,,,,,,,,,,,,8755,Moral,2025-02-19_13h33.32.448,MoralCondition_v2,2022.2.5,30.00936591406689,
12,0,12,0,,,,,,,,,,,,,,,,,,,,,,,,,,,,,,,,,,,,,,,,,,,,,,,,,,,,,,,,,,,,,,,809.454111199826,809.454111199826,0.0006619002670049667,0.09909579996019602,7.0,3.999514600262046,,,,,,,,8755,Moral,2025-02-19_13h33.32.448,MoralCondition_v2,2022.2.5,30.00936591406689,
13,0,13,0,0,0,0,0,,,,,,,,,,,,,,,,,,,,,,813.4878774997778,0.00026659993454813957,0.09795460011810064,819.5041588996537,6.0145408003591,819.6707257996313,819.6707257996313,0.06927690003067255,0.18132050009444356,6.014426900073886,825.7709124996327,825.7709124996327,825.7709124996327,0.0666458997875452,0.18146520014852285,831.4710070998408,831.6708567999303,6.014623099938035,6.114488299936056,837.6707560997456,12.014520199969411,837.8040972999297,837.8040972999297,0.014718600083142519,0.11451919982209802,up,1.8913349001668394,839.7541639995761,4.62997704744339e-05,0.09798389999195933,845.770951199811,845.770951199811,845.770951199811,0.009728999808430672,0.11450979998335242,6.0,2.3725655996240675,,,,,,,,825.6708222995512,825.6708222995512,837.7707777996548,837.7707777996548,,,8755,Moral,2025-02-19_13h33.32.448,MoralCondition_v2,2022.2.5,30.00936591406689,
13,0,13,0,1,0,1,0,,,,,,,,,,,,,,,,,,,,,,,,,,,,,,,,,,,,,,,,,,,,,,,,,,,,,848.1874416996725,848.1874416996725,0.009260999970138073,0.11391839990392327,1.0,1.7722740001045167,,,,,,,,,,,,,,8755,Moral,2025-02-19_13h33.32.448,MoralCondition_v2,2022.2.5,30.00936591406689,
13,0,13,0,2,0,2,0,,,,,,,,,,,,,,,,,,,,,,,,,,,,,,,,,,,,,,,,,,,,,,,,,,,,,850.0040577999316,850.0040577999316,0.008700599893927574,0.1140422997996211,2.0,5.006291300058365,,,,,,,,,,,,,,8755,Moral,2025-02-19_13h33.32.448,MoralCondition_v2,2022.2.5,30.00936591406689,
13,0,13,0,3,0,3,0,,,,,,,,,,,,,,,,,,,,,,,,,,,,,,,,,,,,,,,,,,,,,,,,,,,,,855.0544067998417,855.0544067998417,0.008191199973225594,0.11414459999650717,2.0,2.540517700370401,,,,,,,,,,,,,,8755,Moral,2025-02-19_13h33.32.448,MoralCondition_v2,2022.2.5,30.00936591406689,
13,0,13,0,4,0,4,0,,,,,,,,,,,,,,,,,,,,,,,,,,,,,,,,,,,,,,,,,,,,,,,,,,,,,857.6376242996193,857.6376242996193,0.00842499965801835,0.11423659976571798,2.0,2.573237099684775,,,,,,,,,,,,,,8755,Moral,2025-02-19_13h33.32.448,MoralCondition_v2,2022.2.5,30.00936591406689,
13,0,13,0,5,0,5,0,,,,,,,,,,,,,,,,,,,,,,,,,,,,,,,,,,,,,,,,,,,,,,,,,,,,,860.2374695995823,860.2374695995823,0.007720200344920158,0.09764670021831989,2.0,3.724005800206214,,,,,,,,,,,,,,8755,Moral,2025-02-19_13h33.32.448,MoralCondition_v2,2022.2.5,30.00936591406689,
13,0,13,0,6,0,6,0,,,,,,,,,,,,,,,,,,,,,,,,,,,,,,,,,,,,,,,,,,,,,,,,,,,,,864.0041787996888,864.0041787996888,0.007866500411182642,0.09750190004706383,1.0,1.4577811998315156,,,,,,,,,,,,,,8755,Moral,2025-02-19_13h33.32.448,MoralCondition_v2,2022.2.5,30.00936591406689,
13,0,13,0,,,,,,,,,,,,,,,,,,,,,,,,,,,,,,,,,,,,,,,,,,,,,,,,,,,,,,,,,,,,,,,865.5039591998793,865.5039591998793,0.002180300187319517,0.09731680015102029,7.0,3.0632962002418935,,,,,,,,8755,Moral,2025-02-19_13h33.32.448,MoralCondition_v2,2022.2.5,30.00936591406689,
14,0,14,0,0,0,0,0,,,,,,,,,,,,,,,,,,,,,,868.6041717999615,0.00015249988064169884,0.11601629992946982,874.6206725998782,6.0158326998353004,874.8037926997058,874.8037926997058,0.0935920998454094,0.19909349968656898,5.999168099835515,880.8709615999833,880.8709615999833,880.8709615999833,0.06228309962898493,0.16587189957499504,886.5706509999,886.7707827999257,5.999475099612027,6.09931099973619,892.7706692996435,11.999297799542546,892.903773299884,892.903773299884,1.0299496352672577e-05,0.09909729985520244,down,2.0727440998889506,895.0372138996609,3.6100391298532486e-05,0.09816270042210817,,901.0537202996202,901.0537202996202,0.025169700384140015,0.11494780005887151,5.0,4.157198400236666,,,,,,,,880.8709615999833,880.8709615999833,892.8705474999733,892.8705474999733,6.099166399799287,12.099203899968415,8755,Moral,2025-02-19_13h33.32.448,MoralCondition_v2,2022.2.5,30.00936591406689,
14,0,14,0,1,0,1,0,,,,,,,,,,,,,,,,,,,,,,,,,,,,,,,,,,,,,,,,,,,,,,,,,,,,,905.2539633996785,905.2539633996785,0.007470299955457449,0.0980269000865519,5.0,2.1579779000021517,,,,,,,,,,,,,,8755,Moral,2025-02-19_13h33.32.448,MoralCondition_v2,2022.2.5,30.00936591406689,
14,0,14,0,2,0,2,0,,,,,,,,,,,,,,,,,,,,,,,,,,,,,,,,,,,,,,,,,,,,,,,,,,,,,907.4705180996098,907.4705180996098,0.008561900351196527,0.11398410005494952,3.0,4.640040199737996,,,,,,,,,,,,,,8755,Moral,2025-02-19_13h33.32.448,MoralCondition_v2,2022.2.5,30.00936591406689,
14,0,14,0,3,0,3,0,,,,,,,,,,,,,,,,,,,,,,,,,,,,,,,,,,,,,,,,,,,,,,,,,,,,,912.1369387996383,912.1369387996383,0.007145899813622236,0.09743679966777563,5.0,2.7578594996593893,,,,,,,,,,,,,,8755,Moral,2025-02-19_13h33.32.448,MoralCondition_v2,2022.2.5,30.00936591406689,
14,0,14,0,4,0,4,0,,,,,,,,,,,,,,,,,,,,,,,,,,,,,,,,,,,,,,,,,,,,,,,,,,,,,914.9536956995726,914.9536956995726,0.008136800024658442,0.11448539979755878,3.0,6.340875599998981,,,,,,,,,,,,,,8755,Moral,2025-02-19_13h33.32.448,MoralCondition_v2,2022.2.5,30.00936591406689,
14,0,14,0,5,0,5,0,,,,,,,,,,,,,,,,,,,,,,,,,,,,,,,,,,,,,,,,,,,,,,,,,,,,,921.3204357996583,921.3204357996583,0.0068803997710347176,0.09824839979410172,5.0,3.626151599921286,,,,,,,,,,,,,,8755,Moral,2025-02-19_13h33.32.448,MoralCondition_v2,2022.2.5,30.00936591406689,
14,0,14,0,6,0,6,0,,,,,,,,,,,,,,,,,,,,,,,,,,,,,,,,,,,,,,,,,,,,,,,,,,,,,924.9870108999312,924.9870108999312,0.006936800200492144,0.09931140020489693,1.0,2.2602055999450386,,,,,,,,,,,,,,8755,Moral,2025-02-19_13h33.32.448,MoralCondition_v2,2022.2.5,30.00936591406689,
14,0,14,0,,,,,,,,,,,,,,,,,,,,,,,,,,,,,,,,,,,,,,,,,,,,,,,,,,,,,,,,,,,,,,,927.2870021997951,927.2870021997951,0.0007107001729309559,0.09922470012679696,1.0,2.099614600185305,,,,,,,,8755,Moral,2025-02-19_13h33.32.448,MoralCondition_v2,2022.2.5,30.00936591406689,
15,0,15,0,0,0,0,0,,,,,,,,,,,,,,,,,,,,,,929.4205495999195,0.00013229995965957642,0.09907150035724044,935.4203873998486,5.999035099986941,935.5869725998491,935.5869725998491,0.059974499978125095,0.16573800006881356,5.999024000018835,941.6869578999467,941.6869578999467,941.6869578999467,0.056302300188690424,0.16590060014277697,947.386993299704,947.586973299738,5.999040400143713,6.099182500038296,953.5871574999765,11.999210800044239,953.7202792996541,953.7202792996541,0.00016269972547888756,0.09917229972779751,down,1.2393767000176013,955.0036139995791,1.910002902150154e-05,0.09932810021564364,,961.0202500997111,961.0202500997111,0.025089900009334087,0.11598410038277507,5.0,4.325163600035012,,,,,,,6.099032800178975,941.5869851997122,941.5869851997122,953.686930899974,953.686930899974,6.0990615002810955,12.099005099851638,8755,Moral,2025-02-19_13h33.32.448,MoralCondition_v2,2022.2.5,30.00936591406689,
15,0,15,0,1,0,1,0,,,,,,,,,,,,,,,,,,,,,,,,,,,,,,,,,,,,,,,,,,,,,,,,,,,,,965.386905499734,965.386905499734,0.00657209986820817,0.09921849984675646,5.0,2.427212500013411,,,,,,,,,,,,,,8755,Moral,2025-02-19_13h33.32.448,MoralCondition_v2,2022.2.5,30.00936591406689,
15,0,15,0,2,0,2,0,,,,,,,,,,,,,,,,,,,,,,,,,,,,,,,,,,,,,,,,,,,,,,,,,,,,,967.8535486999899,967.8535486999899,0.006629900075495243,0.09921899996697903,5.0,5.4268788998015225,,,,,,,,,,,,,,8755,Moral,2025-02-19_13h33.32.448,MoralCondition_v2,2022.2.5,30.00936591406689,
15,0,15,0,3,0,3,0,,,,,,,,,,,,,,,,,,,,,,,,,,,,,,,,,,,,,,,,,,,,,,,,,,,,,973.3200494996272,973.3200494996272,0.008709900081157684,0.0986957997083664,1.0,2.1910867001861334,,,,,,,,,,,,,,8755,Moral,2025-02-19_13h33.32.448,MoralCondition_v2,2022.2.5,30.00936591406689,
15,0,15,0,4,0,4,0,,,,,,,,,,,,,,,,,,,,,,,,,,,,,,,,,,,,,,,,,,,,,,,,,,,,,975.5704745999537,975.5704745999537,0.00815899996086955,0.11421649996191263,5.0,5.540340899955481,,,,,,,,,,,,,,8755,Moral,2025-02-19_13h33.32.448,MoralCondition_v2,2022.2.5,30.00936591406689,
15,0,15,0,5,0,5,0,,,,,,,,,,,,,,,,,,,,,,,,,,,,,,,,,,,,,,,,,,,,,,,,,,,,,981.1367454999126,981.1367454999126,0.00814920011907816,0.09786329977214336,5.0,3.257566999644041,,,,,,,,,,,,,,8755,Moral,2025-02-19_13h33.32.448,MoralCondition_v2,2022.2.5,30.00936591406689,
15,0,15,0,6,0,6,0,,,,,,,,,,,,,,,,,,,,,,,,,,,,,,,,,,,,,,,,,,,,,,,,,,,,,984.4368473999202,984.4368473999202,0.006540500093251467,0.09935070015490055,5.0,2.5275999000295997,,,,,,,,,,,,,,8755,Moral,2025-02-19_13h33.32.448,MoralCondition_v2,2022.2.5,30.00936591406689,
15,0,15,0,,,,,,,,,,,,,,,,,,,,,,,,,,,,,,,,,,,,,,,,,,,,,,,,,,,,,,,,,,,,,,,987.0033907997422,987.0033907997422,0.0007926998659968376,0.09849940007552505,1.0,3.1322123003192246,,,,,,,,8755,Moral,2025-02-19_13h33.32.448,MoralCondition_v2,2022.2.5,30.00936591406689,
16,0,16,0,0,0,0,0,,,,,,,,,,,,,,,,,,,,,,990.1701752999797,0.0003670002333819866,0.09710580017417669,996.1701053995639,6.030528699979186,996.3534522997215,996.3534522997215,0.06506949989125133,0.18073289981111884,6.013793500140309,1002.4370511998422,1002.4370511998422,1002.4370511998422,0.06364159984514117,0.16393500007689,1008.1368584996089,1008.3699704995379,6.030386500060558,6.130542799830437,1014.370013399981,12.030519799795002,1014.4866699995473,1014.4866699995473,0.014088799711316824,0.11376959970220923,down,1.17692849971354,1015.7200336996466,4.390021786093712e-05,0.09794260002672672,,1021.7365108998492,1021.7365108998492,0.025103900115936995,0.11459559993818402,1.0,4.2904699998907745,,,,,,,,1002.336558799725,1002.336558799725,1014.4199824999087,1014.4199824999087,,,8755,Moral,2025-02-19_13h33.32.448,MoralCondition_v2,2022.2.5,30.00936591406689,
16,0,16,0,1,0,1,0,,,,,,,,,,,,,,,,,,,,,,,,,,,,,,,,,,,,,,,,,,,,,,,,,,,,,1026.069998999592,1026.069998999592,0.007947100326418877,0.09766380023211241,5.0,6.690907400101423,,,,,,,,,,,,,,8755,Moral,2025-02-19_13h33.32.448,MoralCondition_v2,2022.2.5,30.00936591406689,
16,0,16,0,2,0,2,0,,,,,,,,,,,,,,,,,,,,,,,,,,,,,,,,,,,,,,,,,,,,,,,,,,,,,1032.8032286996022,1032.8032286996022,0.007014300208538771,0.09920960012823343,5.0,10.893284699879587,,,,,,,,,,,,,,8755,Moral,2025-02-19_13h33.32.448,MoralCondition_v2,2022.2.5,30.00936591406689,
16,0,16,0,3,0,3,0,,,,,,,,,,,,,,,,,,,,,,,,,,,,,,,,,,,,,,,,,,,,,,,,,,,,,1043.7364700995386,1043.7364700995386,0.0075795999728143215,0.09787619998678565,5.0,2.024909300263971,,,,,,,,,,,,,,8755,Moral,2025-02-19_13h33.32.448,MoralCondition_v2,2022.2.5,30.00936591406689,
16,0,16,0,4,0,4,0,,,,,,,,,,,,,,,,,,,,,,,,,,,,,,,,,,,,,,,,,,,,,,,,,,,,,1045.8033329998143,1045.8033329998143,0.007087599951773882,0.09826499968767166,5.0,2.9255114998668432,,,,,,,,,,,,,,8755,Moral,2025-02-19_13h33.32.448,MoralCondition_v2,2022.2.5,30.00936591406689,
16,0,16,0,5,0,5,0,,,,,,,,,,,,,,,,,,,,,,,,,,,,,,,,,,,,,,,,,,,,,,,,,,,,,1048.7697474998422,1048.7697474998422,0.007021999917924404,0.09903689986094832,5.0,1.7597461999394,,,,,,,,,,,,,,8755,Moral,2025-02-19_13h33.32.448,MoralCondition_v2,2022.2.5,30.00936591406689,
16,0,16,0,6,0,6,0,,,,,,,,,,,,,,,,,,,,,,,,,,,,,,,,,,,,,,,,,,,,,,,,,,,,,1050.5696282996796,1050.5696282996796,0.0076824999414384365,0.0975359003059566,4.0,2.1242702999152243,,,,,,,,,,,,,,8755,Moral,2025-02-19_13h33.32.448,MoralCondition_v2,2022.2.5,30.00936591406689,
16,0,16,0,,,,,,,,,,,,,,,,,,,,,,,,,,,,,,,,,,,,,,,,,,,,,,,,,,,,,,,,,,,,,,,1052.7365214996971,1052.7365214996971,0.001044000033289194,0.09819799987599254,1.0,3.8651598999276757,,,,,,,,8755,Moral,2025-02-19_13h33.32.448,MoralCondition_v2,2022.2.5,30.00936591406689,
17,0,17,0,0,0,0,0,,,,,,,,,,,,,,,,,,,,,,1056.6365262996405,0.0003788997419178486,0.09754069987684488,1062.6531385998242,6.0143807996064425,1062.8200018997304,1062.8200018997304,0.06977219972759485,0.1809568996541202,6.014167499728501,1068.9030968998559,1068.9030968998559,1068.9030968998559,0.06363119976595044,0.16441949969157577,1074.603071499616,1074.8363974997774,6.030808999668807,6.130792499519885,1080.8366903997958,12.031089499592781,1080.9528751997277,1080.9528751997277,0.030702599324285984,0.11408519931137562,up,1.6545831002295017,1082.6530750999227,4.559988155961037e-05,0.09796159993857145,,1088.6866307999007,1088.6866307999007,0.026063899975270033,0.13131899992004037,3.0,3.6062119998969138,,,,,,,,1068.8197831995785,1068.8197831995785,1080.9032447999343,1080.9032447999343,,,8755,Moral,2025-02-19_13h33.32.448,MoralCondition_v2,2022.2.5,30.00936591406689,
17,0,17,0,1,0,1,0,,,,,,,,,,,,,,,,,,,,,,,,,,,,,,,,,,,,,,,,,,,,,,,,,,,,,1092.3195037995465,1092.3195037995465,0.006540100090205669,0.09951019985601306,3.0,2.3270963998511434,,,,,,,,,,,,,,8755,Moral,2025-02-19_13h33.32.448,MoralCondition_v2,2022.2.5,30.00936591406689,
17,0,17,0,2,0,2,0,,,,,,,,,,,,,,,,,,,,,,,,,,,,,,,,,,,,,,,,,,,,,,,,,,,,,1094.6862569996156,1094.6862569996156,0.006589600350707769,0.09937140019610524,3.0,1.9602057998999953,,,,,,,,,,,,,,8755,Moral,2025-02-19_13h33.32.448,MoralCondition_v2,2022.2.5,30.00936591406689,
17,0,17,0,3,0,3,0,,,,,,,,,,,,,,,,,,,,,,,,,,,,,,,,,,,,,,,,,,,,,,,,,,,,,1096.7030931999907,1096.7030931999907,0.007951599545776844,0.11398389982059598,1.0,2.3070650002919137,,,,,,,,,,,,,,8755,Moral,2025-02-19_13h33.32.448,MoralCondition_v2,2022.2.5,30.00936591406689,
17,0,17,0,4,0,4,0,,,,,,,,,,,,,,,,,,,,,,,,,,,,,,,,,,,,,,,,,,,,,,,,,,,,,1099.0362858995795,1099.0362858995795,0.007627000100910664,0.097921600099653,2.0,3.6582361003383994,,,,,,,,,,,,,,8755,Moral,2025-02-19_13h33.32.448,MoralCondition_v2,2022.2.5,30.00936591406689,
17,0,17,0,5,0,5,0,,,,,,,,,,,,,,,,,,,,,,,,,,,,,,,,,,,,,,,,,,,,,,,,,,,,,1102.7529332996346,1102.7529332996346,0.010464599821716547,0.11469989968463778,1.0,2.004923999775201,,,,,,,,,,,,,,8755,Moral,2025-02-19_13h33.32.448,MoralCondition_v2,2022.2.5,30.00936591406689,
17,0,17,0,6,0,6,0,,,,,,,,,,,,,,,,,,,,,,,,,,,,,,,,,,,,,,,,,,,,,,,,,,,,,1104.803139699623,1104.803139699623,0.008244399912655354,0.11381090013310313,7.0,3.606676199939102,,,,,,,,,,,,,,8755,Moral,2025-02-19_13h33.32.448,MoralCondition_v2,2022.2.5,30.00936591406689,
17,0,17,0,,,,,,,,,,,,,,,,,,,,,,,,,,,,,,,,,,,,,,,,,,,,,,,,,,,,,,,,,,,,,,,1108.4362798999064,1108.4362798999064,0.000703900121152401,0.09926570020616055,7.0,1.599819099996239,,,,,,,,8755,Moral,2025-02-19_13h33.32.448,MoralCondition_v2,2022.2.5,30.00936591406689,
18,0,18,0,0,0,0,0,,,,,,,,,,,,,,,,,,,,,,1110.0698002995923,0.0003526001237332821,0.09748440003022552,1116.086249999702,6.01396490028128,1116.252730799839,1116.252730799839,0.0733715002425015,0.18062300002202392,6.014118299819529,1122.3530762996525,1122.3530762996525,1122.3530762996525,0.07053609983995557,0.18089029984548688,1128.0528915999457,1128.2528511998244,6.013970599975437,6.113892300054431,1134.2531053996645,12.014249300118536,1134.3861246998422,1134.3861246998422,0.014233899768441916,0.11389739997684956,up,1.3412477001547813,1135.7694816999137,5.810009315609932e-05,0.09777859970927238,,1141.8031409997493,1141.8031409997493,0.025160799734294415,0.1310399998910725,1.0,2.0071334997192025,,,,,,,,1122.252884699963,1122.252884699963,1134.3528552995995,1134.3528552995995,,,8755,Moral,2025-02-19_13h33.32.448,MoralCondition_v2,2022.2.5,30.00936591406689,
18,0,18,0,1,0,1,0,,,,,,,,,,,,,,,,,,,,,,,,,,,,,,,,,,,,,,,,,,,,,,,,,,,,,1143.8359624999575,1143.8359624999575,0.007680200040340424,0.09923160029575229,7.0,2.3591883000917733,,,,,,,,,,,,,,8755,Moral,2025-02-19_13h33.32.448,MoralCondition_v2,2022.2.5,30.00936591406689,
18,0,18,0,2,0,2,0,,,,,,,,,,,,,,,,,,,,,,,,,,,,,,,,,,,,,,,,,,,,,,,,,,,,,1146.2360879997723,1146.2360879997723,0.006824899930506945,0.09932000003755093,3.0,3.4933764999732375,,,,,,,,,,,,,,8755,Moral,2025-02-19_13h33.32.448,MoralCondition_v2,2022.2.5,30.00936591406689,
18,0,18,0,3,0,3,0,,,,,,,,,,,,,,,,,,,,,,,,,,,,,,,,,,,,,,,,,,,,,,,,,,,,,1149.7696285997517,1149.7696285997517,0.006571500096470118,0.09921310003846884,3.0,1.6272487002424896,,,,,,,,,,,,,,8755,Moral,2025-02-19_13h33.32.448,MoralCondition_v2,2022.2.5,30.00936591406689,
18,0,18,0,4,0,4,0,,,,,,,,,,,,,,,,,,,,,,,,,,,,,,,,,,,,,,,,,,,,,,,,,,,,,1151.4527660999447,1151.4527660999447,0.007994600106030703,0.11424640007317066,2.0,2.50705559970811,,,,,,,,,,,,,,8755,Moral,2025-02-19_13h33.32.448,MoralCondition_v2,2022.2.5,30.00936591406689,
18,0,18,0,5,0,5,0,,,,,,,,,,,,,,,,,,,,,,,,,,,,,,,,,,,,,,,,,,,,,,,,,,,,,1153.9860197999515,1153.9860197999515,0.007542899809777737,0.09792719967663288,2.0,2.058251299895346,,,,,,,,,,,,,,8755,Moral,2025-02-19_13h33.32.448,MoralCondition_v2,2022.2.5,30.00936591406689,
18,0,18,0,6,0,6,0,,,,,,,,,,,,,,,,,,,,,,,,,,,,,,,,,,,,,,,,,,,,,,,,,,,,,1156.086170999799,1156.086170999799,0.007185699883848429,0.09773219982162118,1.0,1.7584241000004113,,,,,,,,,,,,,,8755,Moral,2025-02-19_13h33.32.448,MoralCondition_v2,2022.2.5,30.00936591406689,
18,0,18,0,,,,,,,,,,,,,,,,,,,,,,,,,,,,,,,,,,,,,,,,,,,,,,,,,,,,,,,,,,,,,,,1157.886172999628,1157.886172999628,0.001264799851924181,0.09832009999081492,7.0,2.1645375001244247,,,,,,,,8755,Moral,2025-02-19_13h33.32.448,MoralCondition_v2,2022.2.5,30.00936591406689,
19,0,19,0,0,0,0,0,,,,,,,,,,,,,,,,,,,,,,1160.0861386996694,0.0002667997032403946,0.09778039995580912,1166.0861334996298,6.031271500047296,1166.2691834997386,1166.2691834997386,0.06617680005729198,0.18106979969888926,6.01441859966144,1172.3529678997584,1172.3529678997584,1172.3529678997584,0.06506789987906814,0.16464029951021075,1178.052616899833,1178.2859088997357,6.0310016996227205,6.131086999550462,1184.2859209999442,12.03101689973846,1184.4192601996474,1184.4192601996474,0.031193299684673548,0.13099039951339364,up,1.9960666000843048,1186.4692398998886,6.590038537979126e-05,0.09774850029498339,1192.4695996996015,1192.4695996996015,1192.4695996996015,0.0049692001193761826,0.09761530021205544,1.0,5.127155099995434,,,,,,,,1172.2693162998185,1172.2693162998185,1184.3525921995752,1184.3525921995752,,,8755,Moral,2025-02-19_13h33.32.448,MoralCondition_v2,2022.2.5,30.00936591406689,
19,0,19,0,1,0,1,0,,,,,,,,,,,,,,,,,,,,,,,,,,,,,,,,,,,,,,,,,,,,,,,,,,,,,1197.6357544995844,1197.6357544995844,0.00791190005838871,0.09749139985069633,7.0,1.9574194997549057,,,,,,,,,,,,,,8755,Moral,2025-02-19_13h33.32.448,MoralCondition_v2,2022.2.5,30.00936591406689,
19,0,19,0,2,0,2,0,,,,,,,,,,,,,,,,,,,,,,,,,,,,,,,,,,,,,,,,,,,,,,,,,,,,,1199.6525466996245,1199.6525466996245,0.009437600150704384,0.11551650008186698,1.0,1.940750400070101,,,,,,,,,,,,,,8755,Moral,2025-02-19_13h33.32.448,MoralCondition_v2,2022.2.5,30.00936591406689,
19,0,19,0,3,0,3,0,,,,,,,,,,,,,,,,,,,,,,,,,,,,,,,,,,,,,,,,,,,,,,,,,,,,,1201.6192081999034,1201.6192081999034,0.008234699722379446,0.09771250002086163,2.0,1.9905647998675704,,,,,,,,,,,,,,8755,Moral,2025-02-19_13h33.32.448,MoralCondition_v2,2022.2.5,30.00936591406689,
19,0,19,0,4,0,4,0,,,,,,,,,,,,,,,,,,,,,,,,,,,,,,,,,,,,,,,,,,,,,,,,,,,,,1203.652461799793,1203.652461799793,0.0066420999355614185,0.09926000004634261,1.0,1.6599873001687229,,,,,,,,,,,,,,8755,Moral,2025-02-19_13h33.32.448,MoralCondition_v2,2022.2.5,30.00936591406689,
19,0,19,0,5,0,5,0,,,,,,,,,,,,,,,,,,,,,,,,,,,,,,,,,,,,,,,,,,,,,,,,,,,,,1205.3523160996847,1205.3523160996847,0.006551299709826708,0.09934439975768328,2.0,2.62712230021134,,,,,,,,,,,,,,8755,Moral,2025-02-19_13h33.32.448,MoralCondition_v2,2022.2.5,30.00936591406689,
19,0,19,0,6,0,6,0,,,,,,,,,,,,,,,,,,,,,,,,,,,,,,,,,,,,,,,,,,,,,,,,,,,,,1208.035754499957,1208.035754499957,0.0090768001973629,0.11399640003219247,2.0,1.6059638997539878,,,,,,,,,,,,,,8755,Moral,2025-02-19_13h33.32.448,MoralCondition_v2,2022.2.5,30.00936591406689,
19,0,19,0,,,,,,,,,,,,,,,,,,,,,,,,,,,,,,,,,,,,,,,,,,,,,,,,,,,,,,,,,,,,,,,1209.6692450996488,1209.6692450996488,0.0006610001437366009,0.09906759997829795,7.0,1.7332117999903858,,,,,,,,8755,Moral,2025-02-19_13h33.32.448,MoralCondition_v2,2022.2.5,30.00936591406689,
