loop.thisRepN,loop.thisTrialN,loop.thisN,loop.thisIndex,evaluate_all_emotions.thisRepN,evaluate_all_emotions.thisTrialN,evaluate_all_emotions.thisN,evaluate_all_emotions.thisIndex,sync_beep_1.started,p_port.started,p_port.stopped,sync_beep_2.started,sync_beep_2.stopped,sync_beep_3.started,sync_beep_3.stopped,sync_beep_4.started,sync_beep_4.stopped,baseline.started,p_port_2.started,p_port_2.stopped,baseline.stopped,p_port_3.started,p_port_3.stopped,Game_Start_Text.started,p_port_4.started,p_port_4.stopped,key_resp.started,key_resp.keys,key_resp.rt,fixation_cross.started,p_port_5.started,p_port_5.stopped,fixation_cross.stopped,p_port_6.started,p_port_6.stopped,player_image_intro.started,player_name_intro.started,p_port_7.started,p_port_7.stopped,p_port_8.started,player_image_offer.started,player_name_offer.started,proposed_split.started,p_port_9.started,p_port_9.stopped,proposed_split.stopped,accept_reject.started,p_port_15.started,p_port_15.stopped,accept_reject.stopped,p_port_10.started,p_port_10.stopped,arrow_instructions.started,offer_choice.started,p_port_11.started,p_port_11.stopped,offer_choice.keys,offer_choice.rt,Instructions_Affinity_Score.started,p_port_12.started,p_port_12.stopped,Emotion_Image.started,AffinityScore.started,p_port_13.started,p_port_13.stopped,AffinityScore.response,AffinityScore.rt,Instruction.started,Moral_Disgust_Score.started,p_port_14.started,p_port_14.stopped,Moral_Disgust_Score.response,Moral_Disgust_Score.rt,player_image_offer.stopped,player_name_offer.stopped,Instructions_Affinity_Score.stopped,player_image_intro.stopped,player_name_intro.stopped,participant,session,date,expName,psychopyVersion,frameRate,
,,,,,,,,19.266952600097284,0.000820899847894907,0.10471719992347062,19.848718259879387,20.165423800004646,20.448771859914995,20.765395499998704,21.0653999598464,21.382295300019905,21.382295300019905,0.0016000999603420496,0.10490849986672401,36.36511989985593,15.004594399826601,15.08794999984093,36.448572099907324,0.0047128996811807156,0.10112489969469607,36.93198879994452,space,1.2449080001097172,,,,,,,,,,,,,,,,,,,,,,,,,,,,,,,,,,,,,,,,,,,,,,,,,,8768,Moral,2025-01-30_16h25.07.627,MoralCondition_v2,2022.2.5,29.962843091842064,
0,0,0,0,0,0,0,0,,,,,,,,,,,,,,,,,,,,,,38.21515229996294,0.0005204000044614077,0.09950720006600022,44.215396399842575,5.999958999920636,6.099625200033188,44.498531399993226,44.498531399993226,0.15141739998944104,0.2830925998277962,6.016382599947974,50.532066100044176,50.532066100044176,50.532066100044176,0.08202589978463948,0.2162997997365892,56.23196569993161,56.39863489987329,6.016413899837062,6.116396699799225,62.41551129985601,11.999657199718058,12.099716999800876,62.548658499959856,62.548658499959856,0.03326279972679913,0.13307629968039691,up,1.0361242000944912,63.64853170001879,4.440010525286198e-05,0.09777250001206994,69.68197989999317,69.68197989999317,0.026993400184437633,0.131180000025779,5.0,3.6053051999770105,,,,,,,,,,,,8768,Moral,2025-01-30_16h25.07.627,MoralCondition_v2,2022.2.5,29.962843091842064,
0,0,0,0,1,0,1,0,,,,,,,,,,,,,,,,,,,,,,,,,,,,,,,,,,,,,,,,,,,,,,,,,,,,,,73.31522680004127,73.31522680004127,0.010050100041553378,0.09829379990696907,6.0,2.289605800062418,,,,,,,,,,,,8768,Moral,2025-01-30_16h25.07.627,MoralCondition_v2,2022.2.5,29.962843091842064,
0,0,0,0,2,0,2,0,,,,,,,,,,,,,,,,,,,,,,,,,,,,,,,,,,,,,,,,,,,,,,,,,,,,,,75.64872189983726,75.64872189983726,0.008850899990648031,0.09924879996106029,5.0,1.924752000020817,,,,,,,,,,,,8768,Moral,2025-01-30_16h25.07.627,MoralCondition_v2,2022.2.5,29.962843091842064,
0,0,0,0,3,0,3,0,,,,,,,,,,,,,,,,,,,,,,,,,,,,,,,,,,,,,,,,,,,,,,,,,,,,,,77.63219040003605,77.63219040003605,0.00921420007944107,0.11577440006658435,5.0,27.84103239979595,,,,,,,,,,,,8768,Moral,2025-01-30_16h25.07.627,MoralCondition_v2,2022.2.5,29.962843091842064,
0,0,0,0,4,0,4,0,,,,,,,,,,,,,,,,,,,,,,,,,,,,,,,,,,,,,,,,,,,,,,,,,,,,,,105.49840039992705,105.49840039992705,0.008236800087615848,0.09942290000617504,5.0,8.425282899988815,,,,,,,,,,,,8768,Moral,2025-01-30_16h25.07.627,MoralCondition_v2,2022.2.5,29.962843091842064,
0,0,0,0,5,0,5,0,,,,,,,,,,,,,,,,,,,,,,,,,,,,,,,,,,,,,,,,,,,,,,,,,,,,,,113.98208409990184,113.98208409990184,0.011189799988642335,0.11472489987500012,5.0,40.10433269990608,,,,,,,,,,,,8768,Moral,2025-01-30_16h25.07.627,MoralCondition_v2,2022.2.5,29.962843091842064,
0,0,0,0,6,0,6,0,,,,,,,,,,,,,,,,,,,,,,,,,,,,,,,,,,,,,,,,,,,,,,,,,,,,,,154.13182300003245,154.13182300003245,0.019400800112634897,0.1143698999658227,3.0,6.496054399991408,,,,,,,,,,,,8768,Moral,2025-01-30_16h25.07.627,MoralCondition_v2,2022.2.5,29.962843091842064,
0,0,0,0,,,,,,,,,,,,,,,,,,,,,,,,,,,,,,,,,,,,,,,,,,,,,,,,,,,,,,,,,,,,,,,,160.66498270002194,160.66498270002194,0.0011356999166309834,0.09768830006942153,6.0,5.0646067999769,,,,,,8768,Moral,2025-01-30_16h25.07.627,MoralCondition_v2,2022.2.5,29.962843091842064,
1,0,1,0,0,0,0,0,,,,,,,,,,,,,,,,,,,,,,165.76510529988445,0.00023259990848600864,0.098017199896276,171.78177620004863,6.014612699858844,,172.0150452000089,172.0150452000089,0.1451436998322606,0.2479127999395132,6.014605199918151,178.0486322999932,178.0486322999932,178.0486322999932,0.07144919969141483,0.18129969970323145,183.74858599994332,183.94836869998835,6.014631299767643,6.114486099686474,189.94844369986095,12.014692499767989,,190.08187019987963,190.08187019987963,0.014816499780863523,0.11480589979328215,down,0.7030877000652254,190.84853249997832,5.259993486106396e-05,0.09752080007456243,196.86497789993882,196.86497789993882,0.010109000140801072,0.11442490015178919,5.0,2.271928400034085,,,,,,,190.04838519985788,190.04838519985788,196.86497789993882,,,8768,Moral,2025-01-30_16h25.07.627,MoralCondition_v2,2022.2.5,29.962843091842064,
1,0,1,0,1,0,1,0,,,,,,,,,,,,,,,,,,,,,,,,,,,,,,,,,,,,,,,,,,,,,,,,,,,,,,199.16505849990062,199.16505849990062,0.007358500035479665,0.09828739985823631,1.0,2.0253151999786496,,,,,,,,,,,,8768,Moral,2025-01-30_16h25.07.627,MoralCondition_v2,2022.2.5,29.962843091842064,
1,0,1,0,2,0,2,0,,,,,,,,,,,,,,,,,,,,,,,,,,,,,,,,,,,,,,,,,,,,,,,,,,,,,,201.23154109995812,201.23154109995812,0.006638099905103445,0.09928709990344942,4.0,3.727013999829069,,,,,,,,,,,,8768,Moral,2025-01-30_16h25.07.627,MoralCondition_v2,2022.2.5,29.962843091842064,
1,0,1,0,3,0,3,0,,,,,,,,,,,,,,,,,,,,,,,,,,,,,,,,,,,,,,,,,,,,,,,,,,,,,,205.01525569986552,205.01525569986552,0.010329600190743804,0.11405580001883209,4.0,1.438045399961993,,,,,,,,,,,,8768,Moral,2025-01-30_16h25.07.627,MoralCondition_v2,2022.2.5,29.962843091842064,
1,0,1,0,4,0,4,0,,,,,,,,,,,,,,,,,,,,,,,,,,,,,,,,,,,,,,,,,,,,,,,,,,,,,,206.48157649999484,206.48157649999484,0.006784600205719471,0.09922640002332628,2.0,2.2935357000678778,,,,,,,,,,,,8768,Moral,2025-01-30_16h25.07.627,MoralCondition_v2,2022.2.5,29.962843091842064,
1,0,1,0,5,0,5,0,,,,,,,,,,,,,,,,,,,,,,,,,,,,,,,,,,,,,,,,,,,,,,,,,,,,,,208.8150460999459,208.8150460999459,0.006826600059866905,0.09883520007133484,5.0,1.7928530001081526,,,,,,,,,,,,8768,Moral,2025-01-30_16h25.07.627,MoralCondition_v2,2022.2.5,29.962843091842064,
1,0,1,0,6,0,6,0,,,,,,,,,,,,,,,,,,,,,,,,,,,,,,,,,,,,,,,,,,,,,,,,,,,,,,210.64824309991673,210.64824309991673,0.006958999903872609,0.09910689992830157,6.0,2.5601753001101315,,,,,,,,,,,,8768,Moral,2025-01-30_16h25.07.627,MoralCondition_v2,2022.2.5,29.962843091842064,
1,0,1,0,,,,,,,,,,,,,,,,,,,,,,,,,,,,,,,,,,,,,,,,,,,,,,,,,,,,,,,,,,,,,,,,213.24842870002612,213.24842870002612,0.001468299888074398,0.09794049989432096,2.0,2.1641370998695493,,,,,,8768,Moral,2025-01-30_16h25.07.627,MoralCondition_v2,2022.2.5,29.962843091842064,
2,0,2,0,0,0,0,0,,,,,,,,,,,,,,,,,,,,,,215.4483608000446,0.0002856999635696411,0.09737859992310405,221.46490000002086,6.01420749980025,,221.6651909998618,221.6651909998618,0.10094779985956848,0.21436249976977706,6.014382099732757,227.73158989986405,227.73158989986405,227.73158989986405,0.07204059977084398,0.18076669960282743,233.4318376998417,233.63183559989557,6.014461299637333,6.1143446997739375,239.63162010000087,12.014255799585953,,239.76494410005398,239.76494410005398,0.014488599495962262,0.11414649966172874,up,2.492526800138876,242.31491800001822,4.1499966755509377e-05,0.0977211999706924,248.33162439987063,248.33162439987063,0.0268004999961704,0.11416690004989505,5.0,8.188400499988347,,,,,,,239.7315801999066,239.7315801999066,,,,8768,Moral,2025-01-30_16h25.07.627,MoralCondition_v2,2022.2.5,29.962843091842064,
2,0,2,0,1,0,1,0,,,,,,,,,,,,,,,,,,,,,,,,,,,,,,,,,,,,,,,,,,,,,,,,,,,,,,256.56493890006095,256.56493890006095,0.007544999942183495,0.09788169991225004,6.0,1.32469220017083,,,,,,,,,,,,8768,Moral,2025-01-30_16h25.07.627,MoralCondition_v2,2022.2.5,29.962843091842064,
2,0,2,0,2,0,2,0,,,,,,,,,,,,,,,,,,,,,,,,,,,,,,,,,,,,,,,,,,,,,,,,,,,,,,257.93140889983624,257.93140889983624,0.009213800076395273,0.09928219998255372,4.0,1.6576621001586318,,,,,,,,,,,,8768,Moral,2025-01-30_16h25.07.627,MoralCondition_v2,2022.2.5,29.962843091842064,
2,0,2,0,3,0,3,0,,,,,,,,,,,,,,,,,,,,,,,,,,,,,,,,,,,,,,,,,,,,,,,,,,,,,,259.64851600001566,259.64851600001566,0.0076229998376220465,0.11455919989384711,4.0,2.307940599974245,,,,,,,,,,,,8768,Moral,2025-01-30_16h25.07.627,MoralCondition_v2,2022.2.5,29.962843091842064,
2,0,2,0,4,0,4,0,,,,,,,,,,,,,,,,,,,,,,,,,,,,,,,,,,,,,,,,,,,,,,,,,,,,,,261.9814869000111,261.9814869000111,0.006977899931371212,0.09937660000286996,5.0,4.260046100011095,,,,,,,,,,,,8768,Moral,2025-01-30_16h25.07.627,MoralCondition_v2,2022.2.5,29.962843091842064,
2,0,2,0,5,0,5,0,,,,,,,,,,,,,,,,,,,,,,,,,,,,,,,,,,,,,,,,,,,,,,,,,,,,,,266.2814622998703,266.2814622998703,0.007531599840149283,0.09771539992652833,5.0,1.7578112999908626,,,,,,,,,,,,8768,Moral,2025-01-30_16h25.07.627,MoralCondition_v2,2022.2.5,29.962843091842064,
2,0,2,0,6,0,6,0,,,,,,,,,,,,,,,,,,,,,,,,,,,,,,,,,,,,,,,,,,,,,,,,,,,,,,268.08142279996537,268.08142279996537,0.007526000030338764,0.09755080007016659,1.0,1.8578172998968512,,,,,,,,,,,,8768,Moral,2025-01-30_16h25.07.627,MoralCondition_v2,2022.2.5,29.962843091842064,
2,0,2,0,,,,,,,,,,,,,,,,,,,,,,,,,,,,,,,,,,,,,,,,,,,,,,,,,,,,,,,,,,,,,,,,269.98148830002174,269.98148830002174,0.0007396999280899763,0.09896679990924895,3.0,2.0997673999518156,,,,,,8768,Moral,2025-01-30_16h25.07.627,MoralCondition_v2,2022.2.5,29.962843091842064,
3,0,3,0,0,0,0,0,,,,,,,,,,,,,,,,,,,,,,272.1148782998789,0.0001354999840259552,0.09899490000680089,278.13150159991346,6.015642400132492,,278.38133300002664,278.38133300002664,0.16084969998337328,0.26582100009545684,6.03216139995493,284.41507839993574,284.41507839993574,284.41507839993574,0.08640329982154071,0.1991407999303192,290.1147830998525,290.3145757999737,6.032097399933264,6.132272299844772,296.31482289987616,11.999150599818677,12.098903599893674,296.41477689985186,296.41477689985186,-0.00020410027354955673,0.0988965998403728,down,0.5784767000004649,297.048063499853,4.2300205677747726e-05,0.09804010018706322,303.04791389987804,303.04791389987804,0.008971800096333027,0.09805000014603138,1.0,1.5234456998296082,,,,,,,296.41477689985186,296.41477689985186,303.04791389987804,,,8768,Moral,2025-01-30_16h25.07.627,MoralCondition_v2,2022.2.5,29.962843091842064,
3,0,3,0,1,0,1,0,,,,,,,,,,,,,,,,,,,,,,,,,,,,,,,,,,,,,,,,,,,,,,,,,,,,,,304.61470080004074,304.61470080004074,0.007708400022238493,0.09799889987334609,5.0,1.524944799952209,,,,,,,,,,,,8768,Moral,2025-01-30_16h25.07.627,MoralCondition_v2,2022.2.5,29.962843091842064,
3,0,3,0,2,0,2,0,,,,,,,,,,,,,,,,,,,,,,,,,,,,,,,,,,,,,,,,,,,,,,,,,,,,,,306.18140510004014,306.18140510004014,0.007532399846240878,0.09826459991745651,4.0,1.7250864999368787,,,,,,,,,,,,8768,Moral,2025-01-30_16h25.07.627,MoralCondition_v2,2022.2.5,29.962843091842064,
3,0,3,0,3,0,3,0,,,,,,,,,,,,,,,,,,,,,,,,,,,,,,,,,,,,,,,,,,,,,,,,,,,,,,307.9647464998998,307.9647464998998,0.007761199958622456,0.11434129998087883,4.0,1.0411532002035528,,,,,,,,,,,,8768,Moral,2025-01-30_16h25.07.627,MoralCondition_v2,2022.2.5,29.962843091842064,
3,0,3,0,4,0,4,0,,,,,,,,,,,,,,,,,,,,,,,,,,,,,,,,,,,,,,,,,,,,,,,,,,,,,,309.03129479987547,309.03129479987547,0.007917000213637948,0.09790100017562509,5.0,1.4911122999619693,,,,,,,,,,,,8768,Moral,2025-01-30_16h25.07.627,MoralCondition_v2,2022.2.5,29.962843091842064,
3,0,3,0,5,0,5,0,,,,,,,,,,,,,,,,,,,,,,,,,,,,,,,,,,,,,,,,,,,,,,,,,,,,,,310.5816591999028,310.5816591999028,0.00799029995687306,0.11410550004802644,4.0,1.7073087999597192,,,,,,,,,,,,8768,Moral,2025-01-30_16h25.07.627,MoralCondition_v2,2022.2.5,29.962843091842064,
3,0,3,0,6,0,6,0,,,,,,,,,,,,,,,,,,,,,,,,,,,,,,,,,,,,,,,,,,,,,,,,,,,,,,312.314785100054,312.314785100054,0.006856400053948164,0.09916780004277825,6.0,2.7939766999334097,,,,,,,,,,,,8768,Moral,2025-01-30_16h25.07.627,MoralCondition_v2,2022.2.5,29.962843091842064,
3,0,3,0,,,,,,,,,,,,,,,,,,,,,,,,,,,,,,,,,,,,,,,,,,,,,,,,,,,,,,,,,,,,,,,,315.148134799907,315.148134799907,0.0012262999080121517,0.09817119990475476,3.0,1.9647305000107735,,,,,,8768,Moral,2025-01-30_16h25.07.627,MoralCondition_v2,2022.2.5,29.962843091842064,
4,0,4,0,0,0,0,0,,,,,,,,,,,,,,,,,,,,,,317.1484029998537,0.00013569998554885387,0.09931330010294914,323.1312730999198,5.999172100098804,6.082392500014976,323.3645909000188,323.3645909000188,0.09819769999012351,0.21608319994993508,6.015792199876159,329.4313904000446,329.4313904000446,329.4313904000446,0.07327989977784455,0.182766999816522,335.13119870005175,335.33140649995767,6.015917899785563,6.1158267999999225,341.33135039987974,12.015860899817199,,341.46460770000704,341.46460770000704,0.016076999716460705,0.11578379990532994,down,0.5199958002194762,342.03129379986785,3.6400044336915016e-05,0.11424560006707907,348.06461680005305,348.06461680005305,0.025700900005176663,0.13125460012815893,5.0,2.873503000009805,,,,,,,341.43142619985156,341.43142619985156,,,,8768,Moral,2025-01-30_16h25.07.627,MoralCondition_v2,2022.2.5,29.962843091842064,
4,0,4,0,1,0,1,0,,,,,,,,,,,,,,,,,,,,,,,,,,,,,,,,,,,,,,,,,,,,,,,,,,,,,,350.96475509996526,350.96475509996526,0.007765199989080429,0.09776520007289946,5.0,1.2574251999612898,,,,,,,,,,,,8768,Moral,2025-01-30_16h25.07.627,MoralCondition_v2,2022.2.5,29.962843091842064,
4,0,4,0,2,0,2,0,,,,,,,,,,,,,,,,,,,,,,,,,,,,,,,,,,,,,,,,,,,,,,,,,,,,,,352.26465979986824,352.26465979986824,0.005314699839800596,0.09924179990775883,6.0,1.495102799963206,,,,,,,,,,,,8768,Moral,2025-01-30_16h25.07.627,MoralCondition_v2,2022.2.5,29.962843091842064,
4,0,4,0,3,0,3,0,,,,,,,,,,,,,,,,,,,,,,,,,,,,,,,,,,,,,,,,,,,,,,,,,,,,,,353.79812190006487,353.79812190006487,0.007728000171482563,0.09827530011534691,6.0,0.9249128999654204,,,,,,,,,,,,8768,Moral,2025-01-30_16h25.07.627,MoralCondition_v2,2022.2.5,29.962843091842064,
4,0,4,0,4,0,4,0,,,,,,,,,,,,,,,,,,,,,,,,,,,,,,,,,,,,,,,,,,,,,,,,,,,,,,354.7645320999436,354.7645320999436,0.00653219991363585,0.09836979978717864,6.0,0.7596724999602884,,,,,,,,,,,,8768,Moral,2025-01-30_16h25.07.627,MoralCondition_v2,2022.2.5,29.962843091842064,
4,0,4,0,5,0,5,0,,,,,,,,,,,,,,,,,,,,,,,,,,,,,,,,,,,,,,,,,,,,,,,,,,,,,,355.56479319999926,355.56479319999926,0.0073148999363183975,0.09738609986379743,1.0,1.991203100187704,,,,,,,,,,,,8768,Moral,2025-01-30_16h25.07.627,MoralCondition_v2,2022.2.5,29.962843091842064,
4,0,4,0,6,0,6,0,,,,,,,,,,,,,,,,,,,,,,,,,,,,,,,,,,,,,,,,,,,,,,,,,,,,,,357.59786310000345,357.59786310000345,0.007682400057092309,0.09803489991463721,3.0,1.9581538999918848,,,,,,,,,,,,8768,Moral,2025-01-30_16h25.07.627,MoralCondition_v2,2022.2.5,29.962843091842064,
4,0,4,0,,,,,,,,,,,,,,,,,,,,,,,,,,,,,,,,,,,,,,,,,,,,,,,,,,,,,,,,,,,,,,,,359.59792199986987,359.59792199986987,0.0007432000711560249,0.09921750007197261,1.0,1.6332070999778807,,,,,,8768,Moral,2025-01-30_16h25.07.627,MoralCondition_v2,2022.2.5,29.962843091842064,
5,0,5,0,0,0,0,0,,,,,,,,,,,,,,,,,,,,,,361.2645415000152,0.00014530005864799023,0.0990516000892967,367.2812361998949,6.015696000074968,,367.4477694998495,367.4477694998495,0.06803069985471666,0.18233769992366433,6.015643599908799,373.54797549988143,373.54797549988143,373.54797549988143,0.07121879979968071,0.18261019978672266,379.247853100067,379.44782479992136,6.015670399880037,6.1156814999412745,385.4479258998763,12.015761599875987,,385.58133429987356,385.58133429987356,0.015763199655339122,0.115654899738729,up,1.1082986001856625,386.74784959992394,3.520003519952297e-05,0.09813679987564683,392.78143249987625,392.78143249987625,0.025586299831047654,0.13138769986107945,5.0,2.2067847000434995,,,,,,,385.5477964000311,385.5477964000311,,373.44788099988364,373.44788099988364,8768,Moral,2025-01-30_16h25.07.627,MoralCondition_v2,2022.2.5,29.962843091842064,
5,0,5,0,1,0,1,0,,,,,,,,,,,,,,,,,,,,,,,,,,,,,,,,,,,,,,,,,,,,,,,,,,,,,,395.0150671999436,395.0150671999436,0.007958600064739585,0.09719710005447268,3.0,1.523530599894002,,,,,,,,,,,,8768,Moral,2025-01-30_16h25.07.627,MoralCondition_v2,2022.2.5,29.962843091842064,
5,0,5,0,2,0,2,0,,,,,,,,,,,,,,,,,,,,,,,,,,,,,,,,,,,,,,,,,,,,,,,,,,,,,,396.5812899998855,396.5812899998855,0.00729249999858439,0.09748940006829798,3.0,1.3259900999255478,,,,,,,,,,,,8768,Moral,2025-01-30_16h25.07.627,MoralCondition_v2,2022.2.5,29.962843091842064,
5,0,5,0,3,0,3,0,,,,,,,,,,,,,,,,,,,,,,,,,,,,,,,,,,,,,,,,,,,,,,,,,,,,,,397.9483690999914,397.9483690999914,0.006367800058797002,0.09877130016684532,1.0,1.5598818000871688,,,,,,,,,,,,8768,Moral,2025-01-30_16h25.07.627,MoralCondition_v2,2022.2.5,29.962843091842064,
5,0,5,0,4,0,4,0,,,,,,,,,,,,,,,,,,,,,,,,,,,,,,,,,,,,,,,,,,,,,,,,,,,,,,399.54786519985646,399.54786519985646,0.006475700065493584,0.09928189986385405,1.0,1.2602544999681413,,,,,,,,,,,,8768,Moral,2025-01-30_16h25.07.627,MoralCondition_v2,2022.2.5,29.962843091842064,
5,0,5,0,5,0,5,0,,,,,,,,,,,,,,,,,,,,,,,,,,,,,,,,,,,,,,,,,,,,,,,,,,,,,,400.8478800000157,400.8478800000157,0.007301100064069033,0.0986115001142025,2.0,1.4589551000390202,,,,,,,,,,,,8768,Moral,2025-01-30_16h25.07.627,MoralCondition_v2,2022.2.5,29.962843091842064,
5,0,5,0,6,0,6,0,,,,,,,,,,,,,,,,,,,,,,,,,,,,,,,,,,,,,,,,,,,,,,,,,,,,,,402.34777410002425,402.34777410002425,0.007275800220668316,0.099192000227049,2.0,1.326074399985373,,,,,,,,,,,,8768,Moral,2025-01-30_16h25.07.627,MoralCondition_v2,2022.2.5,29.962843091842064,
5,0,5,0,,,,,,,,,,,,,,,,,,,,,,,,,,,,,,,,,,,,,,,,,,,,,,,,,,,,,,,,,,,,,,,,403.71443119994365,403.71443119994365,0.0012990001123398542,0.09775290009565651,5.0,2.8976044999435544,,,,,,8768,Moral,2025-01-30_16h25.07.627,MoralCondition_v2,2022.2.5,29.962843091842064,
6,0,6,0,0,0,0,0,,,,,,,,,,,,,,,,,,,,,,406.6480971998535,0.00025809998624026775,0.09830960002727807,412.6309470999986,6.014484999934211,,412.8311473999638,412.8311473999638,0.07030129991471767,0.18145509995520115,6.01456439984031,418.9310459999833,418.9310459999833,418.9310459999833,0.0725443996489048,0.18156329984776676,424.63106160005555,424.83085389994085,6.014328099787235,6.114648799644783,430.8310571999755,12.014614999759942,,430.96438489994034,430.96438489994034,0.014780899742618203,0.11452429974451661,down,0.49252820014953613,431.4978437998798,3.329990431666374e-05,0.09805299993604422,437.51426859991625,437.51426859991625,0.020892699947580695,0.11457249987870455,5.0,2.294704800006002,,,,,,,430.9310677999165,430.9310677999165,,418.83106959983706,418.83106959983706,8768,Moral,2025-01-30_16h25.07.627,MoralCondition_v2,2022.2.5,29.962843091842064,
6,0,6,0,1,0,1,0,,,,,,,,,,,,,,,,,,,,,,,,,,,,,,,,,,,,,,,,,,,,,,,,,,,,,,439.86428959993646,439.86428959993646,0.009474300080910325,0.11426900001242757,5.0,1.0388414000626653,,,,,,,,,,,,8768,Moral,2025-01-30_16h25.07.627,MoralCondition_v2,2022.2.5,29.962843091842064,
6,0,6,0,2,0,2,0,,,,,,,,,,,,,,,,,,,,,,,,,,,,,,,,,,,,,,,,,,,,,,,,,,,,,,440.9477136998903,440.9477136998903,0.009682800155133009,0.11460259999148548,5.0,0.9392603000160307,,,,,,,,,,,,8768,Moral,2025-01-30_16h25.07.627,MoralCondition_v2,2022.2.5,29.962843091842064,
6,0,6,0,3,0,3,0,,,,,,,,,,,,,,,,,,,,,,,,,,,,,,,,,,,,,,,,,,,,,,,,,,,,,,441.91422539995983,441.91422539995983,0.006915000034496188,0.09922710014507174,6.0,1.0933533001225442,,,,,,,,,,,,8768,Moral,2025-01-30_16h25.07.627,MoralCondition_v2,2022.2.5,29.962843091842064,
6,0,6,0,4,0,4,0,,,,,,,,,,,,,,,,,,,,,,,,,,,,,,,,,,,,,,,,,,,,,,,,,,,,,,443.0645730998367,443.0645730998367,0.008064300054684281,0.11352959997020662,6.0,0.8061020001769066,,,,,,,,,,,,8768,Moral,2025-01-30_16h25.07.627,MoralCondition_v2,2022.2.5,29.962843091842064,
6,0,6,0,5,0,5,0,,,,,,,,,,,,,,,,,,,,,,,,,,,,,,,,,,,,,,,,,,,,,,,,,,,,,,443.8974615999032,443.8974615999032,0.007675300119444728,0.09769399999640882,1.0,1.4242465000133961,,,,,,,,,,,,8768,Moral,2025-01-30_16h25.07.627,MoralCondition_v2,2022.2.5,29.962843091842064,
6,0,6,0,6,0,6,0,,,,,,,,,,,,,,,,,,,,,,,,,,,,,,,,,,,,,,,,,,,,,,,,,,,,,,445.36428599990904,445.36428599990904,0.006725099869072437,0.09902089997194707,3.0,2.4934435000177473,,,,,,,,,,,,8768,Moral,2025-01-30_16h25.07.627,MoralCondition_v2,2022.2.5,29.962843091842064,
6,0,6,0,,,,,,,,,,,,,,,,,,,,,,,,,,,,,,,,,,,,,,,,,,,,,,,,,,,,,,,,,,,,,,,,447.8977210999001,447.8977210999001,0.0013343999162316322,0.09790059993974864,1.0,2.2976776000577956,,,,,,8768,Moral,2025-01-30_16h25.07.627,MoralCondition_v2,2022.2.5,29.962843091842064,
7,0,7,0,0,0,0,0,,,,,,,,,,,,,,,,,,,,,,450.23115859995596,0.0001338999718427658,0.09900549985468388,456.23098629992455,6.032455199863762,,456.41463389992714,456.41463389992714,0.07231549988500774,0.18261279980652034,6.015682499855757,462.51439589983784,462.51439589983784,462.51439589983784,0.06988799967803061,0.1822069997433573,468.21424810006283,468.41426209989004,6.015682299621403,6.115620099706575,474.41420999984257,12.015719899674878,,474.5476319999434,474.5476319999434,0.01581819960847497,0.11581629957072437,up,0.5898077001329511,475.1809078999795,4.229997284710407e-05,0.09776789997704327,481.19786319998093,481.19786319998093,0.00879490002989769,0.11445309990085661,5.0,2.473271500086412,,,,,,,474.5142351000104,474.5142351000104,481.19786319998093,462.4142819000408,462.4142819000408,8768,Moral,2025-01-30_16h25.07.627,MoralCondition_v2,2022.2.5,29.962843091842064,
7,0,7,0,1,0,1,0,,,,,,,,,,,,,,,,,,,,,,,,,,,,,,,,,,,,,,,,,,,,,,,,,,,,,,483.7145409998484,483.7145409998484,0.00790320010855794,0.11415980011224747,5.0,0.8070810998324305,,,,,,,,,,,,8768,Moral,2025-01-30_16h25.07.627,MoralCondition_v2,2022.2.5,29.962843091842064,
7,0,7,0,2,0,2,0,,,,,,,,,,,,,,,,,,,,,,,,,,,,,,,,,,,,,,,,,,,,,,,,,,,,,,484.5475900999736,484.5475900999736,0.006455200025811791,0.09928430011495948,6.0,2.394222900038585,,,,,,,,,,,,8768,Moral,2025-01-30_16h25.07.627,MoralCondition_v2,2022.2.5,29.962843091842064,
7,0,7,0,3,0,3,0,,,,,,,,,,,,,,,,,,,,,,,,,,,,,,,,,,,,,,,,,,,,,,,,,,,,,,486.9808392999694,486.9808392999694,0.006482600001618266,0.09923709998838603,6.0,0.9270720998756588,,,,,,,,,,,,8768,Moral,2025-01-30_16h25.07.627,MoralCondition_v2,2022.2.5,29.962843091842064,
7,0,7,0,4,0,4,0,,,,,,,,,,,,,,,,,,,,,,,,,,,,,,,,,,,,,,,,,,,,,,,,,,,,,,487.9643232000526,487.9643232000526,0.008432999951764941,0.11441010003909469,1.0,1.7069122998509556,,,,,,,,,,,,8768,Moral,2025-01-30_16h25.07.627,MoralCondition_v2,2022.2.5,29.962843091842064,
7,0,7,0,5,0,5,0,,,,,,,,,,,,,,,,,,,,,,,,,,,,,,,,,,,,,,,,,,,,,,,,,,,,,,489.71421639993787,489.71421639993787,0.007728900061920285,0.11445360002107918,3.0,1.274599299998954,,,,,,,,,,,,8768,Moral,2025-01-30_16h25.07.627,MoralCondition_v2,2022.2.5,29.962843091842064,
7,0,7,0,6,0,6,0,,,,,,,,,,,,,,,,,,,,,,,,,,,,,,,,,,,,,,,,,,,,,,,,,,,,,,491.03098929999396,491.03098929999396,0.008281099842861295,0.11390109988860786,5.0,2.206866899970919,,,,,,,,,,,,8768,Moral,2025-01-30_16h25.07.627,MoralCondition_v2,2022.2.5,29.962843091842064,
7,0,7,0,,,,,,,,,,,,,,,,,,,,,,,,,,,,,,,,,,,,,,,,,,,,,,,,,,,,,,,,,,,,,,,,493.26434669992886,493.26434669992886,0.0006987000815570354,0.09930380014702678,2.0,2.533011599909514,,,,,,8768,Moral,2025-01-30_16h25.07.627,MoralCondition_v2,2022.2.5,29.962843091842064,
8,0,8,0,0,0,0,0,,,,,,,,,,,,,,,,,,,,,,495.83096179994754,0.0003714000340551138,0.09749040007591248,501.84746259986423,6.0141574998851866,,502.01431669993326,502.01431669993326,0.07875159988179803,0.18072229996323586,6.014214799972251,508.11419370002113,508.11419370002113,508.11419370002113,0.07742319977842271,0.18091589980758727,513.8141166998539,514.0139939999208,6.013933999929577,6.113990599755198,520.014153999975,12.014139699749649,,520.1472805999219,520.1472805999219,0.014171899762004614,0.1142298998311162,up,0.7020136001519859,520.8974098998588,5.179992876946926e-05,0.09785509994253516,526.9307466999162,526.9307466999162,0.026192700024694204,0.1312681999988854,5.0,2.239344900008291,,,,,,,520.1141967999283,520.1141967999283,,508.01414279988967,508.01414279988967,8768,Moral,2025-01-30_16h25.07.627,MoralCondition_v2,2022.2.5,29.962843091842064,
8,0,8,0,1,0,1,0,,,,,,,,,,,,,,,,,,,,,,,,,,,,,,,,,,,,,,,,,,,,,,,,,,,,,,529.1973961999174,529.1973961999174,0.0073274001479148865,0.0977557001169771,1.0,1.3249381999485195,,,,,,,,,,,,8768,Moral,2025-01-30_16h25.07.627,MoralCondition_v2,2022.2.5,29.962843091842064,
8,0,8,0,2,0,2,0,,,,,,,,,,,,,,,,,,,,,,,,,,,,,,,,,,,,,,,,,,,,,,,,,,,,,,530.5639189998619,530.5639189998619,0.007254200056195259,0.09809570014476776,1.0,0.9918383997865021,,,,,,,,,,,,8768,Moral,2025-01-30_16h25.07.627,MoralCondition_v2,2022.2.5,29.962843091842064,
8,0,8,0,3,0,3,0,,,,,,,,,,,,,,,,,,,,,,,,,,,,,,,,,,,,,,,,,,,,,,,,,,,,,,531.5972722000442,531.5972722000442,0.007404199801385403,0.09785649995319545,1.0,0.7912391999270767,,,,,,,,,,,,8768,Moral,2025-01-30_16h25.07.627,MoralCondition_v2,2022.2.5,29.962843091842064,
8,0,8,0,4,0,4,0,,,,,,,,,,,,,,,,,,,,,,,,,,,,,,,,,,,,,,,,,,,,,,,,,,,,,,532.4307056998368,532.4307056998368,0.007242100080475211,0.09808710007928312,7.0,1.7253048000857234,,,,,,,,,,,,8768,Moral,2025-01-30_16h25.07.627,MoralCondition_v2,2022.2.5,29.962843091842064,
8,0,8,0,5,0,5,0,,,,,,,,,,,,,,,,,,,,,,,,,,,,,,,,,,,,,,,,,,,,,,,,,,,,,,534.1972195999697,534.1972195999697,0.0070593999698758125,0.09916980005800724,1.0,1.9266957000363618,,,,,,,,,,,,8768,Moral,2025-01-30_16h25.07.627,MoralCondition_v2,2022.2.5,29.962843091842064,
8,0,8,0,6,0,6,0,,,,,,,,,,,,,,,,,,,,,,,,,,,,,,,,,,,,,,,,,,,,,,,,,,,,,,536.1642769998871,536.1642769998871,0.006501900032162666,0.09718400007113814,2.0,2.291978299850598,,,,,,,,,,,,8768,Moral,2025-01-30_16h25.07.627,MoralCondition_v2,2022.2.5,29.962843091842064,
8,0,8,0,,,,,,,,,,,,,,,,,,,,,,,,,,,,,,,,,,,,,,,,,,,,,,,,,,,,,,,,,,,,,,,,538.4971967998426,538.4971967998426,0.0021148999221622944,0.09750359994359314,6.0,2.19657040014863,,,,,,8768,Moral,2025-01-30_16h25.07.627,MoralCondition_v2,2022.2.5,29.962843091842064,
9,0,9,0,0,0,0,0,,,,,,,,,,,,,,,,,,,,,,540.7310321000405,0.00033980002626776695,0.09802060015499592,546.7304865999613,6.014409100171179,6.097852600039914,546.880464799935,546.880464799935,0.0493856999091804,0.14814179996028543,6.014747400069609,553.0307755998801,553.0307755998801,553.0307755998801,0.08458379982039332,0.1979294999036938,558.7305880999193,558.9305636999197,6.031258299946785,6.13123709987849,564.9307593998965,12.031452500028536,,565.0638900999911,565.0638900999911,0.03136599971912801,0.13119809981435537,down,0.5375094001647085,565.6472324000206,4.069996066391468e-05,0.09811459993943572,571.6636747999582,571.6636747999582,0.02630109991878271,0.11466339998878539,6.0,2.256234599975869,,,,,,,565.0305170998909,565.0305170998909,,552.8805768999737,552.8805768999737,8768,Moral,2025-01-30_16h25.07.627,MoralCondition_v2,2022.2.5,29.962843091842064,
9,0,9,0,1,0,1,0,,,,,,,,,,,,,,,,,,,,,,,,,,,,,,,,,,,,,,,,,,,,,,,,,,,,,,573.9636987999547,573.9636987999547,0.006586899980902672,0.09893860016018152,6.0,0.7935555998701602,,,,,,,,,,,,8768,Moral,2025-01-30_16h25.07.627,MoralCondition_v2,2022.2.5,29.962843091842064,
9,0,9,0,2,0,2,0,,,,,,,,,,,,,,,,,,,,,,,,,,,,,,,,,,,,,,,,,,,,,,,,,,,,,,574.7969952998683,574.7969952998683,0.007437000051140785,0.09820910007692873,1.0,1.6912994000595063,,,,,,,,,,,,8768,Moral,2025-01-30_16h25.07.627,MoralCondition_v2,2022.2.5,29.962843091842064,
9,0,9,0,3,0,3,0,,,,,,,,,,,,,,,,,,,,,,,,,,,,,,,,,,,,,,,,,,,,,,,,,,,,,,576.5307584998664,576.5307584998664,0.008278100052848458,0.09676710003986955,5.0,2.3227721001021564,,,,,,,,,,,,8768,Moral,2025-01-30_16h25.07.627,MoralCondition_v2,2022.2.5,29.962843091842064,
9,0,9,0,4,0,4,0,,,,,,,,,,,,,,,,,,,,,,,,,,,,,,,,,,,,,,,,,,,,,,,,,,,,,,578.8970009000041,578.8970009000041,0.00746140000410378,0.09724069992080331,5.0,0.9240655000321567,,,,,,,,,,,,8768,Moral,2025-01-30_16h25.07.627,MoralCondition_v2,2022.2.5,29.962843091842064,
9,0,9,0,5,0,5,0,,,,,,,,,,,,,,,,,,,,,,,,,,,,,,,,,,,,,,,,,,,,,,,,,,,,,,579.863729499979,579.863729499979,0.00809969985857606,0.09792810003273189,4.0,1.6576135999057442,,,,,,,,,,,,8768,Moral,2025-01-30_16h25.07.627,MoralCondition_v2,2022.2.5,29.962843091842064,
9,0,9,0,6,0,6,0,,,,,,,,,,,,,,,,,,,,,,,,,,,,,,,,,,,,,,,,,,,,,,,,,,,,,,581.5637081998866,581.5637081998866,0.00684370007365942,0.09932929999195039,4.0,0.8604030997958034,,,,,,,,,,,,8768,Moral,2025-01-30_16h25.07.627,MoralCondition_v2,2022.2.5,29.962843091842064,
9,0,9,0,,,,,,,,,,,,,,,,,,,,,,,,,,,,,,,,,,,,,,,,,,,,,,,,,,,,,,,,,,,,,,,,582.4638171000406,582.4638171000406,0.0015612998977303505,0.0983289999421686,2.0,3.2309939998667687,,,,,,8768,Moral,2025-01-30_16h25.07.627,MoralCondition_v2,2022.2.5,29.962843091842064,
10,0,10,0,0,0,0,0,,,,,,,,,,,,,,,,,,,,,,585.7308358999435,0.00022859987802803516,0.09832390001975,591.7304549999535,6.031629299977794,,591.9136155999731,591.9136155999731,0.07642799988389015,0.18156979978084564,6.014907599892467,598.0138489999808,598.0138489999808,598.0138489999808,0.07814529980532825,0.18180829985067248,603.7137285999488,603.9137357999571,6.014938399661332,6.114876799751073,609.913699900033,12.014875499764457,,610.047028800007,610.047028800007,0.015012399759143591,0.11487399972975254,up,1.217424200149253,611.3137204998638,4.8900023102760315e-05,0.09778270008973777,617.3304355000146,617.3304355000146,0.009111199993640184,0.11454329988919199,3.0,1.9058819999918342,,,,,,,610.0136788999662,610.0136788999662,617.3304355000146,597.913763999939,597.913763999939,8768,Moral,2025-01-30_16h25.07.627,MoralCondition_v2,2022.2.5,29.962843091842064,
10,0,10,0,1,0,1,0,,,,,,,,,,,,,,,,,,,,,,,,,,,,,,,,,,,,,,,,,,,,,,,,,,,,,,619.2801324999891,619.2801324999891,0.007452100049704313,0.11545489984564483,5.0,1.4423776001203805,,,,,,,,,,,,8768,Moral,2025-01-30_16h25.07.627,MoralCondition_v2,2022.2.5,29.962843091842064,
10,0,10,0,2,0,2,0,,,,,,,,,,,,,,,,,,,,,,,,,,,,,,,,,,,,,,,,,,,,,,,,,,,,,,620.746939699864,620.746939699864,0.005823399871587753,0.09944459982216358,1.0,1.1946947001852095,,,,,,,,,,,,8768,Moral,2025-01-30_16h25.07.627,MoralCondition_v2,2022.2.5,29.962843091842064,
10,0,10,0,3,0,3,0,,,,,,,,,,,,,,,,,,,,,,,,,,,,,,,,,,,,,,,,,,,,,,,,,,,,,,621.9804503999185,621.9804503999185,0.0067449999041855335,0.09956280002370477,4.0,2.0269309000577778,,,,,,,,,,,,8768,Moral,2025-01-30_16h25.07.627,MoralCondition_v2,2022.2.5,29.962843091842064,
10,0,10,0,4,0,4,0,,,,,,,,,,,,,,,,,,,,,,,,,,,,,,,,,,,,,,,,,,,,,,,,,,,,,,624.0474171999376,624.0474171999376,0.008318200008943677,0.09695199993439019,6.0,2.723077300004661,,,,,,,,,,,,8768,Moral,2025-01-30_16h25.07.627,MoralCondition_v2,2022.2.5,29.962843091842064,
10,0,10,0,5,0,5,0,,,,,,,,,,,,,,,,,,,,,,,,,,,,,,,,,,,,,,,,,,,,,,,,,,,,,,626.8137194998562,626.8137194998562,0.007183799985796213,0.09904800006188452,6.0,0.759519400075078,,,,,,,,,,,,8768,Moral,2025-01-30_16h25.07.627,MoralCondition_v2,2022.2.5,29.962843091842064,
10,0,10,0,6,0,6,0,,,,,,,,,,,,,,,,,,,,,,,,,,,,,,,,,,,,,,,,,,,,,,,,,,,,,,627.6304694998544,627.6304694998544,0.007792999967932701,0.11393180000595748,5.0,1.3405502000823617,,,,,,,,,,,,8768,Moral,2025-01-30_16h25.07.627,MoralCondition_v2,2022.2.5,29.962843091842064,
10,0,10,0,,,,,,,,,,,,,,,,,,,,,,,,,,,,,,,,,,,,,,,,,,,,,,,,,,,,,,,,,,,,,,,,628.9972514999099,628.9972514999099,0.0006955000571906567,0.09923899988643825,3.0,2.2999589000828564,,,,,,8768,Moral,2025-01-30_16h25.07.627,MoralCondition_v2,2022.2.5,29.962843091842064,
11,0,11,0,0,0,0,0,,,,,,,,,,,,,,,,,,,,,,631.3304911998566,0.0001781000755727291,0.09858400002121925,637.3301454999018,6.0317438000347465,,637.514053599909,637.514053599909,0.07637409982271492,0.18205539975315332,6.015171199804172,643.6135482999962,643.6135482999962,643.6135482999962,0.0784104997292161,0.18186419969424605,649.3135368998628,649.5136694000103,6.015318899881095,6.115130799822509,655.513498699991,12.015167199773714,,655.6468612998724,655.6468612998724,0.01548179960809648,0.1150913997553289,up,1.4895886001177132,657.1801668000408,4.6999892219901085e-05,0.09794409992173314,663.1800837998744,663.1800837998744,0.008884100010618567,0.09782429994083941,1.0,1.590097100008279,,,,,,,655.6137301998679,655.6137301998679,663.1800837998744,643.5135371000506,643.5135371000506,8768,Moral,2025-01-30_16h25.07.627,MoralCondition_v2,2022.2.5,29.962843091842064,
11,0,11,0,1,0,1,0,,,,,,,,,,,,,,,,,,,,,,,,,,,,,,,,,,,,,,,,,,,,,,,,,,,,,,664.8302573000547,664.8302573000547,0.007881799945607781,0.11423700000159442,4.0,1.6074868999421597,,,,,,,,,,,,8768,Moral,2025-01-30_16h25.07.627,MoralCondition_v2,2022.2.5,29.962843091842064,
11,0,11,0,2,0,2,0,,,,,,,,,,,,,,,,,,,,,,,,,,,,,,,,,,,,,,,,,,,,,,,,,,,,,,666.4634076000657,666.4634076000657,0.0074142999947071075,0.09815510013140738,4.0,0.9250621001701802,,,,,,,,,,,,8768,Moral,2025-01-30_16h25.07.627,MoralCondition_v2,2022.2.5,29.962843091842064,
11,0,11,0,3,0,3,0,,,,,,,,,,,,,,,,,,,,,,,,,,,,,,,,,,,,,,,,,,,,,,,,,,,,,,667.430059999926,667.430059999926,0.006602899869903922,0.09937359998002648,6.0,1.626949300058186,,,,,,,,,,,,8768,Moral,2025-01-30_16h25.07.627,MoralCondition_v2,2022.2.5,29.962843091842064,
11,0,11,0,4,0,4,0,,,,,,,,,,,,,,,,,,,,,,,,,,,,,,,,,,,,,,,,,,,,,,,,,,,,,,669.0970199999865,669.0970199999865,0.006582200061529875,0.0990327000617981,1.0,1.3602042000275105,,,,,,,,,,,,8768,Moral,2025-01-30_16h25.07.627,MoralCondition_v2,2022.2.5,29.962843091842064,
11,0,11,0,5,0,5,0,,,,,,,,,,,,,,,,,,,,,,,,,,,,,,,,,,,,,,,,,,,,,,,,,,,,,,670.4968479999807,670.4968479999807,0.007199699990451336,0.09795960015617311,2.0,1.4919243999756873,,,,,,,,,,,,8768,Moral,2025-01-30_16h25.07.627,MoralCondition_v2,2022.2.5,29.962843091842064,
11,0,11,0,6,0,6,0,,,,,,,,,,,,,,,,,,,,,,,,,,,,,,,,,,,,,,,,,,,,,,,,,,,,,,672.0472287000157,672.0472287000157,0.008225199999287724,0.11470989999361336,2.0,0.9076975998468697,,,,,,,,,,,,8768,Moral,2025-01-30_16h25.07.627,MoralCondition_v2,2022.2.5,29.962843091842064,
11,0,11,0,,,,,,,,,,,,,,,,,,,,,,,,,,,,,,,,,,,,,,,,,,,,,,,,,,,,,,,,,,,,,,,,672.9803092998918,672.9803092998918,0.0006891000084578991,0.09929089993238449,7.0,2.3998308998998255,,,,,,8768,Moral,2025-01-30_16h25.07.627,MoralCondition_v2,2022.2.5,29.962843091842064,
12,0,12,0,0,0,0,0,,,,,,,,,,,,,,,,,,,,,,675.4134410000406,0.00013439985923469067,0.09915609983727336,681.4302594999317,6.015722699929029,,681.5968855000101,681.5968855000101,0.07734619989059865,0.18264799984171987,6.015703699784353,687.6967235999182,687.6967235999182,687.6967235999182,0.07604569965042174,0.18259049975313246,693.3966615998652,693.5966832998674,6.015716199763119,6.1157405998092145,699.5966526998673,12.015682499855757,,699.730005200021,699.730005200021,0.015845199581235647,0.11540409969165921,up,0.5266811000183225,700.3132966000121,4.930002614855766e-05,0.09769080020487309,706.3299426999874,706.3299426999874,0.011351000051945448,0.1146951001137495,3.0,1.9040020001120865,,,,,,,699.6966223998461,699.6966223998461,706.3299426999874,687.596696499968,687.596696499968,8768,Moral,2025-01-30_16h25.07.627,MoralCondition_v2,2022.2.5,29.962843091842064,
12,0,12,0,1,0,1,0,,,,,,,,,,,,,,,,,,,,,,,,,,,,,,,,,,,,,,,,,,,,,,,,,,,,,,708.2801458998583,708.2801458998583,0.007762799970805645,0.1143314999062568,2.0,1.7740849999245256,,,,,,,,,,,,8768,Moral,2025-01-30_16h25.07.627,MoralCondition_v2,2022.2.5,29.962843091842064,
12,0,12,0,2,0,2,0,,,,,,,,,,,,,,,,,,,,,,,,,,,,,,,,,,,,,,,,,,,,,,,,,,,,,,710.0798597999383,710.0798597999383,0.0065074998419731855,0.09919649991206825,2.0,0.8268517998512834,,,,,,,,,,,,8768,Moral,2025-01-30_16h25.07.627,MoralCondition_v2,2022.2.5,29.962843091842064,
12,0,12,0,3,0,3,0,,,,,,,,,,,,,,,,,,,,,,,,,,,,,,,,,,,,,,,,,,,,,,,,,,,,,,710.963451199932,710.963451199932,0.007817399920895696,0.11430429993197322,3.0,1.1743918999563903,,,,,,,,,,,,8768,Moral,2025-01-30_16h25.07.627,MoralCondition_v2,2022.2.5,29.962843091842064,
12,0,12,0,4,0,4,0,,,,,,,,,,,,,,,,,,,,,,,,,,,,,,,,,,,,,,,,,,,,,,,,,,,,,,712.1633927000221,712.1633927000221,0.007334500085562468,0.09880089992657304,3.0,0.8261864997912198,,,,,,,,,,,,8768,Moral,2025-01-30_16h25.07.627,MoralCondition_v2,2022.2.5,29.962843091842064,
12,0,12,0,5,0,5,0,,,,,,,,,,,,,,,,,,,,,,,,,,,,,,,,,,,,,,,,,,,,,,,,,,,,,,713.0298510999419,713.0298510999419,0.00884619983844459,0.09918619995005429,3.0,0.8580636000260711,,,,,,,,,,,,8768,Moral,2025-01-30_16h25.07.627,MoralCondition_v2,2022.2.5,29.962843091842064,
12,0,12,0,6,0,6,0,,,,,,,,,,,,,,,,,,,,,,,,,,,,,,,,,,,,,,,,,,,,,,,,,,,,,,713.9299337998964,713.9299337998964,0.007982000010088086,0.09938260004855692,6.0,1.158959399908781,,,,,,,,,,,,8768,Moral,2025-01-30_16h25.07.627,MoralCondition_v2,2022.2.5,29.962843091842064,
12,0,12,0,,,,,,,,,,,,,,,,,,,,,,,,,,,,,,,,,,,,,,,,,,,,,,,,,,,,,,,,,,,,,,,,715.1300337999128,715.1300337999128,0.0012598000466823578,0.09771679993718863,7.0,2.1314360999967903,,,,,,8768,Moral,2025-01-30_16h25.07.627,MoralCondition_v2,2022.2.5,29.962843091842064,
13,0,13,0,0,0,0,0,,,,,,,,,,,,,,,,,,,,,,717.2967707000207,0.0002025999128818512,0.09850679989904165,723.3131549998652,6.0153718998190016,,723.4796953999903,723.4796953999903,0.07483459985814989,0.18194889975711703,6.015359499724582,729.5799509999342,729.5799509999342,729.5799509999342,0.07381119974888861,0.18184279976412654,735.279953799909,735.479855600046,6.015233399812132,6.115144199691713,741.4797769000288,12.015147499740124,,741.6131201998796,741.6131201998796,0.01537099969573319,0.1151143996976316,down,0.9322248001117259,742.5797731999774,4.449998959898949e-05,0.09775079996325076,748.5964440000243,748.5964440000243,0.01018600002862513,0.1144755999557674,3.0,2.038316899910569,,,,,,,741.5798223998863,741.5798223998863,748.5964440000243,729.4798453999683,729.4798453999683,8768,Moral,2025-01-30_16h25.07.627,MoralCondition_v2,2022.2.5,29.962843091842064,
13,0,13,0,1,0,1,0,,,,,,,,,,,,,,,,,,,,,,,,,,,,,,,,,,,,,,,,,,,,,,,,,,,,,,750.6630480999593,750.6630480999593,0.006648599868640304,0.09921729983761907,5.0,1.2600449998863041,,,,,,,,,,,,8768,Moral,2025-01-30_16h25.07.627,MoralCondition_v2,2022.2.5,29.962843091842064,
13,0,13,0,2,0,2,0,,,,,,,,,,,,,,,,,,,,,,,,,,,,,,,,,,,,,,,,,,,,,,,,,,,,,,751.963010400068,751.963010400068,0.006613299949094653,0.09932879987172782,5.0,2.2936612002085894,,,,,,,,,,,,8768,Moral,2025-01-30_16h25.07.627,MoralCondition_v2,2022.2.5,29.962843091842064,
13,0,13,0,3,0,3,0,,,,,,,,,,,,,,,,,,,,,,,,,,,,,,,,,,,,,,,,,,,,,,,,,,,,,,754.2962340998929,754.2962340998929,0.006650399882346392,0.0992317998316139,1.0,1.2601393000222743,,,,,,,,,,,,8768,Moral,2025-01-30_16h25.07.627,MoralCondition_v2,2022.2.5,29.962843091842064,
13,0,13,0,4,0,4,0,,,,,,,,,,,,,,,,,,,,,,,,,,,,,,,,,,,,,,,,,,,,,,,,,,,,,,755.6132080999669,755.6132080999669,0.0077477998565882444,0.11419259989634156,5.0,1.307336000027135,,,,,,,,,,,,8768,Moral,2025-01-30_16h25.07.627,MoralCondition_v2,2022.2.5,29.962843091842064,
13,0,13,0,5,0,5,0,,,,,,,,,,,,,,,,,,,,,,,,,,,,,,,,,,,,,,,,,,,,,,,,,,,,,,756.963124099886,756.963124099886,0.007064499892294407,0.11383849987760186,6.0,1.1745128000620753,,,,,,,,,,,,8768,Moral,2025-01-30_16h25.07.627,MoralCondition_v2,2022.2.5,29.962843091842064,
13,0,13,0,6,0,6,0,,,,,,,,,,,,,,,,,,,,,,,,,,,,,,,,,,,,,,,,,,,,,,,,,,,,,,758.163270900026,758.163270900026,0.008038399973884225,0.09775690012611449,5.0,1.5573680999223143,,,,,,,,,,,,8768,Moral,2025-01-30_16h25.07.627,MoralCondition_v2,2022.2.5,29.962843091842064,
13,0,13,0,,,,,,,,,,,,,,,,,,,,,,,,,,,,,,,,,,,,,,,,,,,,,,,,,,,,,,,,,,,,,,,,759.7631659000181,759.7631659000181,0.0022916998714208603,0.09737359988503158,2.0,2.5297194998711348,,,,,,8768,Moral,2025-01-30_16h25.07.627,MoralCondition_v2,2022.2.5,29.962843091842064,
14,0,14,0,0,0,0,0,,,,,,,,,,,,,,,,,,,,,,762.3300967998803,0.0003081001341342926,0.09763900004327297,768.329504000023,6.014111000113189,6.097448400221765,768.4964242000133,768.4964242000133,0.051905700005590916,0.16464850003831089,6.031124500092119,774.6298458999954,774.6298458999954,774.6298458999954,0.08608159981667995,0.1978040998801589,780.3296781000681,780.5296086999588,6.030864199856296,6.131006599869579,786.5296420999803,12.030901399906725,,786.6631056999322,786.6631056999322,0.031066499883309007,0.13075449992902577,up,0.7453407000284642,787.4630698000547,4.739989526569843e-05,0.09781390009447932,793.4796362998895,793.4796362998895,0.010390300070866942,0.11453590006567538,3.0,2.505216200137511,,,,,,,786.6296286999714,786.6296286999714,793.4796362998895,774.4963760999963,774.4963760999963,8768,Moral,2025-01-30_16h25.07.627,MoralCondition_v2,2022.2.5,29.962843091842064,
14,0,14,0,1,0,1,0,,,,,,,,,,,,,,,,,,,,,,,,,,,,,,,,,,,,,,,,,,,,,,,,,,,,,,796.0127278000582,796.0127278000582,0.0074010000098496675,0.09792020008899271,3.0,0.7914126999676228,,,,,,,,,,,,8768,Moral,2025-01-30_16h25.07.627,MoralCondition_v2,2022.2.5,29.962843091842064,
14,0,14,0,2,0,2,0,,,,,,,,,,,,,,,,,,,,,,,,,,,,,,,,,,,,,,,,,,,,,,,,,,,,,,796.8461092000362,796.8461092000362,0.008101300103589892,0.09793110005557537,7.0,1.59055560012348,,,,,,,,,,,,8768,Moral,2025-01-30_16h25.07.627,MoralCondition_v2,2022.2.5,29.962843091842064,
14,0,14,0,3,0,3,0,,,,,,,,,,,,,,,,,,,,,,,,,,,,,,,,,,,,,,,,,,,,,,,,,,,,,,798.4795563998632,798.4795563998632,0.007520200219005346,0.09783149999566376,1.0,1.4246922000311315,,,,,,,,,,,,8768,Moral,2025-01-30_16h25.07.627,MoralCondition_v2,2022.2.5,29.962843091842064,
14,0,14,0,4,0,4,0,,,,,,,,,,,,,,,,,,,,,,,,,,,,,,,,,,,,,,,,,,,,,,,,,,,,,,799.9461437000427,799.9461437000427,0.007622500183060765,0.09888730011880398,2.0,2.0255099998321384,,,,,,,,,,,,8768,Moral,2025-01-30_16h25.07.627,MoralCondition_v2,2022.2.5,29.962843091842064,
14,0,14,0,5,0,5,0,,,,,,,,,,,,,,,,,,,,,,,,,,,,,,,,,,,,,,,,,,,,,,,,,,,,,,802.0297310999595,802.0297310999595,0.00817199982702732,0.11414809990674257,1.0,1.7737056999467313,,,,,,,,,,,,8768,Moral,2025-01-30_16h25.07.627,MoralCondition_v2,2022.2.5,29.962843091842064,
14,0,14,0,6,0,6,0,,,,,,,,,,,,,,,,,,,,,,,,,,,,,,,,,,,,,,,,,,,,,,,,,,,,,,803.8296546000056,803.8296546000056,0.008636200102046132,0.09735639998689294,2.0,1.122900899965316,,,,,,,,,,,,8768,Moral,2025-01-30_16h25.07.627,MoralCondition_v2,2022.2.5,29.962843091842064,
14,0,14,0,,,,,,,,,,,,,,,,,,,,,,,,,,,,,,,,,,,,,,,,,,,,,,,,,,,,,,,,,,,,,,,,804.996268699877,804.996268699877,0.0017417001072317362,0.09758900012820959,7.0,1.8638065999839455,,,,,,8768,Moral,2025-01-30_16h25.07.627,MoralCondition_v2,2022.2.5,29.962843091842064,
15,0,15,0,0,0,0,0,,,,,,,,,,,,,,,,,,,,,,806.8962119000498,0.00014769984409213066,0.09930190001614392,812.9129508999176,6.016054299892858,,813.079277999932,813.079277999932,0.07776959985494614,0.182785099837929,6.015967599814758,819.1794797000475,819.1794797000475,819.1794797000475,0.07718539983034134,0.18282019975595176,824.8795014999341,825.0794557000045,6.0161321996711195,6.115941299824044,831.079419999849,12.015919899800792,,831.2129987999797,831.2129987999797,0.01626019971445203,0.11587319965474308,up,0.7233696000184864,831.9794530000072,4.0400074794888496e-05,0.09806380001828074,837.9959400000516,837.9959400000516,0.02670330018736422,0.11466479999944568,3.0,3.355695700040087,,,,,,,831.1796325999312,831.1796325999312,,819.0796890000347,819.0796890000347,8768,Moral,2025-01-30_16h25.07.627,MoralCondition_v2,2022.2.5,29.962843091842064,
15,0,15,0,1,0,1,0,,,,,,,,,,,,,,,,,,,,,,,,,,,,,,,,,,,,,,,,,,,,,,,,,,,,,,841.3959075000603,841.3959075000603,0.00661260006017983,0.09915519994683564,2.0,1.7601677998900414,,,,,,,,,,,,8768,Moral,2025-01-30_16h25.07.627,MoralCondition_v2,2022.2.5,29.962843091842064,
15,0,15,0,2,0,2,0,,,,,,,,,,,,,,,,,,,,,,,,,,,,,,,,,,,,,,,,,,,,,,,,,,,,,,843.1958711000625,843.1958711000625,0.0075933001935482025,0.09731089998967946,2.0,1.6908881000708789,,,,,,,,,,,,8768,Moral,2025-01-30_16h25.07.627,MoralCondition_v2,2022.2.5,29.962843091842064,
15,0,15,0,3,0,3,0,,,,,,,,,,,,,,,,,,,,,,,,,,,,,,,,,,,,,,,,,,,,,,,,,,,,,,844.9291977998801,844.9291977998801,0.006271299906075001,0.09930219990201294,2.0,0.9939902999904007,,,,,,,,,,,,8768,Moral,2025-01-30_16h25.07.627,MoralCondition_v2,2022.2.5,29.962843091842064,
15,0,15,0,4,0,4,0,,,,,,,,,,,,,,,,,,,,,,,,,,,,,,,,,,,,,,,,,,,,,,,,,,,,,,845.9793491999153,845.9793491999153,0.008392299991101027,0.11429779999889433,7.0,1.1400727999862283,,,,,,,,,,,,8768,Moral,2025-01-30_16h25.07.627,MoralCondition_v2,2022.2.5,29.962843091842064,
15,0,15,0,5,0,5,0,,,,,,,,,,,,,,,,,,,,,,,,,,,,,,,,,,,,,,,,,,,,,,,,,,,,,,847.1460243999027,847.1460243999027,0.007343800039961934,0.09789530001580715,2.0,1.1916547999717295,,,,,,,,,,,,8768,Moral,2025-01-30_16h25.07.627,MoralCondition_v2,2022.2.5,29.962843091842064,
15,0,15,0,6,0,6,0,,,,,,,,,,,,,,,,,,,,,,,,,,,,,,,,,,,,,,,,,,,,,,,,,,,,,,848.379458299838,848.379458299838,0.006539699854329228,0.09932419983670115,3.0,1.3936564999166876,,,,,,,,,,,,8768,Moral,2025-01-30_16h25.07.627,MoralCondition_v2,2022.2.5,29.962843091842064,
15,0,15,0,,,,,,,,,,,,,,,,,,,,,,,,,,,,,,,,,,,,,,,,,,,,,,,,,,,,,,,,,,,,,,,,849.8124857998919,849.8124857998919,0.0013904999941587448,0.09762269980274141,7.0,1.4307885998860002,,,,,,8768,Moral,2025-01-30_16h25.07.627,MoralCondition_v2,2022.2.5,29.962843091842064,
16,0,16,0,0,0,0,0,,,,,,,,,,,,,,,,,,,,,,851.2796209000517,0.00025589996948838234,0.09755400009453297,857.2794033000246,6.031220299890265,,857.4791800999083,857.4791800999083,0.08909389981999993,0.1977190999314189,6.031038499902934,863.5794134000316,863.5794134000316,863.5794134000316,0.08785099978558719,0.19771579978987575,869.2793133999221,869.4792174999602,6.031017399858683,6.131041599903256,875.4792251999024,12.031026099808514,,875.6125370999798,875.6125370999798,0.031230499735102057,0.1309495996683836,up,1.171981300227344,876.8291795998812,4.720012657344341e-05,0.09800680004991591,882.8462344000582,882.8462344000582,0.02442140015773475,0.11475150007754564,3.0,1.924723899923265,,,,,,,875.5792060999665,875.5792060999665,,863.4793610000052,863.4793610000052,8768,Moral,2025-01-30_16h25.07.627,MoralCondition_v2,2022.2.5,29.962843091842064,
16,0,16,0,1,0,1,0,,,,,,,,,,,,,,,,,,,,,,,,,,,,,,,,,,,,,,,,,,,,,,,,,,,,,,884.8126562999096,884.8126562999096,0.00843149982392788,0.09923109994269907,7.0,1.3250597000587732,,,,,,,,,,,,8768,Moral,2025-01-30_16h25.07.627,MoralCondition_v2,2022.2.5,29.962843091842064,
16,0,16,0,2,0,2,0,,,,,,,,,,,,,,,,,,,,,,,,,,,,,,,,,,,,,,,,,,,,,,,,,,,,,,886.1959772999398,886.1959772999398,0.0079411999322474,0.11426289984956384,3.0,1.2072049998678267,,,,,,,,,,,,8768,Moral,2025-01-30_16h25.07.627,MoralCondition_v2,2022.2.5,29.962843091842064,
16,0,16,0,3,0,3,0,,,,,,,,,,,,,,,,,,,,,,,,,,,,,,,,,,,,,,,,,,,,,,,,,,,,,,887.429100099951,887.429100099951,0.007516200188547373,0.09772380022332072,2.0,1.4913556999526918,,,,,,,,,,,,8768,Moral,2025-01-30_16h25.07.627,MoralCondition_v2,2022.2.5,29.962843091842064,
16,0,16,0,4,0,4,0,,,,,,,,,,,,,,,,,,,,,,,,,,,,,,,,,,,,,,,,,,,,,,,,,,,,,,888.9624349998776,888.9624349998776,0.007646899903193116,0.09798209997825325,3.0,1.9248160000424832,,,,,,,,,,,,8768,Moral,2025-01-30_16h25.07.627,MoralCondition_v2,2022.2.5,29.962843091842064,
16,0,16,0,5,0,5,0,,,,,,,,,,,,,,,,,,,,,,,,,,,,,,,,,,,,,,,,,,,,,,,,,,,,,,890.9292400998529,890.9292400998529,0.006461499957367778,0.09920319984667003,3.0,0.7940533000510186,,,,,,,,,,,,8768,Moral,2025-01-30_16h25.07.627,MoralCondition_v2,2022.2.5,29.962843091842064,
16,0,16,0,6,0,6,0,,,,,,,,,,,,,,,,,,,,,,,,,,,,,,,,,,,,,,,,,,,,,,,,,,,,,,891.7793862998951,891.7793862998951,0.007937300018966198,0.11431659990921617,1.0,1.2740760000888258,,,,,,,,,,,,8768,Moral,2025-01-30_16h25.07.627,MoralCondition_v2,2022.2.5,29.962843091842064,
16,0,16,0,,,,,,,,,,,,,,,,,,,,,,,,,,,,,,,,,,,,,,,,,,,,,,,,,,,,,,,,,,,,,,,,893.0792240998708,893.0792240998708,0.0018377001397311687,0.0972495002206415,7.0,1.9630169998854399,,,,,,8768,Moral,2025-01-30_16h25.07.627,MoralCondition_v2,2022.2.5,29.962843091842064,
17,0,17,0,0,0,0,0,,,,,,,,,,,,,,,,,,,,,,895.0793482000008,0.0002654001582413912,0.09827110008336604,901.0957899999339,6.0147005000617355,,901.2624224999454,901.2624224999454,0.07968019996769726,0.18146330001764,6.0148300000000745,907.3627207998652,907.3627207998652,907.3627207998652,0.07575650000944734,0.181613199878484,913.0623719999567,913.2623808998615,6.014714399818331,6.114529899787158,919.262355200015,12.01469359989278,,919.3956221998669,919.3956221998669,0.014881299808621407,0.11441929987631738,up,1.309645300032571,920.762341799913,4.779989831149578e-05,0.09797889995388687,926.7788012998644,926.7788012998644,0.02161039994098246,0.11468430003151298,3.0,4.160583399934694,,,,,,,919.3623444000259,919.3623444000259,,907.2623972999863,907.2623972999863,8768,Moral,2025-01-30_16h25.07.627,MoralCondition_v2,2022.2.5,29.962843091842064,
17,0,17,0,1,0,1,0,,,,,,,,,,,,,,,,,,,,,,,,,,,,,,,,,,,,,,,,,,,,,,,,,,,,,,930.9791057999246,930.9791057999246,0.007430800003930926,0.09770290018059313,1.0,1.391532199922949,,,,,,,,,,,,8768,Moral,2025-01-30_16h25.07.627,MoralCondition_v2,2022.2.5,29.962843091842064,
17,0,17,0,2,0,2,0,,,,,,,,,,,,,,,,,,,,,,,,,,,,,,,,,,,,,,,,,,,,,,,,,,,,,,932.4124590000138,932.4124590000138,0.007478199899196625,0.09738869988359511,3.0,1.291139000095427,,,,,,,,,,,,8768,Moral,2025-01-30_16h25.07.627,MoralCondition_v2,2022.2.5,29.962843091842064,
17,0,17,0,3,0,3,0,,,,,,,,,,,,,,,,,,,,,,,,,,,,,,,,,,,,,,,,,,,,,,,,,,,,,,933.7625039999839,933.7625039999839,0.008283399976789951,0.1142558001447469,3.0,1.5404590000398457,,,,,,,,,,,,8768,Moral,2025-01-30_16h25.07.627,MoralCondition_v2,2022.2.5,29.962843091842064,
17,0,17,0,4,0,4,0,,,,,,,,,,,,,,,,,,,,,,,,,,,,,,,,,,,,,,,,,,,,,,,,,,,,,,935.3455982999876,935.3455982999876,0.008926100097596645,0.11391080007888377,3.0,1.0395106999203563,,,,,,,,,,,,8768,Moral,2025-01-30_16h25.07.627,MoralCondition_v2,2022.2.5,29.962843091842064,
17,0,17,0,5,0,5,0,,,,,,,,,,,,,,,,,,,,,,,,,,,,,,,,,,,,,,,,,,,,,,,,,,,,,,936.4124098999891,936.4124098999891,0.006855099927634001,0.09810669999569654,1.0,1.9922130000777543,,,,,,,,,,,,8768,Moral,2025-01-30_16h25.07.627,MoralCondition_v2,2022.2.5,29.962843091842064,
17,0,17,0,6,0,6,0,,,,,,,,,,,,,,,,,,,,,,,,,,,,,,,,,,,,,,,,,,,,,,,,,,,,,,938.4455893998966,938.4455893998966,0.006722999969497323,0.09899869980290532,7.0,1.4932696998585016,,,,,,,,,,,,8768,Moral,2025-01-30_16h25.07.627,MoralCondition_v2,2022.2.5,29.962843091842064,
17,0,17,0,,,,,,,,,,,,,,,,,,,,,,,,,,,,,,,,,,,,,,,,,,,,,,,,,,,,,,,,,,,,,,,,939.9792007000651,939.9792007000651,0.0014070000033825636,0.09750579996034503,7.0,1.1638285999651998,,,,,,8768,Moral,2025-01-30_16h25.07.627,MoralCondition_v2,2022.2.5,29.962843091842064,
18,0,18,0,0,0,0,0,,,,,,,,,,,,,,,,,,,,,,941.1792754998896,0.0001591998152434826,0.09930849983356893,947.195804100018,6.016171099850908,,947.362144799903,947.362144799903,0.07672809972427785,0.18246199982240796,6.016024099895731,953.4621406998485,953.4621406998485,953.4621406998485,0.0817077998071909,0.18274349975399673,959.1621053998824,959.3621536998544,6.015904799802229,6.115834099706262,965.3623001999222,12.016032299725339,,965.4954812999349,965.4954812999349,0.01607179967686534,0.11598899960517883,up,0.7933654999360442,966.3287769998424,3.9899954572319984e-05,0.09783870005048811,972.3455280000344,972.3455280000344,0.021166600054129958,0.11455920012667775,5.0,3.5276655999477953,,,,,,,965.4621802000329,965.4621802000329,,953.3623223998584,953.3623223998584,8768,Moral,2025-01-30_16h25.07.627,MoralCondition_v2,2022.2.5,29.962843091842064,
18,0,18,0,1,0,1,0,,,,,,,,,,,,,,,,,,,,,,,,,,,,,,,,,,,,,,,,,,,,,,,,,,,,,,975.9120938000269,975.9120938000269,0.006887099938467145,0.09907569992356002,6.0,1.1601758000906557,,,,,,,,,,,,8768,Moral,2025-01-30_16h25.07.627,MoralCondition_v2,2022.2.5,29.962843091842064,
18,0,18,0,2,0,2,0,,,,,,,,,,,,,,,,,,,,,,,,,,,,,,,,,,,,,,,,,,,,,,,,,,,,,,977.1120794999879,977.1120794999879,0.006561500020325184,0.0989467001054436,5.0,1.293761899927631,,,,,,,,,,,,8768,Moral,2025-01-30_16h25.07.627,MoralCondition_v2,2022.2.5,29.962843091842064,
18,0,18,0,3,0,3,0,,,,,,,,,,,,,,,,,,,,,,,,,,,,,,,,,,,,,,,,,,,,,,,,,,,,,,978.4623517999426,978.4623517999426,0.0077986998949199915,0.11444919998757541,5.0,0.8410382000729442,,,,,,,,,,,,8768,Moral,2025-01-30_16h25.07.627,MoralCondition_v2,2022.2.5,29.962843091842064,
18,0,18,0,4,0,4,0,,,,,,,,,,,,,,,,,,,,,,,,,,,,,,,,,,,,,,,,,,,,,,,,,,,,,,979.3286808000412,979.3286808000412,0.007872699992731214,0.09801389998756349,7.0,2.091218000045046,,,,,,,,,,,,8768,Moral,2025-01-30_16h25.07.627,MoralCondition_v2,2022.2.5,29.962843091842064,
18,0,18,0,5,0,5,0,,,,,,,,,,,,,,,,,,,,,,,,,,,,,,,,,,,,,,,,,,,,,,,,,,,,,,981.4619410999585,981.4619410999585,0.007478199899196625,0.09759259992279112,4.0,2.7579628000967205,,,,,,,,,,,,8768,Moral,2025-01-30_16h25.07.627,MoralCondition_v2,2022.2.5,29.962843091842064,
18,0,18,0,6,0,6,0,,,,,,,,,,,,,,,,,,,,,,,,,,,,,,,,,,,,,,,,,,,,,,,,,,,,,,984.2620999000501,984.2620999000501,0.007021500030532479,0.09916199999861419,1.0,1.2932776999659836,,,,,,,,,,,,8768,Moral,2025-01-30_16h25.07.627,MoralCondition_v2,2022.2.5,29.962843091842064,
18,0,18,0,,,,,,,,,,,,,,,,,,,,,,,,,,,,,,,,,,,,,,,,,,,,,,,,,,,,,,,,,,,,,,,,985.5954503000248,985.5954503000248,0.0011835999321192503,0.09779000002890825,3.0,2.1311449001077563,,,,,,8768,Moral,2025-01-30_16h25.07.627,MoralCondition_v2,2022.2.5,29.962843091842064,
19,0,19,0,0,0,0,0,,,,,,,,,,,,,,,,,,,,,,987.7620759999845,0.00027810013853013515,0.09794350014999509,993.7620383000467,6.031328100012615,,993.9622229998931,993.9622229998931,0.09136339998804033,0.19813799997791648,6.03128660004586,1000.0620877998881,1000.0620877998881,1000.0620877998881,0.08574009989388287,0.19810789986513555,1005.7619882998988,1005.9620501999743,6.03135329997167,6.13137389998883,1011.9619255999569,12.031215599970892,,1012.0952349000145,1012.0952349000145,0.031668299809098244,0.13116579968482256,up,0.7853456002194434,1012.928593999939,4.569999873638153e-05,0.09801259986124933,1018.9455422000028,1018.9455422000028,0.009512099903076887,0.11478299996815622,3.0,2.1727568998467177,,,,,,,1012.062176699983,1012.062176699983,1018.9455422000028,999.9619543999434,999.9619543999434,8768,Moral,2025-01-30_16h25.07.627,MoralCondition_v2,2022.2.5,29.962843091842064,
19,0,19,0,1,0,1,0,,,,,,,,,,,,,,,,,,,,,,,,,,,,,,,,,,,,,,,,,,,,,,,,,,,,,,1021.1451091000345,1021.1451091000345,0.006738000083714724,0.09913450013846159,7.0,1.193399399984628,,,,,,,,,,,,8768,Moral,2025-01-30_16h25.07.627,MoralCondition_v2,2022.2.5,29.962843091842064,
19,0,19,0,2,0,2,0,,,,,,,,,,,,,,,,,,,,,,,,,,,,,,,,,,,,,,,,,,,,,,,,,,,,,,1022.3791119998787,1022.3791119998787,0.006547299912199378,0.09840679983608425,1.0,1.2928534999955446,,,,,,,,,,,,8768,Moral,2025-01-30_16h25.07.627,MoralCondition_v2,2022.2.5,29.962843091842064,
19,0,19,0,3,0,3,0,,,,,,,,,,,,,,,,,,,,,,,,,,,,,,,,,,,,,,,,,,,,,,,,,,,,,,1023.7117270999588,1023.7117270999588,0.006583999842405319,0.09947700006887317,2.0,1.1936261001974344,,,,,,,,,,,,8768,Moral,2025-01-30_16h25.07.627,MoralCondition_v2,2022.2.5,29.962843091842064,
19,0,19,0,4,0,4,0,,,,,,,,,,,,,,,,,,,,,,,,,,,,,,,,,,,,,,,,,,,,,,,,,,,,,,1024.9453604000155,1024.9453604000155,0.008339999942108989,0.09794449992477894,2.0,0.6906745999585837,,,,,,,,,,,,8768,Moral,2025-01-30_16h25.07.627,MoralCondition_v2,2022.2.5,29.962843091842064,
19,0,19,0,5,0,5,0,,,,,,,,,,,,,,,,,,,,,,,,,,,,,,,,,,,,,,,,,,,,,,,,,,,,,,1025.6784409000538,1025.6784409000538,0.006664799991995096,0.09940069983713329,3.0,0.9602621998637915,,,,,,,,,,,,8768,Moral,2025-01-30_16h25.07.627,MoralCondition_v2,2022.2.5,29.962843091842064,
19,0,19,0,6,0,6,0,,,,,,,,,,,,,,,,,,,,,,,,,,,,,,,,,,,,,,,,,,,,,,,,,,,,,,1026.6784812998958,1026.6784812998958,0.0074362000450491905,0.09936310001648962,4.0,1.4597662000451237,,,,,,,,,,,,8768,Moral,2025-01-30_16h25.07.627,MoralCondition_v2,2022.2.5,29.962843091842064,
19,0,19,0,,,,,,,,,,,,,,,,,,,,,,,,,,,,,,,,,,,,,,,,,,,,,,,,,,,,,,,,,,,,,,,,1028.178830999881,1028.178830999881,0.0012970000971108675,0.09789979993365705,7.0,2.4309231999795884,,,,,,8768,Moral,2025-01-30_16h25.07.627,MoralCondition_v2,2022.2.5,29.962843091842064,
