loop.thisRepN,loop.thisTrialN,loop.thisN,loop.thisIndex,evaluate_all_emotions.thisRepN,evaluate_all_emotions.thisTrialN,evaluate_all_emotions.thisN,evaluate_all_emotions.thisIndex,sync_beep_1.started,p_port.started,p_port.stopped,sync_beep_1.stopped,sync_beep_2.started,sync_beep_2.stopped,sync_beep_3.started,sync_beep_3.stopped,sync_beep_4.started,sync_beep_4.stopped,baseline.started,p_port_2.started,p_port_2.stopped,baseline.stopped,p_port_3.started,Game_Start_Text.started,p_port_4.started,p_port_4.stopped,key_resp.started,key_resp.keys,key_resp.rt,fixation_cross.started,p_port_5.started,p_port_5.stopped,fixation_cross.stopped,p_port_6.started,player_image_intro.started,player_name_intro.started,p_port_7.started,p_port_7.stopped,p_port_8.started,player_image_offer.started,player_name_offer.started,proposed_split.started,p_port_9.started,p_port_9.stopped,proposed_split.stopped,accept_reject.started,p_port_15.started,p_port_15.stopped,accept_reject.stopped,p_port_10.started,player_image_offer.stopped,player_name_offer.stopped,arrow_instructions.started,offer_choice.started,p_port_11.started,p_port_11.stopped,offer_choice.keys,offer_choice.rt,Instructions_Affinity_Score.started,p_port_12.started,p_port_12.stopped,Instructions_Affinity_Score.stopped,Emotion_Image.started,AffinityScore.started,p_port_13.started,p_port_13.stopped,AffinityScore.response,AffinityScore.rt,Instruction.started,Moral_Disgust_Score.started,p_port_14.started,p_port_14.stopped,Moral_Disgust_Score.response,Moral_Disgust_Score.rt,player_image_intro.stopped,player_name_intro.stopped,p_port_6.stopped,participant,session,date,expName,psychopyVersion,frameRate,
,,,,,,,,15.545984000060706,0.0008148998022079468,0.11205779993906617,15.860706900246441,16.143962200172247,16.460828700102866,16.760767000168563,17.060651500243694,17.34395210016519,17.660594699904323,17.660594699904323,-0.0004476001486182213,0.09558299975469708,32.66065930016339,15.028851700015366,32.77762879990041,0.0124224997125566,0.112255800049752,33.260721700266004,space,1.8573443000204861,,,,,,,,,,,,,,,,,,,,,,,,,,,,,,,,,,,,,,,,,,,,,,,,,8770,Moral,2024-10-03_17h10.18.848,MoralCondition_v2,2022.2.5,30.022285527001944,
0,0,0,0,0,0,0,0,,,,,,,,,,,,,,,,,,,,,,35.1606526998803,0.0010049999691545963,0.09836209984496236,41.160721600055695,6.031718399841338,41.443992000073195,41.443992000073195,0.13749369978904724,0.2815665998496115,6.01499589998275,47.46060310024768,47.46060310024768,47.46060310024768,0.06985839968547225,0.1984908995218575,53.16071250010282,53.3609119001776,6.031912499573082,6.131833099760115,59.36067359987646,12.031714299693704,59.460863600019366,59.460863600019366,59.494020299986005,59.494020299986005,0.03204779978841543,0.13168029952794313,up,0.9996878001838923,60.52729619992897,1.4400109648704529e-05,0.09920539986342192,66.54394369991496,66.54394369991496,66.54394369991496,0.012978800106793642,0.11579670011997223,7.0,4.904090699739754,,,,,,,,,,8770,Moral,2024-10-03_17h10.18.848,MoralCondition_v2,2022.2.5,30.022285527001944,
0,0,0,0,1,0,1,0,,,,,,,,,,,,,,,,,,,,,,,,,,,,,,,,,,,,,,,,,,,,,,,,,,,,,,,71.49451930029318,71.49451930029318,0.01149610010907054,0.11579360021278262,5.0,4.172289100009948,,,,,,,,,,8770,Moral,2024-10-03_17h10.18.848,MoralCondition_v2,2022.2.5,30.022285527001944,
0,0,0,0,2,0,2,0,,,,,,,,,,,,,,,,,,,,,,,,,,,,,,,,,,,,,,,,,,,,,,,,,,,,,,,75.69396140007302,75.69396140007302,0.009004699997603893,0.09776940010488033,1.0,3.323249500244856,,,,,,,,,,8770,Moral,2024-10-03_17h10.18.848,MoralCondition_v2,2022.2.5,30.022285527001944,
0,0,0,0,3,0,3,0,,,,,,,,,,,,,,,,,,,,,,,,,,,,,,,,,,,,,,,,,,,,,,,,,,,,,,,79.07755970023572,79.07755970023572,0.009823800064623356,0.11443280009552836,3.0,8.572108699940145,,,,,,,,,,8770,Moral,2024-10-03_17h10.18.848,MoralCondition_v2,2022.2.5,30.022285527001944,
0,0,0,0,4,0,4,0,,,,,,,,,,,,,,,,,,,,,,,,,,,,,,,,,,,,,,,,,,,,,,,,,,,,,,,87.67715420015156,87.67715420015156,0.009259299840778112,0.09917220007628202,5.0,3.2910195998847485,,,,,,,,,,8770,Moral,2024-10-03_17h10.18.848,MoralCondition_v2,2022.2.5,30.022285527001944,
0,0,0,0,5,0,5,0,,,,,,,,,,,,,,,,,,,,,,,,,,,,,,,,,,,,,,,,,,,,,,,,,,,,,,,91.0105067002587,91.0105067002587,0.008508900180459023,0.09826420014724135,1.0,5.057389100082219,,,,,,,,,,8770,Moral,2024-10-03_17h10.18.848,MoralCondition_v2,2022.2.5,30.022285527001944,
0,0,0,0,6,0,6,0,,,,,,,,,,,,,,,,,,,,,,,,,,,,,,,,,,,,,,,,,,,,,,,,,,,,,,,96.1274512000382,96.1274512000382,0.010811499785631895,0.11477149976417422,3.0,5.0052414000965655,,,,,,,,,,8770,Moral,2024-10-03_17h10.18.848,MoralCondition_v2,2022.2.5,30.022285527001944,
0,0,0,0,,,,,,,,,,,,,,,,,,,,,,,,,,,,,,,,,,,,,,,,,,,,,,,,,,,,,,,,,,,,,,,,,101.16068430012092,101.16068430012092,0.0019601001404225826,0.09735390031710267,1.0,10.49666710011661,,,,8770,Moral,2024-10-03_17h10.18.848,MoralCondition_v2,2022.2.5,30.022285527001944,
1,0,1,0,0,0,0,0,,,,,,,,,,,,,,,,,,,,,,111.6942181000486,0.00022960035130381584,0.09796190029010177,117.7105942000635,6.014549300074577,117.87718489998952,117.87718489998952,0.0708241998218,0.1812256001867354,6.014546799939126,123.97739960020408,123.97739960020408,123.97739960020408,0.07136669987812638,0.18145069992169738,129.67727150022984,129.87745730020106,6.014760300051421,6.114548400044441,135.8772983001545,12.014565299730748,135.97726730024442,135.97726730024442,136.0106366002001,136.0106366002001,0.0146870999597013,0.11452029971405864,down,1.0596703002229333,137.1109207002446,2.8099864721298218e-05,0.0987737001851201,,143.14414229989052,143.14414229989052,0.026320400182157755,0.13221010006964207,1.0,2.4734331998042762,,,,,,,123.87728550005704,123.87728550005704,,8770,Moral,2024-10-03_17h10.18.848,MoralCondition_v2,2022.2.5,30.022285527001944,
1,0,1,0,1,0,1,0,,,,,,,,,,,,,,,,,,,,,,,,,,,,,,,,,,,,,,,,,,,,,,,,,,,,,,,145.64390549995005,145.64390549995005,0.008267499972134829,0.09785400005057454,4.0,7.890585800167173,,,,,,,,,,8770,Moral,2024-10-03_17h10.18.848,MoralCondition_v2,2022.2.5,30.022285527001944,
1,0,1,0,2,0,2,0,,,,,,,,,,,,,,,,,,,,,,,,,,,,,,,,,,,,,,,,,,,,,,,,,,,,,,,153.57713430002332,153.57713430002332,0.008882200345396996,0.09724130015820265,1.0,6.289567799773067,,,,,,,,,,8770,Moral,2024-10-03_17h10.18.848,MoralCondition_v2,2022.2.5,30.022285527001944,
1,0,1,0,3,0,3,0,,,,,,,,,,,,,,,,,,,,,,,,,,,,,,,,,,,,,,,,,,,,,,,,,,,,,,,159.9103998001665,159.9103998001665,0.006788900122046471,0.09898380003869534,7.0,1.9603113001212478,,,,,,,,,,8770,Moral,2024-10-03_17h10.18.848,MoralCondition_v2,2022.2.5,30.022285527001944,
1,0,1,0,4,0,4,0,,,,,,,,,,,,,,,,,,,,,,,,,,,,,,,,,,,,,,,,,,,,,,,,,,,,,,,161.92741960007697,161.92741960007697,0.008452599868178368,0.11473620031028986,2.0,3.3072355003096163,,,,,,,,,,8770,Moral,2024-10-03_17h10.18.848,MoralCondition_v2,2022.2.5,30.022285527001944,
1,0,1,0,5,0,5,0,,,,,,,,,,,,,,,,,,,,,,,,,,,,,,,,,,,,,,,,,,,,,,,,,,,,,,,165.26053189998493,165.26053189998493,0.007639899849891663,0.0980004002340138,7.0,1.4579416001215577,,,,,,,,,,8770,Moral,2024-10-03_17h10.18.848,MoralCondition_v2,2022.2.5,30.022285527001944,
1,0,1,0,6,0,6,0,,,,,,,,,,,,,,,,,,,,,,,,,,,,,,,,,,,,,,,,,,,,,,,,,,,,,,,166.76068529998884,166.76068529998884,0.007548099849373102,0.09792080009356141,1.0,8.091125499922782,,,,,,,,,,8770,Moral,2024-10-03_17h10.18.848,MoralCondition_v2,2022.2.5,30.022285527001944,
1,0,1,0,,,,,,,,,,,,,,,,,,,,,,,,,,,,,,,,,,,,,,,,,,,,,,,,,,,,,,,,,,,,,,,,,174.89409840013832,174.89409840013832,0.0018158000893890858,0.09784970013424754,1.0,4.197359099984169,,,,8770,Moral,2024-10-03_17h10.18.848,MoralCondition_v2,2022.2.5,30.022285527001944,
2,0,2,0,0,0,0,0,,,,,,,,,,,,,,,,,,,,,,179.1275201998651,0.0003079003654420376,0.09790180018171668,185.12723220000044,6.0312077002599835,185.34375460026786,185.34375460026786,0.1004339000210166,0.21451879991218448,6.014529699925333,191.41096650017425,191.41096650017425,191.41096650017425,0.0754700000397861,0.18141990015283227,197.1105398000218,197.3105708998628,6.014549400191754,6.114496299996972,203.31052190018818,12.014494199771434,203.41055590007454,203.41055590007454,203.4440223001875,203.4440223001875,0.014726599678397179,0.11445749970152974,up,3.5461559002287686,207.0438803001307,4.539964720606804e-05,0.09753589984029531,,213.06034850003198,213.06034850003198,0.0258327997289598,0.11431289976462722,2.0,3.389311700128019,,,,,,,,,,8770,Moral,2024-10-03_17h10.18.848,MoralCondition_v2,2022.2.5,30.022285527001944,
2,0,2,0,1,0,1,0,,,,,,,,,,,,,,,,,,,,,,,,,,,,,,,,,,,,,,,,,,,,,,,,,,,,,,,216.51050470024347,216.51050470024347,0.008854600135236979,0.11369429994374514,1.0,3.17250860016793,,,,,,,,,,8770,Moral,2024-10-03_17h10.18.848,MoralCondition_v2,2022.2.5,30.022285527001944,
2,0,2,0,2,0,2,0,,,,,,,,,,,,,,,,,,,,,,,,,,,,,,,,,,,,,,,,,,,,,,,,,,,,,,,219.71039790008217,219.71039790008217,0.007821400184184313,0.0978413000702858,2.0,3.091015700250864,,,,,,,,,,8770,Moral,2024-10-03_17h10.18.848,MoralCondition_v2,2022.2.5,30.022285527001944,
2,0,2,0,3,0,3,0,,,,,,,,,,,,,,,,,,,,,,,,,,,,,,,,,,,,,,,,,,,,,,,,,,,,,,,222.84398090001196,222.84398090001196,0.006677799858152866,0.0985885001718998,5.0,2.6260595000348985,,,,,,,,,,8770,Moral,2024-10-03_17h10.18.848,MoralCondition_v2,2022.2.5,30.022285527001944,
2,0,2,0,4,0,4,0,,,,,,,,,,,,,,,,,,,,,,,,,,,,,,,,,,,,,,,,,,,,,,,,,,,,,,,225.51051090005785,225.51051090005785,0.0073772999458014965,0.0977390999905765,1.0,3.0248243999667466,,,,,,,,,,8770,Moral,2024-10-03_17h10.18.848,MoralCondition_v2,2022.2.5,30.022285527001944,
2,0,2,0,5,0,5,0,,,,,,,,,,,,,,,,,,,,,,,,,,,,,,,,,,,,,,,,,,,,,,,,,,,,,,,228.59394650021568,228.59394650021568,0.009163999930024147,0.11383630009368062,5.0,2.9387535001151264,,,,,,,,,,8770,Moral,2024-10-03_17h10.18.848,MoralCondition_v2,2022.2.5,30.022285527001944,
2,0,2,0,6,0,6,0,,,,,,,,,,,,,,,,,,,,,,,,,,,,,,,,,,,,,,,,,,,,,,,,,,,,,,,231.56032579997554,231.56032579997554,0.006941299885511398,0.0982398996129632,6.0,2.359274400398135,,,,,,,,,,8770,Moral,2024-10-03_17h10.18.848,MoralCondition_v2,2022.2.5,30.022285527001944,
2,0,2,0,,,,,,,,,,,,,,,,,,,,,,,,,,,,,,,,,,,,,,,,,,,,,,,,,,,,,,,,,,,,,,,,,233.96049069985747,233.96049069985747,0.0010183998383581638,0.09849830018356442,2.0,2.9652577000670135,,,,8770,Moral,2024-10-03_17h10.18.848,MoralCondition_v2,2022.2.5,30.022285527001944,
3,0,3,0,0,0,0,0,,,,,,,,,,,,,,,,,,,,,,236.96073399996385,0.0003158003091812134,0.09795970004051924,242.9772979998961,6.014642599970102,243.14369790023193,243.14369790023193,0.07400500029325485,0.18120229989290237,6.0145383002236485,249.24374839989468,249.24374839989468,249.24374839989468,0.07150299986824393,0.1811994002200663,254.94401470012963,255.14380800025538,6.0145498001948,6.11450200015679,261.1439110999927,12.014667400158942,261.243815400172,261.243815400172,261.2771054999903,261.2771054999903,0.014704700093716383,0.11448480002582073,up,4.49681599996984,265.810435899999,4.650000482797623e-05,0.09761540032923222,271.8272024001926,271.8272024001926,271.8272024001926,0.009167599957436323,0.11435870034620166,2.0,3.3393110996112227,,,,,,,249.14391730027273,249.14391730027273,,8770,Moral,2024-10-03_17h10.18.848,MoralCondition_v2,2022.2.5,30.022285527001944,
3,0,3,0,1,0,1,0,,,,,,,,,,,,,,,,,,,,,,,,,,,,,,,,,,,,,,,,,,,,,,,,,,,,,,,275.2107254001312,275.2107254001312,0.009349000174552202,0.11367790028452873,1.0,1.4721652995795012,,,,,,,,,,8770,Moral,2024-10-03_17h10.18.848,MoralCondition_v2,2022.2.5,30.022285527001944,
3,0,3,0,2,0,2,0,,,,,,,,,,,,,,,,,,,,,,,,,,,,,,,,,,,,,,,,,,,,,,,,,,,,,,,276.71038890024647,276.71038890024647,0.007508799899369478,0.09814690006896853,6.0,1.8582263002172112,,,,,,,,,,8770,Moral,2024-10-03_17h10.18.848,MoralCondition_v2,2022.2.5,30.022285527001944,
3,0,3,0,3,0,3,0,,,,,,,,,,,,,,,,,,,,,,,,,,,,,,,,,,,,,,,,,,,,,,,,,,,,,,,278.6105347000994,278.6105347000994,0.007094999775290489,0.09752939967438579,5.0,3.691791099961847,,,,,,,,,,8770,Moral,2024-10-03_17h10.18.848,MoralCondition_v2,2022.2.5,30.022285527001944,
3,0,3,0,4,0,4,0,,,,,,,,,,,,,,,,,,,,,,,,,,,,,,,,,,,,,,,,,,,,,,,,,,,,,,,282.34366729995236,282.34366729995236,0.008192600216716528,0.09722460014745593,1.0,1.5903536998666823,,,,,,,,,,8770,Moral,2024-10-03_17h10.18.848,MoralCondition_v2,2022.2.5,30.022285527001944,
3,0,3,0,5,0,5,0,,,,,,,,,,,,,,,,,,,,,,,,,,,,,,,,,,,,,,,,,,,,,,,,,,,,,,,283.9771525999531,283.9771525999531,0.006999599747359753,0.09802819974720478,1.0,0.9254234000109136,,,,,,,,,,8770,Moral,2024-10-03_17h10.18.848,MoralCondition_v2,2022.2.5,30.022285527001944,
3,0,3,0,6,0,6,0,,,,,,,,,,,,,,,,,,,,,,,,,,,,,,,,,,,,,,,,,,,,,,,,,,,,,,,284.94392490014434,284.94392490014434,0.0077713001519441605,0.09767619986087084,6.0,1.7575591998174787,,,,,,,,,,8770,Moral,2024-10-03_17h10.18.848,MoralCondition_v2,2022.2.5,30.022285527001944,
3,0,3,0,,,,,,,,,,,,,,,,,,,,,,,,,,,,,,,,,,,,,,,,,,,,,,,,,,,,,,,,,,,,,,,,,286.74385150009766,286.74385150009766,0.0012721996754407883,0.09806189965456724,2.0,2.1979522998444736,,,,8770,Moral,2024-10-03_17h10.18.848,MoralCondition_v2,2022.2.5,30.022285527001944,
4,0,4,0,0,0,0,0,,,,,,,,,,,,,,,,,,,,,,288.97706260019913,0.00030060019344091415,0.09746420010924339,294.9937187000178,6.014118799939752,295.16015380015597,295.16015380015597,0.07487839972600341,0.1807821998372674,6.014111099764705,301.2602634001523,301.2602634001523,301.2602634001523,0.0733598000369966,0.18097199965268373,306.96046700002626,307.1604264001362,6.01421959977597,6.11432239972055,313.1603486998938,12.014103799592704,313.26036710012704,313.26036710012704,313.29370439983904,313.29370439983904,0.014304999727755785,0.11406209971755743,down,0.6718198000453413,314.0270402999595,4.00003045797348e-05,0.09801790025085211,,320.060629399959,320.060629399959,0.025519500020891428,0.13120010029524565,1.0,6.606703999917954,,,,,,,301.1604292001575,301.1604292001575,,8770,Moral,2024-10-03_17h10.18.848,MoralCondition_v2,2022.2.5,30.022285527001944,
4,0,4,0,1,0,1,0,,,,,,,,,,,,,,,,,,,,,,,,,,,,,,,,,,,,,,,,,,,,,,,,,,,,,,,326.6935984999873,326.6935984999873,0.007707700133323669,0.09829450026154518,1.0,6.357968300115317,,,,,,,,,,8770,Moral,2024-10-03_17h10.18.848,MoralCondition_v2,2022.2.5,30.022285527001944,
4,0,4,0,2,0,2,0,,,,,,,,,,,,,,,,,,,,,,,,,,,,,,,,,,,,,,,,,,,,,,,,,,,,,,,333.0936818001792,333.0936818001792,0.0069262003526091576,0.09711620025336742,1.0,0.8250893000513315,,,,,,,,,,8770,Moral,2024-10-03_17h10.18.848,MoralCondition_v2,2022.2.5,30.022285527001944,
4,0,4,0,3,0,3,0,,,,,,,,,,,,,,,,,,,,,,,,,,,,,,,,,,,,,,,,,,,,,,,,,,,,,,,333.96018399996683,333.96018399996683,0.006477300077676773,0.09822730021551251,1.0,0.8933220002800226,,,,,,,,,,8770,Moral,2024-10-03_17h10.18.848,MoralCondition_v2,2022.2.5,30.022285527001944,
4,0,4,0,4,0,4,0,,,,,,,,,,,,,,,,,,,,,,,,,,,,,,,,,,,,,,,,,,,,,,,,,,,,,,,334.9103760002181,334.9103760002181,0.007961700204759836,0.11424050014466047,6.0,2.4083530004136264,,,,,,,,,,8770,Moral,2024-10-03_17h10.18.848,MoralCondition_v2,2022.2.5,30.022285527001944,
4,0,4,0,5,0,5,0,,,,,,,,,,,,,,,,,,,,,,,,,,,,,,,,,,,,,,,,,,,,,,,,,,,,,,,337.343729800079,337.343729800079,0.0071494001895189285,0.09797400003299117,7.0,1.3587096999399364,,,,,,,,,,8770,Moral,2024-10-03_17h10.18.848,MoralCondition_v2,2022.2.5,30.022285527001944,
4,0,4,0,6,0,6,0,,,,,,,,,,,,,,,,,,,,,,,,,,,,,,,,,,,,,,,,,,,,,,,,,,,,,,,338.7434975998476,338.7434975998476,0.0067368000745773315,0.09876850014552474,2.0,1.6928670997731388,,,,,,,,,,8770,Moral,2024-10-03_17h10.18.848,MoralCondition_v2,2022.2.5,30.022285527001944,
4,0,4,0,,,,,,,,,,,,,,,,,,,,,,,,,,,,,,,,,,,,,,,,,,,,,,,,,,,,,,,,,,,,,,,,,340.4770360002294,340.4770360002294,0.0021265996620059013,0.09733579959720373,1.0,3.096409600228071,,,,8770,Moral,2024-10-03_17h10.18.848,MoralCondition_v2,2022.2.5,30.022285527001944,
5,0,5,0,0,0,0,0,,,,,,,,,,,,,,,,,,,,,,343.59360209992155,9.410036727786064e-05,0.09969520010054111,349.59362050006166,6.016182099934667,349.7935251998715,349.7935251998715,0.07599320029839873,0.18310899985954165,6.016164800152183,355.89366349997,355.89366349997,355.89366349997,0.0729402001015842,0.1828311001881957,361.59357699984685,361.7934695002623,6.016048199962825,6.116156000178307,367.79353829985484,12.016122499946505,367.89372469997033,367.89372469997033,367.92692140024155,367.92692140024155,0.01644290005788207,0.1160971000790596,up,0.6309418003074825,368.59358250023797,3.789970651268959e-05,0.09776389971375465,374.5934962001629,374.5934962001629,374.5934962001629,0.008039199747145176,0.09787030005827546,4.0,3.6908278996124864,,,,,,,355.7936563002877,355.7936563002877,,8770,Moral,2024-10-03_17h10.18.848,MoralCondition_v2,2022.2.5,30.022285527001944,
5,0,5,0,1,0,1,0,,,,,,,,,,,,,,,,,,,,,,,,,,,,,,,,,,,,,,,,,,,,,,,,,,,,,,,378.34388699987903,378.34388699987903,0.008690000046044588,0.11342819966375828,2.0,4.539185599889606,,,,,,,,,,8770,Moral,2024-10-03_17h10.18.848,MoralCondition_v2,2022.2.5,30.022285527001944,
5,0,5,0,2,0,2,0,,,,,,,,,,,,,,,,,,,,,,,,,,,,,,,,,,,,,,,,,,,,,,,,,,,,,,,382.91018280014396,382.91018280014396,0.006954999640583992,0.09819579962641001,1.0,1.758854600135237,,,,,,,,,,8770,Moral,2024-10-03_17h10.18.848,MoralCondition_v2,2022.2.5,30.022285527001944,
5,0,5,0,3,0,3,0,,,,,,,,,,,,,,,,,,,,,,,,,,,,,,,,,,,,,,,,,,,,,,,,,,,,,,,384.72706330008805,384.72706330008805,0.008440299890935421,0.11428490001708269,5.0,2.6402175999246538,,,,,,,,,,8770,Moral,2024-10-03_17h10.18.848,MoralCondition_v2,2022.2.5,30.022285527001944,
5,0,5,0,4,0,4,0,,,,,,,,,,,,,,,,,,,,,,,,,,,,,,,,,,,,,,,,,,,,,,,,,,,,,,,387.39347829995677,387.39347829995677,0.006621500011533499,0.09926920011639595,2.0,2.3604415003210306,,,,,,,,,,8770,Moral,2024-10-03_17h10.18.848,MoralCondition_v2,2022.2.5,30.022285527001944,
5,0,5,0,5,0,5,0,,,,,,,,,,,,,,,,,,,,,,,,,,,,,,,,,,,,,,,,,,,,,,,,,,,,,,,389.79365010000765,389.79365010000765,0.00774300005286932,0.09826670028269291,4.0,4.558194600045681,,,,,,,,,,8770,Moral,2024-10-03_17h10.18.848,MoralCondition_v2,2022.2.5,30.022285527001944,
5,0,5,0,6,0,6,0,,,,,,,,,,,,,,,,,,,,,,,,,,,,,,,,,,,,,,,,,,,,,,,,,,,,,,,394.39343900000677,394.39343900000677,0.00856740027666092,0.09787070006132126,2.0,2.1236148001626134,,,,,,,,,,8770,Moral,2024-10-03_17h10.18.848,MoralCondition_v2,2022.2.5,30.022285527001944,
5,0,5,0,,,,,,,,,,,,,,,,,,,,,,,,,,,,,,,,,,,,,,,,,,,,,,,,,,,,,,,,,,,,,,,,,396.56020059995353,396.56020059995353,0.0014318996109068394,0.09737719967961311,7.0,14.663617399986833,,,,8770,Moral,2024-10-03_17h10.18.848,MoralCondition_v2,2022.2.5,30.022285527001944,
6,0,6,0,0,0,0,0,,,,,,,,,,,,,,,,,,,,,,411.2602984998375,0.0003394000232219696,0.09749349998310208,417.27688860008493,6.014157199766487,417.4600729001686,417.4600729001686,0.08655219990760088,0.19737569987773895,6.030799199827015,423.5601828000508,423.5601828000508,423.5601828000508,0.09494619956240058,0.19779819948598742,429.260234599933,429.46028150012717,6.031005599536002,6.130789399612695,435.46028100000694,12.031004899647087,435.5600731000304,435.5600731000304,435.5934639000334,435.5934639000334,0.030908099375665188,0.130800299346447,down,0.43629790004342794,436.09344920003787,4.6700239181518555e-05,0.09776400029659271,442.10996610019356,442.10996610019356,442.10996610019356,0.008992299903184175,0.11425290023908019,1.0,1.77323600044474,,,,,,,423.46031069988385,423.46031069988385,,8770,Moral,2024-10-03_17h10.18.848,MoralCondition_v2,2022.2.5,30.022285527001944,
6,0,6,0,1,0,1,0,,,,,,,,,,,,,,,,,,,,,,,,,,,,,,,,,,,,,,,,,,,,,,,,,,,,,,,443.9099423000589,443.9099423000589,0.006656500045210123,0.09901869995519519,7.0,1.4932989003136754,,,,,,,,,,8770,Moral,2024-10-03_17h10.18.848,MoralCondition_v2,2022.2.5,30.022285527001944,
6,0,6,0,2,0,2,0,,,,,,,,,,,,,,,,,,,,,,,,,,,,,,,,,,,,,,,,,,,,,,,,,,,,,,,445.44339030003175,445.44339030003175,0.007452799938619137,0.09782359981909394,5.0,2.824911099858582,,,,,,,,,,8770,Moral,2024-10-03_17h10.18.848,MoralCondition_v2,2022.2.5,30.022285527001944,
6,0,6,0,3,0,3,0,,,,,,,,,,,,,,,,,,,,,,,,,,,,,,,,,,,,,,,,,,,,,,,,,,,,,,,448.310239400249,448.310239400249,0.007416300009936094,0.09784079995006323,7.0,1.5582181997597218,,,,,,,,,,8770,Moral,2024-10-03_17h10.18.848,MoralCondition_v2,2022.2.5,30.022285527001944,
6,0,6,0,4,0,4,0,,,,,,,,,,,,,,,,,,,,,,,,,,,,,,,,,,,,,,,,,,,,,,,,,,,,,,,449.9101610002108,449.9101610002108,0.007992599625140429,0.09822519961744547,4.0,3.391397699713707,,,,,,,,,,8770,Moral,2024-10-03_17h10.18.848,MoralCondition_v2,2022.2.5,30.022285527001944,
6,0,6,0,5,0,5,0,,,,,,,,,,,,,,,,,,,,,,,,,,,,,,,,,,,,,,,,,,,,,,,,,,,,,,,453.36010170029476,453.36010170029476,0.007948500104248524,0.11430390039458871,1.0,1.2407420999370515,,,,,,,,,,8770,Moral,2024-10-03_17h10.18.848,MoralCondition_v2,2022.2.5,30.022285527001944,
6,0,6,0,6,0,6,0,,,,,,,,,,,,,,,,,,,,,,,,,,,,,,,,,,,,,,,,,,,,,,,,,,,,,,,454.6266703000292,454.6266703000292,0.00663129985332489,0.09928599977865815,1.0,1.427057999651879,,,,,,,,,,8770,Moral,2024-10-03_17h10.18.848,MoralCondition_v2,2022.2.5,30.022285527001944,
6,0,6,0,,,,,,,,,,,,,,,,,,,,,,,,,,,,,,,,,,,,,,,,,,,,,,,,,,,,,,,,,,,,,,,,,456.0935786999762,456.0935786999762,0.0010974998585879803,0.09831729996949434,1.0,2.265201799571514,,,,8770,Moral,2024-10-03_17h10.18.848,MoralCondition_v2,2022.2.5,30.022285527001944,
7,0,7,0,0,0,0,0,,,,,,,,,,,,,,,,,,,,,,458.39362369989976,0.0003872998058795929,0.09730379981920123,464.39332959987223,6.030578200239688,464.59318310022354,464.59318310022354,0.09060159977525473,0.19730030000209808,6.030514900106937,470.69353559985757,470.69353559985757,470.69353559985757,0.09114430006593466,0.1972229997627437,476.3933081999421,476.59331130003557,6.030568799935281,6.130514399614185,482.59328019991517,12.03053079964593,482.6933114998974,482.6933114998974,482.7267367001623,482.7267367001623,0.030756099615246058,0.1305423998273909,up,0.3910547001287341,483.15993600012735,5.50001859664917e-05,0.09796980023384094,,489.1771370000206,489.1771370000206,0.025833699852228165,0.11445430014282465,4.0,2.0897977999411523,,,,,,,470.59335369989276,470.59335369989276,,8770,Moral,2024-10-03_17h10.18.848,MoralCondition_v2,2022.2.5,30.022285527001944,
7,0,7,0,1,0,1,0,,,,,,,,,,,,,,,,,,,,,,,,,,,,,,,,,,,,,,,,,,,,,,,,,,,,,,,491.30991500010714,491.30991500010714,0.007439299952238798,0.09831729996949434,2.0,1.991972700227052,,,,,,,,,,8770,Moral,2024-10-03_17h10.18.848,MoralCondition_v2,2022.2.5,30.022285527001944,
7,0,7,0,2,0,2,0,,,,,,,,,,,,,,,,,,,,,,,,,,,,,,,,,,,,,,,,,,,,,,,,,,,,,,,493.3433497999795,493.3433497999795,0.0070962002500891685,0.09803010011091828,6.0,2.492394800297916,,,,,,,,,,8770,Moral,2024-10-03_17h10.18.848,MoralCondition_v2,2022.2.5,30.022285527001944,
7,0,7,0,3,0,3,0,,,,,,,,,,,,,,,,,,,,,,,,,,,,,,,,,,,,,,,,,,,,,,,,,,,,,,,495.8764686002396,495.8764686002396,0.006400199607014656,0.09920059982687235,2.0,3.027909299824387,,,,,,,,,,8770,Moral,2024-10-03_17h10.18.848,MoralCondition_v2,2022.2.5,30.022285527001944,
7,0,7,0,4,0,4,0,,,,,,,,,,,,,,,,,,,,,,,,,,,,,,,,,,,,,,,,,,,,,,,,,,,,,,,498.94317220011726,498.94317220011726,0.007371900137513876,0.09845119994133711,1.0,1.8922762000001967,,,,,,,,,,8770,Moral,2024-10-03_17h10.18.848,MoralCondition_v2,2022.2.5,30.022285527001944,
7,0,7,0,5,0,5,0,,,,,,,,,,,,,,,,,,,,,,,,,,,,,,,,,,,,,,,,,,,,,,,,,,,,,,,500.8764129001647,500.8764129001647,0.006644600071012974,0.09856540011242032,2.0,2.226086299866438,,,,,,,,,,8770,Moral,2024-10-03_17h10.18.848,MoralCondition_v2,2022.2.5,30.022285527001944,
7,0,7,0,6,0,6,0,,,,,,,,,,,,,,,,,,,,,,,,,,,,,,,,,,,,,,,,,,,,,,,,,,,,,,,503.1430915999226,503.1430915999226,0.006390899885445833,0.0992152001708746,2.0,1.4276604996994138,,,,,,,,,,8770,Moral,2024-10-03_17h10.18.848,MoralCondition_v2,2022.2.5,30.022285527001944,
7,0,7,0,,,,,,,,,,,,,,,,,,,,,,,,,,,,,,,,,,,,,,,,,,,,,,,,,,,,,,,,,,,,,,,,,504.6098724999465,504.6098724999465,0.001173499971628189,0.09767810022458434,7.0,2.131153100170195,,,,8770,Moral,2024-10-03_17h10.18.848,MoralCondition_v2,2022.2.5,30.022285527001944,
8,0,8,0,0,0,0,0,,,,,,,,,,,,,,,,,,,,,,506.7768383999355,0.00023780018091201782,0.09846850018948317,512.79317119997,6.0150303998962045,512.9596870001405,512.9596870001405,0.08156319987028837,0.18169490015134215,6.014978399965912,519.0601256000809,519.0601256000809,519.0601256000809,0.0671009998768568,0.18153110006824136,524.7600584002212,524.9599172002636,6.015137999784201,6.114974699914455,530.9598300000653,12.015031199902296,531.0429845000617,531.0429845000617,531.0931422999129,531.0931422999129,0.01489829970523715,0.11493329983204603,down,0.3445939999073744,531.4929773001932,1.2699980288743973e-05,0.09909299993887544,,537.5096305999905,537.5096305999905,0.027630599681288004,0.11625090008601546,1.0,2.2560751996934414,,,,,,,518.9430162999779,518.9430162999779,,8770,Moral,2024-10-03_17h10.18.848,MoralCondition_v2,2022.2.5,30.022285527001944,
8,0,8,0,1,0,1,0,,,,,,,,,,,,,,,,,,,,,,,,,,,,,,,,,,,,,,,,,,,,,,,,,,,,,,,539.8097991002724,539.8097991002724,0.007160699926316738,0.09850549977272749,5.0,3.6252756002359092,,,,,,,,,,8770,Moral,2024-10-03_17h10.18.848,MoralCondition_v2,2022.2.5,30.022285527001944,
8,0,8,0,2,0,2,0,,,,,,,,,,,,,,,,,,,,,,,,,,,,,,,,,,,,,,,,,,,,,,,,,,,,,,,543.493141700048,543.493141700048,0.009191699791699648,0.11471380013972521,1.0,2.139631699770689,,,,,,,,,,8770,Moral,2024-10-03_17h10.18.848,MoralCondition_v2,2022.2.5,30.022285527001944,
8,0,8,0,3,0,3,0,,,,,,,,,,,,,,,,,,,,,,,,,,,,,,,,,,,,,,,,,,,,,,,,,,,,,,,545.6766797001474,545.6766797001474,0.008605800103396177,0.11456899996846914,6.0,3.3734240997582674,,,,,,,,,,8770,Moral,2024-10-03_17h10.18.848,MoralCondition_v2,2022.2.5,30.022285527001944,
8,0,8,0,4,0,4,0,,,,,,,,,,,,,,,,,,,,,,,,,,,,,,,,,,,,,,,,,,,,,,,,,,,,,,,549.0763885001652,549.0763885001652,0.006823899690061808,0.09926659986376762,1.0,2.19322540005669,,,,,,,,,,8770,Moral,2024-10-03_17h10.18.848,MoralCondition_v2,2022.2.5,30.022285527001944,
8,0,8,0,5,0,5,0,,,,,,,,,,,,,,,,,,,,,,,,,,,,,,,,,,,,,,,,,,,,,,,,,,,,,,,551.3097601002082,551.3097601002082,0.007407499942928553,0.09872920019552112,7.0,1.3918321002274752,,,,,,,,,,8770,Moral,2024-10-03_17h10.18.848,MoralCondition_v2,2022.2.5,30.022285527001944,
8,0,8,0,6,0,6,0,,,,,,,,,,,,,,,,,,,,,,,,,,,,,,,,,,,,,,,,,,,,,,,,,,,,,,,552.7434836002067,552.7434836002067,0.007213300094008446,0.0974177997559309,1.0,5.39086649985984,,,,,,,,,,8770,Moral,2024-10-03_17h10.18.848,MoralCondition_v2,2022.2.5,30.022285527001944,
8,0,8,0,,,,,,,,,,,,,,,,,,,,,,,,,,,,,,,,,,,,,,,,,,,,,,,,,,,,,,,,,,,,,,,,,558.1764429002069,558.1764429002069,0.0012836996465921402,0.09777759993448853,1.0,4.19765210011974,,,,8770,Moral,2024-10-03_17h10.18.848,MoralCondition_v2,2022.2.5,30.022285527001944,
9,0,9,0,0,0,0,0,,,,,,,,,,,,,,,,,,,,,,562.4099594000727,0.00031269993633031845,0.09744209982454777,568.426338700112,6.014028899837285,568.5931584001519,568.5931584001519,0.07805359968915582,0.1809431998990476,6.014169199857861,574.6930764000863,574.6930764000863,574.6930764000863,0.0703206998296082,0.1808230997994542,580.3929825001396,580.5929812998511,6.014061699621379,6.114063799846917,586.5929689002223,12.014218699652702,586.6929307999089,586.6929307999089,586.7263603000902,586.7263603000902,0.014185999520123005,0.11417149938642979,down,1.2399229002185166,588.0095987999812,5.13000413775444e-05,0.09776590019464493,594.0095222000964,594.0095222000964,594.0095222000964,0.006701699923723936,0.09791469993069768,1.0,3.1920853997580707,,,,,,,574.5930026001297,574.5930026001297,,8770,Moral,2024-10-03_17h10.18.848,MoralCondition_v2,2022.2.5,30.022285527001944,
9,0,9,0,1,0,1,0,,,,,,,,,,,,,,,,,,,,,,,,,,,,,,,,,,,,,,,,,,,,,,,,,,,,,,,597.2427588999271,597.2427588999271,0.006850400008261204,0.0992986997589469,1.0,1.693313100375235,,,,,,,,,,8770,Moral,2024-10-03_17h10.18.848,MoralCondition_v2,2022.2.5,30.022285527001944,
9,0,9,0,2,0,2,0,,,,,,,,,,,,,,,,,,,,,,,,,,,,,,,,,,,,,,,,,,,,,,,,,,,,,,,598.9763946998864,598.9763946998864,0.00710330018773675,0.09832190023735166,5.0,3.792109100148082,,,,,,,,,,8770,Moral,2024-10-03_17h10.18.848,MoralCondition_v2,2022.2.5,30.022285527001944,
9,0,9,0,3,0,3,0,,,,,,,,,,,,,,,,,,,,,,,,,,,,,,,,,,,,,,,,,,,,,,,,,,,,,,,602.8097399002872,602.8097399002872,0.006475500296801329,0.09845530008897185,7.0,1.3595861997455359,,,,,,,,,,8770,Moral,2024-10-03_17h10.18.848,MoralCondition_v2,2022.2.5,30.022285527001944,
9,0,9,0,4,0,4,0,,,,,,,,,,,,,,,,,,,,,,,,,,,,,,,,,,,,,,,,,,,,,,,,,,,,,,,604.2264673998579,604.2264673998579,0.0077619003131985664,0.11472130008041859,2.0,1.9412428000941873,,,,,,,,,,8770,Moral,2024-10-03_17h10.18.848,MoralCondition_v2,2022.2.5,30.022285527001944,
9,0,9,0,5,0,5,0,,,,,,,,,,,,,,,,,,,,,,,,,,,,,,,,,,,,,,,,,,,,,,,,,,,,,,,606.192902599927,606.192902599927,0.00629349984228611,0.09881279990077019,1.0,1.0935002998448908,,,,,,,,,,8770,Moral,2024-10-03_17h10.18.848,MoralCondition_v2,2022.2.5,30.022285527001944,
9,0,9,0,6,0,6,0,,,,,,,,,,,,,,,,,,,,,,,,,,,,,,,,,,,,,,,,,,,,,,,,,,,,,,,607.3261317000724,607.3261317000724,0.007516200188547373,0.09923919988796115,6.0,4.4597955998033285,,,,,,,,,,8770,Moral,2024-10-03_17h10.18.848,MoralCondition_v2,2022.2.5,30.022285527001944,
9,0,9,0,,,,,,,,,,,,,,,,,,,,,,,,,,,,,,,,,,,,,,,,,,,,,,,,,,,,,,,,,,,,,,,,,611.8261183002032,611.8261183002032,0.0006928001530468464,0.09925279999151826,1.0,2.5328885996714234,,,,8770,Moral,2024-10-03_17h10.18.848,MoralCondition_v2,2022.2.5,30.022285527001944,
10,0,10,0,0,0,0,0,,,,,,,,,,,,,,,,,,,,,,614.3928200001828,0.00025120005011558533,0.09807519987225533,620.4095951998606,6.014944499824196,620.5761032002047,620.5761032002047,0.07856229972094297,0.1815894995816052,6.015025299973786,626.6760030002333,626.6760030002333,626.6760030002333,0.07699529966339469,0.181717399507761,632.3762516002171,632.5761028002016,6.01491369958967,6.114901899825782,638.576339200139,12.015136199537665,638.6761006000452,638.6761006000452,638.7094246000051,638.7094246000051,0.015062599442899227,0.11488529946655035,down,0.47279979987069964,639.2427791999653,5.4200179874897e-05,0.09765359992161393,,645.2592839999124,645.2592839999124,0.024975799955427647,0.1144306999631226,7.0,1.85723269963637,,,,,,,626.5761346002109,626.5761346002109,,8770,Moral,2024-10-03_17h10.18.848,MoralCondition_v2,2022.2.5,30.022285527001944,
10,0,10,0,1,0,1,0,,,,,,,,,,,,,,,,,,,,,,,,,,,,,,,,,,,,,,,,,,,,,,,,,,,,,,,647.1591930002905,647.1591930002905,0.006953199859708548,0.09843769995495677,1.0,1.6257444000802934,,,,,,,,,,8770,Moral,2024-10-03_17h10.18.848,MoralCondition_v2,2022.2.5,30.022285527001944,
10,0,10,0,2,0,2,0,,,,,,,,,,,,,,,,,,,,,,,,,,,,,,,,,,,,,,,,,,,,,,,,,,,,,,,648.825875800103,648.825875800103,0.006321500055491924,0.09902759967371821,6.0,8.36060189967975,,,,,,,,,,8770,Moral,2024-10-03_17h10.18.848,MoralCondition_v2,2022.2.5,30.022285527001944,
10,0,10,0,3,0,3,0,,,,,,,,,,,,,,,,,,,,,,,,,,,,,,,,,,,,,,,,,,,,,,,,,,,,,,,657.2260100999847,657.2260100999847,0.006648399867117405,0.0990709001198411,7.0,1.1605225000530481,,,,,,,,,,8770,Moral,2024-10-03_17h10.18.848,MoralCondition_v2,2022.2.5,30.022285527001944,
10,0,10,0,4,0,4,0,,,,,,,,,,,,,,,,,,,,,,,,,,,,,,,,,,,,,,,,,,,,,,,,,,,,,,,658.4258693000302,658.4258693000302,0.006716799922287464,0.09945530025288463,1.0,1.860194600187242,,,,,,,,,,8770,Moral,2024-10-03_17h10.18.848,MoralCondition_v2,2022.2.5,30.022285527001944,
10,0,10,0,5,0,5,0,,,,,,,,,,,,,,,,,,,,,,,,,,,,,,,,,,,,,,,,,,,,,,,,,,,,,,,660.326107100118,660.326107100118,0.00816759979352355,0.09753149980679154,1.0,0.823763900436461,,,,,,,,,,8770,Moral,2024-10-03_17h10.18.848,MoralCondition_v2,2022.2.5,30.022285527001944,
10,0,10,0,6,0,6,0,,,,,,,,,,,,,,,,,,,,,,,,,,,,,,,,,,,,,,,,,,,,,,,,,,,,,,,661.2096820999868,661.2096820999868,0.008197799790650606,0.11473459983244538,1.0,0.7406233996152878,,,,,,,,,,8770,Moral,2024-10-03_17h10.18.848,MoralCondition_v2,2022.2.5,30.022285527001944,
10,0,10,0,,,,,,,,,,,,,,,,,,,,,,,,,,,,,,,,,,,,,,,,,,,,,,,,,,,,,,,,,,,,,,,,,661.9760313001461,661.9760313001461,0.0018210997804999352,0.09748010011389852,1.0,1.7301917998120189,,,,8770,Moral,2024-10-03_17h10.18.848,MoralCondition_v2,2022.2.5,30.022285527001944,
11,0,11,0,0,0,0,0,,,,,,,,,,,,,,,,,,,,,,663.7428743001074,0.00031010014936327934,0.09754540026187897,669.7426347001456,6.030782300047576,669.942449899856,669.942449899856,0.09132150001823902,0.1973712001927197,6.030844599939883,676.0425932998769,676.0425932998769,676.0425932998769,0.09034499991685152,0.19765060022473335,681.7426271000877,681.942754900083,6.030894299969077,6.131104200147092,687.9425965999253,12.030742600094527,688.0259402999654,688.0259402999654,688.0595002002083,688.0595002002083,0.014231899753212929,0.11428169999271631,up,1.2989694997668266,689.3925769999623,9.039975702762604e-05,0.0977905998006463,695.4093808000907,695.4093808000907,695.4093808000907,0.009323099628090858,0.11428599990904331,1.0,1.5729078999720514,,,,,,,675.9426460000686,675.9426460000686,,8770,Moral,2024-10-03_17h10.18.848,MoralCondition_v2,2022.2.5,30.022285527001944,
11,0,11,0,1,0,1,0,,,,,,,,,,,,,,,,,,,,,,,,,,,,,,,,,,,,,,,,,,,,,,,,,,,,,,,697.0092055001296,697.0092055001296,0.007628300227224827,0.09770110016688704,1.0,1.9247692003846169,,,,,,,,,,8770,Moral,2024-10-03_17h10.18.848,MoralCondition_v2,2022.2.5,30.022285527001944,
11,0,11,0,2,0,2,0,,,,,,,,,,,,,,,,,,,,,,,,,,,,,,,,,,,,,,,,,,,,,,,,,,,,,,,698.9758454998955,698.9758454998955,0.007608499843627214,0.09742649970576167,7.0,2.224272800143808,,,,,,,,,,8770,Moral,2024-10-03_17h10.18.848,MoralCondition_v2,2022.2.5,30.022285527001944,
11,0,11,0,3,0,3,0,,,,,,,,,,,,,,,,,,,,,,,,,,,,,,,,,,,,,,,,,,,,,,,,,,,,,,,701.2425059000961,701.2425059000961,0.007332200184464455,0.09769840026274323,1.0,1.858304999768734,,,,,,,,,,8770,Moral,2024-10-03_17h10.18.848,MoralCondition_v2,2022.2.5,30.022285527001944,
11,0,11,0,4,0,4,0,,,,,,,,,,,,,,,,,,,,,,,,,,,,,,,,,,,,,,,,,,,,,,,,,,,,,,,703.1425834000111,703.1425834000111,0.006544199772179127,0.09925389988347888,7.0,1.526946000289172,,,,,,,,,,8770,Moral,2024-10-03_17h10.18.848,MoralCondition_v2,2022.2.5,30.022285527001944,
11,0,11,0,5,0,5,0,,,,,,,,,,,,,,,,,,,,,,,,,,,,,,,,,,,,,,,,,,,,,,,,,,,,,,,704.7257003001869,704.7257003001869,0.008211799897253513,0.11408729990944266,6.0,5.540361799765378,,,,,,,,,,8770,Moral,2024-10-03_17h10.18.848,MoralCondition_v2,2022.2.5,30.022285527001944,
11,0,11,0,6,0,6,0,,,,,,,,,,,,,,,,,,,,,,,,,,,,,,,,,,,,,,,,,,,,,,,,,,,,,,,710.292446100153,710.292446100153,0.006878499872982502,0.09919569967314601,1.0,1.7600318002514541,,,,,,,,,,8770,Moral,2024-10-03_17h10.18.848,MoralCondition_v2,2022.2.5,30.022285527001944,
11,0,11,0,,,,,,,,,,,,,,,,,,,,,,,,,,,,,,,,,,,,,,,,,,,,,,,,,,,,,,,,,,,,,,,,,712.0924561000429,712.0924561000429,0.0015404000878334045,0.09787770034745336,1.0,1.864563699811697,,,,8770,Moral,2024-10-03_17h10.18.848,MoralCondition_v2,2022.2.5,30.022285527001944,
12,0,12,0,0,0,0,0,,,,,,,,,,,,,,,,,,,,,,713.992833700031,0.00016279984265565872,0.09844009997323155,719.9925878001377,6.031852500047535,720.1925506000407,720.1925506000407,0.09820149978622794,0.19837479991838336,6.0316530000418425,726.2925781998783,726.2925781998783,726.2925781998783,0.09423509985208511,0.19853129982948303,731.9926120000891,732.1924057002179,6.031678499653935,6.131600799970329,738.1924029001966,12.03166119987145,738.2756210998632,738.2756210998632,738.3090865002014,738.3090865002014,0.015034799464046955,0.11494489945471287,down,0.6013273997232318,738.9758170000277,4.1800085455179214e-05,0.09782689996063709,,745.0089952000417,745.0089952000417,0.025586300063878298,0.1313403001986444,5.0,4.9070206000469625,,,,,,,726.1924765999429,726.1924765999429,,8770,Moral,2024-10-03_17h10.18.848,MoralCondition_v2,2022.2.5,30.022285527001944,
12,0,12,0,1,0,1,0,,,,,,,,,,,,,,,,,,,,,,,,,,,,,,,,,,,,,,,,,,,,,,,,,,,,,,,749.9423631001264,749.9423631001264,0.006833199877291918,0.09888980025425553,1.0,3.1605599001049995,,,,,,,,,,8770,Moral,2024-10-03_17h10.18.848,MoralCondition_v2,2022.2.5,30.022285527001944,
12,0,12,0,2,0,2,0,,,,,,,,,,,,,,,,,,,,,,,,,,,,,,,,,,,,,,,,,,,,,,,,,,,,,,,753.1422915002331,753.1422915002331,0.007839299738407135,0.09820269979536533,7.0,1.6245887000113726,,,,,,,,,,8770,Moral,2024-10-03_17h10.18.848,MoralCondition_v2,2022.2.5,30.022285527001944,
12,0,12,0,3,0,3,0,,,,,,,,,,,,,,,,,,,,,,,,,,,,,,,,,,,,,,,,,,,,,,,,,,,,,,,754.8090110998601,754.8090110998601,0.006727100349962711,0.09957010019570589,7.0,0.726736499927938,,,,,,,,,,8770,Moral,2024-10-03_17h10.18.848,MoralCondition_v2,2022.2.5,30.022285527001944,
12,0,12,0,4,0,4,0,,,,,,,,,,,,,,,,,,,,,,,,,,,,,,,,,,,,,,,,,,,,,,,,,,,,,,,755.575646399986,755.575646399986,0.0077504003420472145,0.09828930022194982,1.0,1.291180099826306,,,,,,,,,,8770,Moral,2024-10-03_17h10.18.848,MoralCondition_v2,2022.2.5,30.022285527001944,
12,0,12,0,5,0,5,0,,,,,,,,,,,,,,,,,,,,,,,,,,,,,,,,,,,,,,,,,,,,,,,,,,,,,,,756.9088953998871,756.9088953998871,0.007069099694490433,0.0982027999125421,1.0,0.8258956000208855,,,,,,,,,,8770,Moral,2024-10-03_17h10.18.848,MoralCondition_v2,2022.2.5,30.022285527001944,
12,0,12,0,6,0,6,0,,,,,,,,,,,,,,,,,,,,,,,,,,,,,,,,,,,,,,,,,,,,,,,,,,,,,,,757.7756408001296,757.7756408001296,0.007528200279921293,0.0979657000862062,5.0,2.624979800079018,,,,,,,,,,8770,Moral,2024-10-03_17h10.18.848,MoralCondition_v2,2022.2.5,30.022285527001944,
12,0,12,0,,,,,,,,,,,,,,,,,,,,,,,,,,,,,,,,,,,,,,,,,,,,,,,,,,,,,,,,,,,,,,,,,760.4422352998517,760.4422352998517,0.0014547002501785755,0.09723479999229312,1.0,1.5637103002518415,,,,8770,Moral,2024-10-03_17h10.18.848,MoralCondition_v2,2022.2.5,30.022285527001944,
13,0,13,0,0,0,0,0,,,,,,,,,,,,,,,,,,,,,,762.0425121001899,0.00013459986075758934,0.09913209965452552,768.0589681998827,6.015707999933511,768.2589471000247,768.2589471000247,0.10640599997714162,0.21596389962360263,6.015862199943513,774.3253770000301,774.3253770000301,774.3253770000301,0.06993089942261577,0.18229369958862662,780.0256373002194,780.2258235998452,6.015956299845129,6.115519099868834,786.2255750000477,12.015717799775302,786.3088169000112,786.3088169000112,786.3420342998579,786.3420342998579,0.015569199342280626,0.09896069951355457,up,0.3758163000456989,786.7755619999953,4.540011286735535e-05,0.0979933999478817,,792.808872200083,792.808872200083,0.026045999955385923,0.13124040002003312,4.0,4.222506399732083,,,,,,,,,,8770,Moral,2024-10-03_17h10.18.848,MoralCondition_v2,2022.2.5,30.022285527001944,
13,0,13,0,1,0,1,0,,,,,,,,,,,,,,,,,,,,,,,,,,,,,,,,,,,,,,,,,,,,,,,,,,,,,,,797.0754507002421,797.0754507002421,0.014850399922579527,0.11596229998394847,2.0,2.5860816002823412,,,,,,,,,,8770,Moral,2024-10-03_17h10.18.848,MoralCondition_v2,2022.2.5,30.022285527001944,
13,0,13,0,2,0,2,0,,,,,,,,,,,,,,,,,,,,,,,,,,,,,,,,,,,,,,,,,,,,,,,,,,,,,,,799.6920863999985,799.6920863999985,0.007049900013953447,0.0991052002646029,1.0,1.4930238001979887,,,,,,,,,,8770,Moral,2024-10-03_17h10.18.848,MoralCondition_v2,2022.2.5,30.022285527001944,
13,0,13,0,3,0,3,0,,,,,,,,,,,,,,,,,,,,,,,,,,,,,,,,,,,,,,,,,,,,,,,,,,,,,,,801.2253350000829,801.2253350000829,0.007333899848163128,0.09914459986612201,1.0,1.5928509999066591,,,,,,,,,,8770,Moral,2024-10-03_17h10.18.848,MoralCondition_v2,2022.2.5,30.022285527001944,
13,0,13,0,4,0,4,0,,,,,,,,,,,,,,,,,,,,,,,,,,,,,,,,,,,,,,,,,,,,,,,,,,,,,,,802.8756816000678,802.8756816000678,0.013283499982208014,0.11434690002351999,1.0,1.1020260001532733,,,,,,,,,,8770,Moral,2024-10-03_17h10.18.848,MoralCondition_v2,2022.2.5,30.022285527001944,
13,0,13,0,5,0,5,0,,,,,,,,,,,,,,,,,,,,,,,,,,,,,,,,,,,,,,,,,,,,,,,,,,,,,,,804.0254199001938,804.0254199001938,0.009470200166106224,0.11478779977187514,7.0,2.0063189999200404,,,,,,,,,,8770,Moral,2024-10-03_17h10.18.848,MoralCondition_v2,2022.2.5,30.022285527001944,
13,0,13,0,6,0,6,0,,,,,,,,,,,,,,,,,,,,,,,,,,,,,,,,,,,,,,,,,,,,,,,,,,,,,,,806.0587169998325,806.0587169998325,0.007901799865067005,0.09944320004433393,1.0,2.292443800251931,,,,,,,,,,8770,Moral,2024-10-03_17h10.18.848,MoralCondition_v2,2022.2.5,30.022285527001944,
13,0,13,0,,,,,,,,,,,,,,,,,,,,,,,,,,,,,,,,,,,,,,,,,,,,,,,,,,,,,,,,,,,,,,,,,808.3921240000054,808.3921240000054,0.0010373000986874104,0.09818639978766441,7.0,3.1317048999480903,,,,8770,Moral,2024-10-03_17h10.18.848,MoralCondition_v2,2022.2.5,30.022285527001944,
14,0,14,0,0,0,0,0,,,,,,,,,,,,,,,,,,,,,,811.5589515999891,0.00026750005781650543,0.09785040002316236,817.5754029001109,6.014562900178134,817.7757624001242,817.7757624001242,0.10259760031476617,0.21446890011429787,6.014393900055438,823.8417992000468,823.8417992000468,823.8417992000468,0.07809570012614131,0.18107260018587112,829.5421356000006,829.742334799841,6.014704800210893,6.114454800263047,835.742254300043,12.014610799960792,835.8421348002739,835.8421348002739,835.8753889002837,835.8753889002837,0.014632599893957376,0.11436690017580986,up,0.6990264998748899,836.6087128999643,4.860013723373413e-05,0.09793600020930171,842.6253463001922,842.6253463001922,842.6253463001922,0.009808800183236599,0.1147150001488626,1.0,1.7393196998164058,,,,,,,,,,8770,Moral,2024-10-03_17h10.18.848,MoralCondition_v2,2022.2.5,30.022285527001944,
14,0,14,0,1,0,1,0,,,,,,,,,,,,,,,,,,,,,,,,,,,,,,,,,,,,,,,,,,,,,,,,,,,,,,,844.3921151999384,844.3921151999384,0.006542100105434656,0.09702569991350174,7.0,1.3917093998752534,,,,,,,,,,8770,Moral,2024-10-03_17h10.18.848,MoralCondition_v2,2022.2.5,30.022285527001944,
14,0,14,0,2,0,2,0,,,,,,,,,,,,,,,,,,,,,,,,,,,,,,,,,,,,,,,,,,,,,,,,,,,,,,,845.842318400275,845.842318400275,0.007915600202977657,0.11417770013213158,1.0,1.5740966997109354,,,,,,,,,,8770,Moral,2024-10-03_17h10.18.848,MoralCondition_v2,2022.2.5,30.022285527001944,
14,0,14,0,3,0,3,0,,,,,,,,,,,,,,,,,,,,,,,,,,,,,,,,,,,,,,,,,,,,,,,,,,,,,,,847.4419901999645,847.4419901999645,0.0062675997614860535,0.09821929968893528,5.0,1.6597962002269924,,,,,,,,,,8770,Moral,2024-10-03_17h10.18.848,MoralCondition_v2,2022.2.5,30.022285527001944,
14,0,14,0,4,0,4,0,,,,,,,,,,,,,,,,,,,,,,,,,,,,,,,,,,,,,,,,,,,,,,,,,,,,,,,849.1419588001445,849.1419588001445,0.010221799835562706,0.09796189982444048,1.0,3.7555178003385663,,,,,,,,,,8770,Moral,2024-10-03_17h10.18.848,MoralCondition_v2,2022.2.5,30.022285527001944,
14,0,14,0,5,0,5,0,,,,,,,,,,,,,,,,,,,,,,,,,,,,,,,,,,,,,,,,,,,,,,,,,,,,,,,852.9418828999624,852.9418828999624,0.007113299798220396,0.09801199985668063,7.0,1.1920996997505426,,,,,,,,,,8770,Moral,2024-10-03_17h10.18.848,MoralCondition_v2,2022.2.5,30.022285527001944,
14,0,14,0,6,0,6,0,,,,,,,,,,,,,,,,,,,,,,,,,,,,,,,,,,,,,,,,,,,,,,,,,,,,,,,854.1752420002595,854.1752420002595,0.00695009995251894,0.09892609994858503,6.0,1.7931709000840783,,,,,,,,,,8770,Moral,2024-10-03_17h10.18.848,MoralCondition_v2,2022.2.5,30.022285527001944,
14,0,14,0,,,,,,,,,,,,,,,,,,,,,,,,,,,,,,,,,,,,,,,,,,,,,,,,,,,,,,,,,,,,,,,,,856.0086937001906,856.0086937001906,0.0013868999667465687,0.0993984998203814,1.0,1.965795200318098,,,,8770,Moral,2024-10-03_17h10.18.848,MoralCondition_v2,2022.2.5,30.022285527001944,
15,0,15,0,0,0,0,0,,,,,,,,,,,,,,,,,,,,,,858.0088740000501,0.00027079973369836807,0.097522699739784,864.0252650002949,6.0142067996785045,864.1919708000496,864.1919708000496,0.07812169985845685,0.1810527998022735,6.014149299822748,870.2919847001322,870.2919847001322,870.2919847001322,0.07645099982619286,0.18090409971773624,875.991953600198,876.1919052000158,6.014150799717754,6.114212499465793,882.1920445999131,12.014302499592304,882.2920118002221,882.2920118002221,882.3253040001728,882.3253040001728,0.014447899535298347,0.11409429972991347,up,0.4564756997860968,882.8252249001525,4.62997704744339e-05,0.09776569996029139,,888.8587282998487,888.8587282998487,0.025222300086170435,0.13094819989055395,5.0,2.5069271000102162,,,,,,,870.1919193002395,870.1919193002395,,8770,Moral,2024-10-03_17h10.18.848,MoralCondition_v2,2022.2.5,30.022285527001944,
15,0,15,0,1,0,1,0,,,,,,,,,,,,,,,,,,,,,,,,,,,,,,,,,,,,,,,,,,,,,,,,,,,,,,,891.3918460002169,891.3918460002169,0.006644700188189745,0.09905750025063753,7.0,1.4268439998850226,,,,,,,,,,8770,Moral,2024-10-03_17h10.18.848,MoralCondition_v2,2022.2.5,30.022285527001944,
15,0,15,0,2,0,2,0,,,,,,,,,,,,,,,,,,,,,,,,,,,,,,,,,,,,,,,,,,,,,,,,,,,,,,,892.8585099000484,892.8585099000484,0.00730849988758564,0.09793520020321012,2.0,1.691960799973458,,,,,,,,,,8770,Moral,2024-10-03_17h10.18.848,MoralCondition_v2,2022.2.5,30.022285527001944,
15,0,15,0,3,0,3,0,,,,,,,,,,,,,,,,,,,,,,,,,,,,,,,,,,,,,,,,,,,,,,,,,,,,,,,894.6088068000972,894.6088068000972,0.008394100237637758,0.11457950016483665,1.0,1.9403739999979734,,,,,,,,,,8770,Moral,2024-10-03_17h10.18.848,MoralCondition_v2,2022.2.5,30.022285527001944,
15,0,15,0,4,0,4,0,,,,,,,,,,,,,,,,,,,,,,,,,,,,,,,,,,,,,,,,,,,,,,,,,,,,,,,896.5751666999422,896.5751666999422,0.007709399797022343,0.09798859991133213,1.0,0.9581086998805404,,,,,,,,,,8770,Moral,2024-10-03_17h10.18.848,MoralCondition_v2,2022.2.5,30.022285527001944,
15,0,15,0,5,0,5,0,,,,,,,,,,,,,,,,,,,,,,,,,,,,,,,,,,,,,,,,,,,,,,,,,,,,,,,897.5751132001169,897.5751132001169,0.007823700085282326,0.09792680013924837,1.0,1.3245918001048267,,,,,,,,,,8770,Moral,2024-10-03_17h10.18.848,MoralCondition_v2,2022.2.5,30.022285527001944,
15,0,15,0,6,0,6,0,,,,,,,,,,,,,,,,,,,,,,,,,,,,,,,,,,,,,,,,,,,,,,,,,,,,,,,898.9418520000763,898.9418520000763,0.0071346997283399105,0.09805139992386103,1.0,0.5918951001949608,,,,,,,,,,8770,Moral,2024-10-03_17h10.18.848,MoralCondition_v2,2022.2.5,30.022285527001944,
15,0,15,0,,,,,,,,,,,,,,,,,,,,,,,,,,,,,,,,,,,,,,,,,,,,,,,,,,,,,,,,,,,,,,,,,899.5752811999992,899.5752811999992,0.0017423001118004322,0.09739060001447797,7.0,1.4636735003441572,,,,8770,Moral,2024-10-03_17h10.18.848,MoralCondition_v2,2022.2.5,30.022285527001944,
16,0,16,0,0,0,0,0,,,,,,,,,,,,,,,,,,,,,,901.0754769002087,0.00042380020022392273,0.09734570002183318,907.091802299954,6.013898400124162,907.25831439998,907.25831439998,0.07028769981116056,0.18058820022270083,6.013898500241339,913.3585773999803,913.3585773999803,913.3585773999803,0.06650329986587167,0.18062479980289936,919.0584403001703,919.2583520999178,6.013751999940723,6.114040200132877,925.2584545002319,12.013933099806309,925.3416782002896,925.3416782002896,925.3917131000198,925.3917131000198,0.01398699963465333,0.11386149981990457,up,0.47807620000094175,925.9250925001688,4.770001396536827e-05,0.09775710012763739,931.9419601000845,931.9419601000845,931.9419601000845,0.008840000256896019,0.11442909995093942,7.0,2.6732920999638736,,,,,,,913.2416850002483,913.2416850002483,,8770,Moral,2024-10-03_17h10.18.848,MoralCondition_v2,2022.2.5,30.022285527001944,
16,0,16,0,1,0,1,0,,,,,,,,,,,,,,,,,,,,,,,,,,,,,,,,,,,,,,,,,,,,,,,,,,,,,,,934.6418385002762,934.6418385002762,0.00708810007199645,0.09799270005896688,5.0,2.7254475001245737,,,,,,,,,,8770,Moral,2024-10-03_17h10.18.848,MoralCondition_v2,2022.2.5,30.022285527001944,
16,0,16,0,2,0,2,0,,,,,,,,,,,,,,,,,,,,,,,,,,,,,,,,,,,,,,,,,,,,,,,,,,,,,,,937.4084470001981,937.4084470001981,0.007632100023329258,0.09804180031642318,6.0,1.824892200063914,,,,,,,,,,8770,Moral,2024-10-03_17h10.18.848,MoralCondition_v2,2022.2.5,30.022285527001944,
16,0,16,0,3,0,3,0,,,,,,,,,,,,,,,,,,,,,,,,,,,,,,,,,,,,,,,,,,,,,,,,,,,,,,,939.2750106002204,939.2750106002204,0.0065875002183020115,0.09939530026167631,1.0,1.760884900111705,,,,,,,,,,8770,Moral,2024-10-03_17h10.18.848,MoralCondition_v2,2022.2.5,30.022285527001944,
16,0,16,0,4,0,4,0,,,,,,,,,,,,,,,,,,,,,,,,,,,,,,,,,,,,,,,,,,,,,,,,,,,,,,,941.0749977999367,941.0749977999367,0.006633500102907419,0.09939790004864335,7.0,2.193475800100714,,,,,,,,,,8770,Moral,2024-10-03_17h10.18.848,MoralCondition_v2,2022.2.5,30.022285527001944,
16,0,16,0,5,0,5,0,,,,,,,,,,,,,,,,,,,,,,,,,,,,,,,,,,,,,,,,,,,,,,,,,,,,,,,943.3083219002001,943.3083219002001,0.007546499837189913,0.0975410002283752,1.0,1.4576693000271916,,,,,,,,,,8770,Moral,2024-10-03_17h10.18.848,MoralCondition_v2,2022.2.5,30.022285527001944,
16,0,16,0,6,0,6,0,,,,,,,,,,,,,,,,,,,,,,,,,,,,,,,,,,,,,,,,,,,,,,,,,,,,,,,944.8084019999951,944.8084019999951,0.007366399746388197,0.09934189962223172,1.0,1.1263049002736807,,,,,,,,,,8770,Moral,2024-10-03_17h10.18.848,MoralCondition_v2,2022.2.5,30.022285527001944,
16,0,16,0,,,,,,,,,,,,,,,,,,,,,,,,,,,,,,,,,,,,,,,,,,,,,,,,,,,,,,,,,,,,,,,,,945.9751349999569,945.9751349999569,0.0006698998622596264,0.09941180003806949,1.0,1.7330582002177835,,,,8770,Moral,2024-10-03_17h10.18.848,MoralCondition_v2,2022.2.5,30.022285527001944,
17,0,17,0,0,0,0,0,,,,,,,,,,,,,,,,,,,,,,947.7417019000277,0.0005284999497234821,0.09726479975506663,953.741663900204,6.030603900086135,953.9415647001006,953.9415647001006,0.09022659994661808,0.1971902996301651,6.03057979978621,960.0417487001978,960.0417487001978,960.0417487001978,0.0880843997001648,0.19738939963281155,965.7416357998736,965.9416497000493,6.030567199923098,6.130485199857503,971.9416117998771,12.03052549995482,972.0415865001269,972.0415865001269,972.0749157001264,972.0749157001264,0.03070299979299307,0.13048189971596003,up,0.48292330000549555,972.6082621999085,4.3099746108055115e-05,0.09762929985299706,,978.6249048002064,978.6249048002064,0.02418469963595271,0.114444799721241,6.0,2.7245477000251412,,,,,,,959.9416407998651,959.9416407998651,,8770,Moral,2024-10-03_17h10.18.848,MoralCondition_v2,2022.2.5,30.022285527001944,
17,0,17,0,1,0,1,0,,,,,,,,,,,,,,,,,,,,,,,,,,,,,,,,,,,,,,,,,,,,,,,,,,,,,,,981.3915440002456,981.3915440002456,0.006944499909877777,0.09713030001148582,6.0,1.5247216001152992,,,,,,,,,,8770,Moral,2024-10-03_17h10.18.848,MoralCondition_v2,2022.2.5,30.022285527001944,
17,0,17,0,2,0,2,0,,,,,,,,,,,,,,,,,,,,,,,,,,,,,,,,,,,,,,,,,,,,,,,,,,,,,,,982.9580772998743,982.9580772998743,0.006347199901938438,0.0990599999204278,1.0,1.2605435997247696,,,,,,,,,,8770,Moral,2024-10-03_17h10.18.848,MoralCondition_v2,2022.2.5,30.022285527001944,
17,0,17,0,3,0,3,0,,,,,,,,,,,,,,,,,,,,,,,,,,,,,,,,,,,,,,,,,,,,,,,,,,,,,,,984.2581040998921,984.2581040998921,0.010910300072282553,0.09922120021656156,7.0,1.42286689998582,,,,,,,,,,8770,Moral,2024-10-03_17h10.18.848,MoralCondition_v2,2022.2.5,30.022285527001944,
17,0,17,0,4,0,4,0,,,,,,,,,,,,,,,,,,,,,,,,,,,,,,,,,,,,,,,,,,,,,,,,,,,,,,,985.7249640999362,985.7249640999362,0.006689600180834532,0.09923409996554255,1.0,1.7268572002649307,,,,,,,,,,8770,Moral,2024-10-03_17h10.18.848,MoralCondition_v2,2022.2.5,30.022285527001944,
17,0,17,0,5,0,5,0,,,,,,,,,,,,,,,,,,,,,,,,,,,,,,,,,,,,,,,,,,,,,,,,,,,,,,,987.4917482002638,987.4917482002638,0.006522399839013815,0.09901899984106421,1.0,1.0602391003631055,,,,,,,,,,8770,Moral,2024-10-03_17h10.18.848,MoralCondition_v2,2022.2.5,30.022285527001944,
17,0,17,0,6,0,6,0,,,,,,,,,,,,,,,,,,,,,,,,,,,,,,,,,,,,,,,,,,,,,,,,,,,,,,,988.5914043998346,988.5914043998346,0.007215199992060661,0.09822570020332932,7.0,1.5252749002538621,,,,,,,,,,8770,Moral,2024-10-03_17h10.18.848,MoralCondition_v2,2022.2.5,30.022285527001944,
17,0,17,0,,,,,,,,,,,,,,,,,,,,,,,,,,,,,,,,,,,,,,,,,,,,,,,,,,,,,,,,,,,,,,,,,990.1581573998556,990.1581573998556,0.001216299831867218,0.09794609993696213,1.0,1.73154540034011,,,,8770,Moral,2024-10-03_17h10.18.848,MoralCondition_v2,2022.2.5,30.022285527001944,
18,0,18,0,0,0,0,0,,,,,,,,,,,,,,,,,,,,,,991.9250554000027,0.00022140005603432655,0.09843399981036782,997.9082022998482,6.015053600072861,998.0914231999777,998.0914231999777,0.053905099630355835,0.16498659970238805,6.031582599971443,1004.224683099892,1004.224683099892,1004.224683099892,0.08419969957321882,0.19825759949162602,1009.9247993999161,1010.124813800212,6.031701999716461,6.131833099760115,1016.1247670999728,12.031595199834555,1016.2248149998486,1016.2248149998486,1016.2580976001918,1016.2580976001918,0.03179559949785471,0.13161669950932264,up,0.42749019991606474,1016.7247578999959,4.1099730879068375e-05,0.0978218000382185,,1022.758180399891,1022.758180399891,0.025882099755108356,0.13108119973912835,1.0,3.806201699655503,,,,,,,1004.0914599001408,1004.0914599001408,6.098321499768645,8770,Moral,2024-10-03_17h10.18.848,MoralCondition_v2,2022.2.5,30.022285527001944,
18,0,18,0,1,0,1,0,,,,,,,,,,,,,,,,,,,,,,,,,,,,,,,,,,,,,,,,,,,,,,,,,,,,,,,1026.608214800246,1026.608214800246,0.00850809970870614,0.11444139992818236,7.0,1.4733329000882804,,,,,,,,,,8770,Moral,2024-10-03_17h10.18.848,MoralCondition_v2,2022.2.5,30.022285527001944,
18,0,18,0,2,0,2,0,,,,,,,,,,,,,,,,,,,,,,,,,,,,,,,,,,,,,,,,,,,,,,,,,,,,,,,1028.1079938998446,1028.1079938998446,0.006461199838668108,0.0985873001627624,7.0,0.826683399733156,,,,,,,,,,8770,Moral,2024-10-03_17h10.18.848,MoralCondition_v2,2022.2.5,30.022285527001944,
18,0,18,0,3,0,3,0,,,,,,,,,,,,,,,,,,,,,,,,,,,,,,,,,,,,,,,,,,,,,,,,,,,,,,,1028.9746380001307,1028.9746380001307,0.00762129994109273,0.09772809967398643,5.0,1.9581542997621,,,,,,,,,,8770,Moral,2024-10-03_17h10.18.848,MoralCondition_v2,2022.2.5,30.022285527001944,
18,0,18,0,4,0,4,0,,,,,,,,,,,,,,,,,,,,,,,,,,,,,,,,,,,,,,,,,,,,,,,,,,,,,,,1030.9747494002804,1030.9747494002804,0.007698199711740017,0.09817959973588586,1.0,2.5914007001556456,,,,,,,,,,8770,Moral,2024-10-03_17h10.18.848,MoralCondition_v2,2022.2.5,30.022285527001944,
18,0,18,0,5,0,5,0,,,,,,,,,,,,,,,,,,,,,,,,,,,,,,,,,,,,,,,,,,,,,,,,,,,,,,,1033.6081161000766,1033.6081161000766,0.006937399972230196,0.09901130013167858,1.0,1.0265668998472393,,,,,,,,,,8770,Moral,2024-10-03_17h10.18.848,MoralCondition_v2,2022.2.5,30.022285527001944,
18,0,18,0,6,0,6,0,,,,,,,,,,,,,,,,,,,,,,,,,,,,,,,,,,,,,,,,,,,,,,,,,,,,,,,1034.6745238001458,1034.6745238001458,0.006426999811083078,0.09919840004295111,6.0,2.327050399966538,,,,,,,,,,8770,Moral,2024-10-03_17h10.18.848,MoralCondition_v2,2022.2.5,30.022285527001944,
18,0,18,0,,,,,,,,,,,,,,,,,,,,,,,,,,,,,,,,,,,,,,,,,,,,,,,,,,,,,,,,,,,,,,,,,1037.0413243998773,1037.0413243998773,0.0012087998911738396,0.09846309991553426,1.0,1.7315869997255504,,,,8770,Moral,2024-10-03_17h10.18.848,MoralCondition_v2,2022.2.5,30.022285527001944,
19,0,19,0,0,0,0,0,,,,,,,,,,,,,,,,,,,,,,1038.808345099911,0.0004028002731502056,0.09740770002827048,1044.8079667002894,6.030690900050104,1044.991242799908,1044.991242799908,0.07136789988726377,0.1806819001212716,6.0139953000471,1051.0915526002645,1051.0915526002645,1051.0915526002645,0.07165780011564493,0.18092900002375245,1056.7912758002058,1056.9912884999067,6.014003899879754,6.113936900161207,1062.9912820002064,12.014001300092787,1063.0744139002636,1063.0744139002636,1063.1245694002137,1063.1245694002137,0.013888000044971704,0.1141444998793304,down,0.8889724002219737,1064.0579150998965,3.6499928683042526e-05,0.09784679999575019,1070.074703299906,1070.074703299906,1070.074703299906,0.008960299659520388,0.11453909985721111,6.0,2.406669399701059,,,,,,,1050.9912930000573,1050.9912930000573,,8770,Moral,2024-10-03_17h10.18.848,MoralCondition_v2,2022.2.5,30.022285527001944,
19,0,19,0,1,0,1,0,,,,,,,,,,,,,,,,,,,,,,,,,,,,,,,,,,,,,,,,,,,,,,,,,,,,,,,1072.5078662000597,1072.5078662000597,0.006501799914985895,0.09957120008766651,1.0,2.3603260000236332,,,,,,,,,,8770,Moral,2024-10-03_17h10.18.848,MoralCondition_v2,2022.2.5,30.022285527001944,
19,0,19,0,2,0,2,0,,,,,,,,,,,,,,,,,,,,,,,,,,,,,,,,,,,,,,,,,,,,,,,,,,,,,,,1074.907901899889,1074.907901899889,0.007891099900007248,0.09756779996678233,6.0,1.7907972000539303,,,,,,,,,,8770,Moral,2024-10-03_17h10.18.848,MoralCondition_v2,2022.2.5,30.022285527001944,
19,0,19,0,3,0,3,0,,,,,,,,,,,,,,,,,,,,,,,,,,,,,,,,,,,,,,,,,,,,,,,,,,,,,,,1076.7411700999364,1076.7411700999364,0.006868999917060137,0.0991571000777185,7.0,1.2268348997458816,,,,,,,,,,8770,Moral,2024-10-03_17h10.18.848,MoralCondition_v2,2022.2.5,30.022285527001944,
19,0,19,0,4,0,4,0,,,,,,,,,,,,,,,,,,,,,,,,,,,,,,,,,,,,,,,,,,,,,,,,,,,,,,,1078.007850300055,1078.007850300055,0.007439299952238798,0.09916150011122227,7.0,0.6928983996622264,,,,,,,,,,8770,Moral,2024-10-03_17h10.18.848,MoralCondition_v2,2022.2.5,30.022285527001944,
19,0,19,0,5,0,5,0,,,,,,,,,,,,,,,,,,,,,,,,,,,,,,,,,,,,,,,,,,,,,,,,,,,,,,,1078.741192100104,1078.741192100104,0.006550999823957682,0.09927479969337583,1.0,1.2273378996178508,,,,,,,,,,8770,Moral,2024-10-03_17h10.18.848,MoralCondition_v2,2022.2.5,30.022285527001944,
19,0,19,0,6,0,6,0,,,,,,,,,,,,,,,,,,,,,,,,,,,,,,,,,,,,,,,,,,,,,,,,,,,,,,,1080.0080951000564,1080.0080951000564,0.008017200045287609,0.09827239997684956,1.0,1.258158499840647,,,,,,,,,,8770,Moral,2024-10-03_17h10.18.848,MoralCondition_v2,2022.2.5,30.022285527001944,
19,0,19,0,,,,,,,,,,,,,,,,,,,,,,,,,,,,,,,,,,,,,,,,,,,,,,,,,,,,,,,,,,,,,,,,,1081.3079018001445,1081.3079018001445,0.0006984998472034931,0.09944069990888238,1.0,1.7663528001867235,,,,8770,Moral,2024-10-03_17h10.18.848,MoralCondition_v2,2022.2.5,30.022285527001944,
