loop.thisRepN,loop.thisTrialN,loop.thisN,loop.thisIndex,evaluate_all_emotions.thisRepN,evaluate_all_emotions.thisTrialN,evaluate_all_emotions.thisN,evaluate_all_emotions.thisIndex,sync_beep_1.started,p_port.started,p_port.stopped,sync_beep_1.stopped,sync_beep_2.started,sync_beep_2.stopped,sync_beep_3.started,sync_beep_3.stopped,sync_beep_4.started,sync_beep_4.stopped,baseline.started,p_port_2.started,p_port_2.stopped,baseline.stopped,p_port_3.started,Game_Start_Text.started,p_port_4.started,p_port_4.stopped,key_resp.started,key_resp.keys,key_resp.rt,fixation_cross.started,p_port_5.started,p_port_5.stopped,fixation_cross.stopped,p_port_6.started,player_image_intro.started,player_name_intro.started,p_port_7.started,p_port_7.stopped,p_port_8.started,player_image_offer.started,player_name_offer.started,proposed_split.started,p_port_9.started,p_port_9.stopped,proposed_split.stopped,accept_reject.started,p_port_15.started,p_port_15.stopped,accept_reject.stopped,p_port_10.started,arrow_instructions.started,offer_choice.started,p_port_11.started,p_port_11.stopped,offer_choice.keys,offer_choice.rt,Instructions_Affinity_Score.started,p_port_12.started,p_port_12.stopped,Instructions_Affinity_Score.stopped,Emotion_Image.started,AffinityScore.started,p_port_13.started,p_port_13.stopped,AffinityScore.response,AffinityScore.rt,Instruction.started,Moral_Disgust_Score.started,p_port_14.started,p_port_14.stopped,Moral_Disgust_Score.response,Moral_Disgust_Score.rt,player_image_intro.stopped,player_name_intro.stopped,player_image_offer.stopped,player_name_offer.stopped,p_port_6.stopped,p_port_10.stopped,p_port_8.stopped,participant,session,date,expName,psychopyVersion,frameRate,
,,,,,,,,24.440244802832602,0.0008032005280256271,0.11316940002143383,24.756641201674938,25.039802600443362,25.339724201709032,25.639810801297426,25.939759401604533,26.239793400093912,26.556328600272536,26.556328600272536,0.029988400638103485,0.13003740087151527,41.55641970038414,15.03004919923842,41.689837200567126,0.03038010001182556,0.1299980003386736,42.13978090137243,space,1.6933875009417534,,,,,,,,,,,,,,,,,,,,,,,,,,,,,,,,,,,,,,,,,,,,,,,,,,,8827,Moral,2024-07-09_10h25.09.902,MoralCondition_v2,2022.2.5,30.00320737078306,
0,0,0,0,0,0,0,0,,,,,,,,,,,,,,,,,,,,,,43.87319450080395,0.0030761994421482086,0.09814049862325191,49.88964030146599,6.014887399971485,50.10654480010271,50.10654480010271,0.09201549924910069,0.23159129917621613,6.031518699601293,56.206326400861144,56.206326400861144,56.206326400861144,0.09781710058450699,0.23155120015144348,61.90639650076628,62.07311370037496,6.03163049928844,6.131472699344158,68.07308510132134,12.031601699069142,68.20639100112021,68.20639100112021,0.03177110105752945,0.13154220022261143,up,2.2899680994451046,70.53969530016184,6.690062582492828e-05,0.0977488998323679,76.55636140145361,76.55636140145361,76.55636140145361,0.010075701400637627,0.11412420123815536,2.0,23.588351799175143,,,,,,,,,,,,,,8827,Moral,2024-07-09_10h25.09.902,MoralCondition_v2,2022.2.5,30.00320737078306,
0,0,0,0,1,0,1,0,,,,,,,,,,,,,,,,,,,,,,,,,,,,,,,,,,,,,,,,,,,,,,,,,,,,,100.1730492003262,100.1730492003262,0.008411901071667671,0.09987610019743443,4.0,5.158606199547648,,,,,,,,,,,,,,8827,Moral,2024-07-09_10h25.09.902,MoralCondition_v2,2022.2.5,30.00320737078306,
0,0,0,0,2,0,2,0,,,,,,,,,,,,,,,,,,,,,,,,,,,,,,,,,,,,,,,,,,,,,,,,,,,,,105.37298040091991,105.37298040091991,0.008383400738239288,0.09913220070302486,3.0,3.425002299249172,,,,,,,,,,,,,,8827,Moral,2024-07-09_10h25.09.902,MoralCondition_v2,2022.2.5,30.00320737078306,
0,0,0,0,3,0,3,0,,,,,,,,,,,,,,,,,,,,,,,,,,,,,,,,,,,,,,,,,,,,,,,,,,,,,108.8565923012793,108.8565923012793,0.010398998856544495,0.11400680057704449,2.0,3.804959999397397,,,,,,,,,,,,,,8827,Moral,2024-07-09_10h25.09.902,MoralCondition_v2,2022.2.5,30.00320737078306,
0,0,0,0,4,0,4,0,,,,,,,,,,,,,,,,,,,,,,,,,,,,,,,,,,,,,,,,,,,,,,,,,,,,,112.68968850001693,112.68968850001693,0.008529501035809517,0.09913930110633373,3.0,4.592704199254513,,,,,,,,,,,,,,8827,Moral,2024-07-09_10h25.09.902,MoralCondition_v2,2022.2.5,30.00320737078306,
0,0,0,0,5,0,5,0,,,,,,,,,,,,,,,,,,,,,,,,,,,,,,,,,,,,,,,,,,,,,,,,,,,,,117.32359600067139,117.32359600067139,0.007019098848104477,0.0987445991486311,5.0,2.992628298699856,,,,,,,,,,,,,,8827,Moral,2024-07-09_10h25.09.902,MoralCondition_v2,2022.2.5,30.00320737078306,
0,0,0,0,6,0,6,0,,,,,,,,,,,,,,,,,,,,,,,,,,,,,,,,,,,,,,,,,,,,,,,,,,,,,120.35648760013282,120.35648760013282,0.009071500971913338,0.09764599986374378,4.0,4.58964280039072,,,,,,,,,,,,,,8827,Moral,2024-07-09_10h25.09.902,MoralCondition_v2,2022.2.5,30.00320737078306,
0,0,0,0,,,,,,,,,,,,,,,,,,,,,,,,,,,,,,,,,,,,,,,,,,,,,,,,,,,,,,,,,,,,,,,124.98973230086267,124.98973230086267,0.0012585986405611038,0.09761419892311096,4.0,13.39770570024848,,,,,,,,8827,Moral,2024-07-09_10h25.09.902,MoralCondition_v2,2022.2.5,30.00320737078306,
1,0,1,0,0,0,0,0,,,,,,,,,,,,,,,,,,,,,,138.42343090102077,0.00029639899730682373,0.09764399938285351,144.43974240124226,6.014174798503518,144.60635180026293,144.60635180026293,0.07410609908401966,0.1810426004230976,6.014217998832464,150.70655350014567,150.70655350014567,150.70655350014567,0.07075870037078857,0.1810407005250454,156.406436201185,156.606434000656,6.014289500191808,6.1143810991197824,162.60661750100553,12.014445399865508,162.73969440162182,162.73969440162182,0.014468900859355927,0.11417900025844574,up,1.4370606988668442,164.22305390052497,4.279986023902893e-05,0.09803649969398975,170.22362990118563,170.22362990118563,170.22362990118563,0.006613999605178833,0.09816929884254932,2.0,3.2591146994382143,,,,,,,150.60640750080347,150.60640750080347,162.70639130100608,162.70639130100608,,,,8827,Moral,2024-07-09_10h25.09.902,MoralCondition_v2,2022.2.5,30.00320737078306,
1,0,1,0,1,0,1,0,,,,,,,,,,,,,,,,,,,,,,,,,,,,,,,,,,,,,,,,,,,,,,,,,,,,,173.52297810092568,173.52297810092568,0.0069551002234220505,0.09935440123081207,6.0,1.9266426004469395,,,,,,,,,,,,,,8827,Moral,2024-07-09_10h25.09.902,MoralCondition_v2,2022.2.5,30.00320737078306,
1,0,1,0,2,0,2,0,,,,,,,,,,,,,,,,,,,,,,,,,,,,,,,,,,,,,,,,,,,,,,,,,,,,,175.48976610042155,175.48976610042155,0.0068219006061553955,0.0973616000264883,3.0,1.7912549003958702,,,,,,,,,,,,,,8827,Moral,2024-07-09_10h25.09.902,MoralCondition_v2,2022.2.5,30.00320737078306,
1,0,1,0,3,0,3,0,,,,,,,,,,,,,,,,,,,,,,,,,,,,,,,,,,,,,,,,,,,,,,,,,,,,,177.3230073004961,177.3230073004961,0.007895400747656822,0.09801930002868176,4.0,2.2579184994101524,,,,,,,,,,,,,,8827,Moral,2024-07-09_10h25.09.902,MoralCondition_v2,2022.2.5,30.00320737078306,
1,0,1,0,4,0,4,0,,,,,,,,,,,,,,,,,,,,,,,,,,,,,,,,,,,,,,,,,,,,,,,,,,,,,179.62296050041914,179.62296050041914,0.006539098918437958,0.09903989918529987,2.0,3.360359998419881,,,,,,,,,,,,,,8827,Moral,2024-07-09_10h25.09.902,MoralCondition_v2,2022.2.5,30.00320737078306,
1,0,1,0,5,0,5,0,,,,,,,,,,,,,,,,,,,,,,,,,,,,,,,,,,,,,,,,,,,,,,,,,,,,,183.0399428009987,183.0399428009987,0.008355500176548958,0.11449840106070042,5.0,2.407176500186324,,,,,,,,,,,,,,8827,Moral,2024-07-09_10h25.09.902,MoralCondition_v2,2022.2.5,30.00320737078306,
1,0,1,0,6,0,6,0,,,,,,,,,,,,,,,,,,,,,,,,,,,,,,,,,,,,,,,,,,,,,,,,,,,,,185.4728901013732,185.4728901013732,0.007554700598120689,0.09806220047175884,5.0,2.0248592998832464,,,,,,,,,,,,,,8827,Moral,2024-07-09_10h25.09.902,MoralCondition_v2,2022.2.5,30.00320737078306,
1,0,1,0,,,,,,,,,,,,,,,,,,,,,,,,,,,,,,,,,,,,,,,,,,,,,,,,,,,,,,,,,,,,,,,187.5400203000754,187.5400203000754,0.0007230006158351898,0.09906649962067604,3.0,4.6328336000442505,,,,,,,,8827,Moral,2024-07-09_10h25.09.902,MoralCondition_v2,2022.2.5,30.00320737078306,
2,0,2,0,0,0,0,0,,,,,,,,,,,,,,,,,,,,,,192.20640840008855,0.00039609894156455994,0.09754879958927631,198.20636830106378,6.030698198825121,198.4066741000861,198.4066741000861,0.08465829864144325,0.19737409986555576,6.030953800305724,204.50660300068557,204.50660300068557,204.50660300068557,0.08596060052514076,0.1975155994296074,210.20635499991477,210.40638360008597,6.030716899782419,6.130664199590683,216.40638340078294,12.030803499743342,216.53972400166094,216.53972400166094,0.030847599729895592,0.13067100010812283,up,1.4367488007992506,218.03980050049722,1.2500211596488953e-05,0.09939759969711304,224.05644690059125,224.05644690059125,224.05644690059125,0.011672800406813622,0.11597730033099651,5.0,4.105273699387908,,,,,,,204.40637200139463,204.40637200139463,216.50635300017893,216.50635300017893,,,,8827,Moral,2024-07-09_10h25.09.902,MoralCondition_v2,2022.2.5,30.00320737078306,
2,0,2,0,1,0,1,0,,,,,,,,,,,,,,,,,,,,,,,,,,,,,,,,,,,,,,,,,,,,,,,,,,,,,228.20641820132732,228.20641820132732,0.008083300665020943,0.11434639990329742,3.0,1.8072833009064198,,,,,,,,,,,,,,8827,Moral,2024-07-09_10h25.09.902,MoralCondition_v2,2022.2.5,30.00320737078306,
2,0,2,0,2,0,2,0,,,,,,,,,,,,,,,,,,,,,,,,,,,,,,,,,,,,,,,,,,,,,,,,,,,,,230.05642370134592,230.05642370134592,0.008727099746465683,0.11413620039820671,2.0,2.0399067997932434,,,,,,,,,,,,,,8827,Moral,2024-07-09_10h25.09.902,MoralCondition_v2,2022.2.5,30.00320737078306,
2,0,2,0,3,0,3,0,,,,,,,,,,,,,,,,,,,,,,,,,,,,,,,,,,,,,,,,,,,,,,,,,,,,,232.12291310168803,232.12291310168803,0.007372699677944183,0.0980939008295536,3.0,2.2253454998135567,,,,,,,,,,,,,,8827,Moral,2024-07-09_10h25.09.902,MoralCondition_v2,2022.2.5,30.00320737078306,
2,0,2,0,4,0,4,0,,,,,,,,,,,,,,,,,,,,,,,,,,,,,,,,,,,,,,,,,,,,,,,,,,,,,234.3897190000862,234.3897190000862,0.007650898769497871,0.09774830006062984,5.0,1.6579676996916533,,,,,,,,,,,,,,8827,Moral,2024-07-09_10h25.09.902,MoralCondition_v2,2022.2.5,30.00320737078306,
2,0,2,0,5,0,5,0,,,,,,,,,,,,,,,,,,,,,,,,,,,,,,,,,,,,,,,,,,,,,,,,,,,,,236.08959340117872,236.08959340117872,0.007622798904776573,0.09793940000236034,4.0,3.324660299345851,,,,,,,,,,,,,,8827,Moral,2024-07-09_10h25.09.902,MoralCondition_v2,2022.2.5,30.00320737078306,
2,0,2,0,6,0,6,0,,,,,,,,,,,,,,,,,,,,,,,,,,,,,,,,,,,,,,,,,,,,,,,,,,,,,239.4565244000405,239.4565244000405,0.007109999656677246,0.09804090112447739,5.0,2.425579000264406,,,,,,,,,,,,,,8827,Moral,2024-07-09_10h25.09.902,MoralCondition_v2,2022.2.5,30.00320737078306,
2,0,2,0,,,,,,,,,,,,,,,,,,,,,,,,,,,,,,,,,,,,,,,,,,,,,,,,,,,,,,,,,,,,,,,241.9232153017074,241.9232153017074,0.0007828995585441589,0.09926459938287735,3.0,3.433022800832987,,,,,,,,8827,Moral,2024-07-09_10h25.09.902,MoralCondition_v2,2022.2.5,30.00320737078306,
3,0,3,0,0,0,0,0,,,,,,,,,,,,,,,,,,,,,,245.39012290164828,0.00031610019505023956,0.09811599925160408,251.4065753016621,6.01471340097487,251.58956970088184,251.58956970088184,0.08730020001530647,0.19827120006084442,6.031331701204181,257.68996430002153,257.68996430002153,257.68996430002153,0.08444320037961006,0.1982751004397869,263.38963680155575,263.5896912012249,6.031385600566864,6.131259201094508,269.58969180099666,12.03139310143888,269.7228937000036,269.7228937000036,0.031800100579857826,0.13129550032317638,up,1.8056703004986048,271.5730115007609,4.120171070098877e-05,0.0978259015828371,277.5729270000011,277.5729270000011,277.5729270000011,0.007042501121759415,0.09777830168604851,3.0,2.7251757998019457,,,,,,,257.58963710069656,257.58963710069656,269.6899039000273,269.6899039000273,,,,8827,Moral,2024-07-09_10h25.09.902,MoralCondition_v2,2022.2.5,30.00320737078306,
3,0,3,0,1,0,1,0,,,,,,,,,,,,,,,,,,,,,,,,,,,,,,,,,,,,,,,,,,,,,,,,,,,,,280.33949080109596,280.33949080109596,0.007479799911379814,0.09781599976122379,2.0,1.79133159853518,,,,,,,,,,,,,,8827,Moral,2024-07-09_10h25.09.902,MoralCondition_v2,2022.2.5,30.00320737078306,
3,0,3,0,2,0,2,0,,,,,,,,,,,,,,,,,,,,,,,,,,,,,,,,,,,,,,,,,,,,,,,,,,,,,282.18980470113456,282.18980470113456,0.008677298203110695,0.11449950002133846,3.0,1.740089699625969,,,,,,,,,,,,,,8827,Moral,2024-07-09_10h25.09.902,MoralCondition_v2,2022.2.5,30.00320737078306,
3,0,3,0,3,0,3,0,,,,,,,,,,,,,,,,,,,,,,,,,,,,,,,,,,,,,,,,,,,,,,,,,,,,,283.9565516002476,283.9565516002476,0.007463900372385979,0.09778139926493168,3.0,3.3247560001909733,,,,,,,,,,,,,,8827,Moral,2024-07-09_10h25.09.902,MoralCondition_v2,2022.2.5,30.00320737078306,
3,0,3,0,4,0,4,0,,,,,,,,,,,,,,,,,,,,,,,,,,,,,,,,,,,,,,,,,,,,,,,,,,,,,287.32310280017555,287.32310280017555,0.006890499964356422,0.09894070029258728,4.0,3.360605400055647,,,,,,,,,,,,,,8827,Moral,2024-07-09_10h25.09.902,MoralCondition_v2,2022.2.5,30.00320737078306,
3,0,3,0,5,0,5,0,,,,,,,,,,,,,,,,,,,,,,,,,,,,,,,,,,,,,,,,,,,,,,,,,,,,,290.7229503002018,290.7229503002018,0.006528900936245918,0.09851700067520142,5.0,2.3928989991545677,,,,,,,,,,,,,,8827,Moral,2024-07-09_10h25.09.902,MoralCondition_v2,2022.2.5,30.00320737078306,
3,0,3,0,6,0,6,0,,,,,,,,,,,,,,,,,,,,,,,,,,,,,,,,,,,,,,,,,,,,,,,,,,,,,293.1563364006579,293.1563364006579,0.007592100650072098,0.09768350049853325,6.0,2.5245469994843006,,,,,,,,,,,,,,8827,Moral,2024-07-09_10h25.09.902,MoralCondition_v2,2022.2.5,30.00320737078306,
3,0,3,0,,,,,,,,,,,,,,,,,,,,,,,,,,,,,,,,,,,,,,,,,,,,,,,,,,,,,,,,,,,,,,,295.72312180139124,295.72312180139124,0.001677200198173523,0.09780059941112995,3.0,3.397348200902343,,,,,,,,8827,Moral,2024-07-09_10h25.09.902,MoralCondition_v2,2022.2.5,30.00320737078306,
4,0,4,0,0,0,0,0,,,,,,,,,,,,,,,,,,,,,,299.1564860008657,0.00033250078558921814,0.09777010045945644,305.1563252005726,6.0309402998536825,305.35632720030844,305.35632720030844,0.09199650026857853,0.19770310074090958,6.030890200287104,311.4563784003258,311.4563784003258,311.4563784003258,0.09047490172088146,0.19757520034909248,317.1563055012375,317.35631580092013,6.030935300514102,6.130860600620508,323.35630350001156,12.030929401516914,323.48962699994445,323.48962699994445,0.03116220235824585,0.130833201110363,up,1.6311505995690823,325.1729271002114,4.269927740097046e-05,0.09765509888529778,331.1898111011833,331.1898111011833,331.1898111011833,0.008776199072599411,0.11423149891197681,2.0,2.7399850003421307,,,,,,,311.3564380016178,311.3564380016178,323.45630099996924,323.45630099996924,,,,8827,Moral,2024-07-09_10h25.09.902,MoralCondition_v2,2022.2.5,30.00320737078306,
4,0,4,0,1,0,1,0,,,,,,,,,,,,,,,,,,,,,,,,,,,,,,,,,,,,,,,,,,,,,,,,,,,,,333.95644510164857,333.95644510164857,0.006584798917174339,0.09900490008294582,5.0,1.7934002988040447,,,,,,,,,,,,,,8827,Moral,2024-07-09_10h25.09.902,MoralCondition_v2,2022.2.5,30.00320737078306,
4,0,4,0,2,0,2,0,,,,,,,,,,,,,,,,,,,,,,,,,,,,,,,,,,,,,,,,,,,,,,,,,,,,,335.78988280147314,335.78988280147314,0.006563600152730942,0.09845949895679951,2.0,2.9929977003484964,,,,,,,,,,,,,,8827,Moral,2024-07-09_10h25.09.902,MoralCondition_v2,2022.2.5,30.00320737078306,
4,0,4,0,3,0,3,0,,,,,,,,,,,,,,,,,,,,,,,,,,,,,,,,,,,,,,,,,,,,,,,,,,,,,338.823083801195,338.823083801195,0.0065279994159936905,0.09900369867682457,3.0,1.6603381000459194,,,,,,,,,,,,,,8827,Moral,2024-07-09_10h25.09.902,MoralCondition_v2,2022.2.5,30.00320737078306,
4,0,4,0,4,0,4,0,,,,,,,,,,,,,,,,,,,,,,,,,,,,,,,,,,,,,,,,,,,,,,,,,,,,,340.53975960053504,340.53975960053504,0.009598400443792343,0.11410750076174736,5.0,3.1720477994531393,,,,,,,,,,,,,,8827,Moral,2024-07-09_10h25.09.902,MoralCondition_v2,2022.2.5,30.00320737078306,
4,0,4,0,5,0,5,0,,,,,,,,,,,,,,,,,,,,,,,,,,,,,,,,,,,,,,,,,,,,,,,,,,,,,343.75649340078235,343.75649340078235,0.007581600919365883,0.11432920023798943,6.0,1.4074566010385752,,,,,,,,,,,,,,8827,Moral,2024-07-09_10h25.09.902,MoralCondition_v2,2022.2.5,30.00320737078306,
4,0,4,0,6,0,6,0,,,,,,,,,,,,,,,,,,,,,,,,,,,,,,,,,,,,,,,,,,,,,,,,,,,,,345.1896177008748,345.1896177008748,0.006483098492026329,0.09932609833776951,3.0,2.0269735995680094,,,,,,,,,,,,,,8827,Moral,2024-07-09_10h25.09.902,MoralCondition_v2,2022.2.5,30.00320737078306,
4,0,4,0,,,,,,,,,,,,,,,,,,,,,,,,,,,,,,,,,,,,,,,,,,,,,,,,,,,,,,,,,,,,,,,347.2561166007072,347.2561166007072,0.002531999722123146,0.09732110053300858,3.0,3.329561600461602,,,,,,,,8827,Moral,2024-07-09_10h25.09.902,MoralCondition_v2,2022.2.5,30.00320737078306,
5,0,5,0,0,0,0,0,,,,,,,,,,,,,,,,,,,,,,350.6231132000685,0.00014800019562244415,0.09931210055947304,356.62287270091474,5.999047299847007,356.80613220110536,356.80613220110536,0.07790950126945972,0.18243800103664398,6.015694100409746,362.9061255007982,362.9061255007982,362.9061255007982,0.07267170213162899,0.18238050118088722,368.6062232013792,368.80633150041103,6.015884401276708,6.115693401545286,374.80634320154786,12.015891201794147,374.9395373016596,374.9395373016596,0.016011802479624748,0.11574340239167213,up,0.4931822996586561,375.47296890057623,4.4500455260276794e-05,0.09764230065047741,,381.48933310061693,381.48933310061693,0.020729199051856995,0.11408579908311367,3.0,2.1278495993465185,,,,,,,362.8062110003084,362.8062110003084,374.9063221011311,374.9063221011311,6.09904669970274,,,8827,Moral,2024-07-09_10h25.09.902,MoralCondition_v2,2022.2.5,30.00320737078306,
5,0,5,0,1,0,1,0,,,,,,,,,,,,,,,,,,,,,,,,,,,,,,,,,,,,,,,,,,,,,,,,,,,,,383.6562189999968,383.6562189999968,0.006628001108765602,0.09922949969768524,2.0,1.5269290003925562,,,,,,,,,,,,,,8827,Moral,2024-07-09_10h25.09.902,MoralCondition_v2,2022.2.5,30.00320737078306,
5,0,5,0,2,0,2,0,,,,,,,,,,,,,,,,,,,,,,,,,,,,,,,,,,,,,,,,,,,,,,,,,,,,,385.2226195000112,385.2226195000112,0.007728800177574158,0.09784029982984066,4.0,2.2244866993278265,,,,,,,,,,,,,,8827,Moral,2024-07-09_10h25.09.902,MoralCondition_v2,2022.2.5,30.00320737078306,
5,0,5,0,3,0,3,0,,,,,,,,,,,,,,,,,,,,,,,,,,,,,,,,,,,,,,,,,,,,,,,,,,,,,387.489448800683,387.489448800683,0.0074413008987903595,0.09760989993810654,5.0,1.3914271984249353,,,,,,,,,,,,,,8827,Moral,2024-07-09_10h25.09.902,MoralCondition_v2,2022.2.5,30.00320737078306,
5,0,5,0,4,0,4,0,,,,,,,,,,,,,,,,,,,,,,,,,,,,,,,,,,,,,,,,,,,,,,,,,,,,,388.92275810055435,388.92275810055435,0.00665459968149662,0.0991072990000248,5.0,3.1935073994100094,,,,,,,,,,,,,,8827,Moral,2024-07-09_10h25.09.902,MoralCondition_v2,2022.2.5,30.00320737078306,
5,0,5,0,5,0,5,0,,,,,,,,,,,,,,,,,,,,,,,,,,,,,,,,,,,,,,,,,,,,,,,,,,,,,392.15613520145416,392.15613520145416,0.007264198735356331,0.09807959944009781,6.0,1.4254195000976324,,,,,,,,,,,,,,8827,Moral,2024-07-09_10h25.09.902,MoralCondition_v2,2022.2.5,30.00320737078306,
5,0,5,0,6,0,6,0,,,,,,,,,,,,,,,,,,,,,,,,,,,,,,,,,,,,,,,,,,,,,,,,,,,,,393.6229077000171,393.6229077000171,0.00722150132060051,0.09824790060520172,3.0,1.82519649900496,,,,,,,,,,,,,,8827,Moral,2024-07-09_10h25.09.902,MoralCondition_v2,2022.2.5,30.00320737078306,
5,0,5,0,,,,,,,,,,,,,,,,,,,,,,,,,,,,,,,,,,,,,,,,,,,,,,,,,,,,,,,,,,,,,,,395.48968050070107,395.48968050070107,0.0012142006307840347,0.09807910025119781,5.0,4.0314493998885155,,,,,,,,8827,Moral,2024-07-09_10h25.09.902,MoralCondition_v2,2022.2.5,30.00320737078306,
6,0,6,0,0,0,0,0,,,,,,,,,,,,,,,,,,,,,,399.55632520094514,0.00014979951083660126,0.09931349940598011,405.556368900463,5.99925209954381,405.7396027017385,405.7396027017385,0.07063700072467327,0.18292630091309547,6.01585610024631,411.8228007014841,411.8228007014841,411.8228007014841,0.06977000087499619,0.16624350100755692,417.5227500014007,417.72278390079737,5.999309800565243,6.099083600565791,423.7227632012218,11.999227700755,423.8561702016741,423.8561702016741,-0.0003534983843564987,0.09950580075383186,up,0.7119779996573925,424.6227631010115,3.4300610423088074e-05,0.09828530065715313,,430.6394297014922,430.6394297014922,0.02083980105817318,0.11505270004272461,6.0,2.3949614986777306,,,,,,,411.7226989008486,411.7226989008486,423.82279560156167,423.82279560156167,6.099118199199438,12.099190900102258,,8827,Moral,2024-07-09_10h25.09.902,MoralCondition_v2,2022.2.5,30.00320737078306,
6,0,6,0,1,0,1,0,,,,,,,,,,,,,,,,,,,,,,,,,,,,,,,,,,,,,,,,,,,,,,,,,,,,,433.0900274012238,433.0900274012238,0.007115799933671951,0.11386490054428577,4.0,3.507564000785351,,,,,,,,,,,,,,8827,Moral,2024-07-09_10h25.09.902,MoralCondition_v2,2022.2.5,30.00320737078306,
6,0,6,0,2,0,2,0,,,,,,,,,,,,,,,,,,,,,,,,,,,,,,,,,,,,,,,,,,,,,,,,,,,,,436.6396582014859,436.6396582014859,0.007663700729608536,0.11432999931275845,5.0,1.574168600142002,,,,,,,,,,,,,,8827,Moral,2024-07-09_10h25.09.902,MoralCondition_v2,2022.2.5,30.00320737078306,
6,0,6,0,3,0,3,0,,,,,,,,,,,,,,,,,,,,,,,,,,,,,,,,,,,,,,,,,,,,,,,,,,,,,438.2562634013593,438.2562634013593,0.008608300238847733,0.11457839980721474,3.0,1.6408270988613367,,,,,,,,,,,,,,8827,Moral,2024-07-09_10h25.09.902,MoralCondition_v2,2022.2.5,30.00320737078306,
6,0,6,0,4,0,4,0,,,,,,,,,,,,,,,,,,,,,,,,,,,,,,,,,,,,,,,,,,,,,,,,,,,,,439.9228408001363,439.9228408001363,0.005683800205588341,0.09866710007190704,3.0,3.227538000792265,,,,,,,,,,,,,,8827,Moral,2024-07-09_10h25.09.902,MoralCondition_v2,2022.2.5,30.00320737078306,
6,0,6,0,5,0,5,0,,,,,,,,,,,,,,,,,,,,,,,,,,,,,,,,,,,,,,,,,,,,,,,,,,,,,443.1895642001182,443.1895642001182,0.007418399676680565,0.09768749959766865,2.0,1.4913852997124195,,,,,,,,,,,,,,8827,Moral,2024-07-09_10h25.09.902,MoralCondition_v2,2022.2.5,30.00320737078306,
6,0,6,0,6,0,6,0,,,,,,,,,,,,,,,,,,,,,,,,,,,,,,,,,,,,,,,,,,,,,,,,,,,,,444.72267390042543,444.72267390042543,0.0070555005222558975,0.09712829999625683,1.0,1.5911660995334387,,,,,,,,,,,,,,8827,Moral,2024-07-09_10h25.09.902,MoralCondition_v2,2022.2.5,30.00320737078306,
6,0,6,0,,,,,,,,,,,,,,,,,,,,,,,,,,,,,,,,,,,,,,,,,,,,,,,,,,,,,,,,,,,,,,,446.35598370060325,446.35598370060325,0.0007173996418714523,0.09909570030868053,7.0,3.766676999628544,,,,,,,,8827,Moral,2024-07-09_10h25.09.902,MoralCondition_v2,2022.2.5,30.00320737078306,
7,0,7,0,0,0,0,0,,,,,,,,,,,,,,,,,,,,,,450.1563485004008,0.00013690069317817688,0.09904780052602291,456.1558075007051,6.015668399631977,456.3228056002408,456.3228056002408,0.05747400037944317,0.16588340140879154,6.032330499961972,462.4559452999383,462.4559452999383,462.4559452999383,0.0893625020980835,0.1989654004573822,468.1561362016946,468.3562031015754,5.999048002064228,6.09920410066843,474.35600530169904,12.032363500446081,474.48934780061245,474.48934780061245,0.03266000188887119,0.13237790204584599,up,0.6148343980312347,475.1393191013485,6.110034883022308e-05,0.09733109921216965,481.1561639010906,481.1561639010906,481.1561639010906,0.009233199059963226,0.1141262985765934,1.0,3.7393036987632513,,,,,,,462.3227106016129,462.3227106016129,474.4562054015696,474.4562054015696,6.099032901227474,,,8827,Moral,2024-07-09_10h25.09.902,MoralCondition_v2,2022.2.5,30.00320737078306,
7,0,7,0,1,0,1,0,,,,,,,,,,,,,,,,,,,,,,,,,,,,,,,,,,,,,,,,,,,,,,,,,,,,,484.92268230021,484.92268230021,0.007818600162863731,0.09747109934687614,5.0,1.424184100702405,,,,,,,,,,,,,,8827,Moral,2024-07-09_10h25.09.902,MoralCondition_v2,2022.2.5,30.00320737078306,
7,0,7,0,2,0,2,0,,,,,,,,,,,,,,,,,,,,,,,,,,,,,,,,,,,,,,,,,,,,,,,,,,,,,486.40623380057514,486.40623380057514,0.0077630989253520966,0.11402329988777637,2.0,1.57411739975214,,,,,,,,,,,,,,8827,Moral,2024-07-09_10h25.09.902,MoralCondition_v2,2022.2.5,30.00320737078306,
7,0,7,0,3,0,3,0,,,,,,,,,,,,,,,,,,,,,,,,,,,,,,,,,,,,,,,,,,,,,,,,,,,,,488.00594220124185,488.00594220124185,0.0072801001369953156,0.09798110090196133,5.0,2.1251296997070312,,,,,,,,,,,,,,8827,Moral,2024-07-09_10h25.09.902,MoralCondition_v2,2022.2.5,30.00320737078306,
7,0,7,0,4,0,4,0,,,,,,,,,,,,,,,,,,,,,,,,,,,,,,,,,,,,,,,,,,,,,,,,,,,,,490.17261890135705,490.17261890135705,0.007693300023674965,0.09772340022027493,3.0,3.1911575999110937,,,,,,,,,,,,,,8827,Moral,2024-07-09_10h25.09.902,MoralCondition_v2,2022.2.5,30.00320737078306,
7,0,7,0,5,0,5,0,,,,,,,,,,,,,,,,,,,,,,,,,,,,,,,,,,,,,,,,,,,,,,,,,,,,,493.40584140084684,493.40584140084684,0.007128000259399414,0.09813280031085014,2.0,1.4587023984640837,,,,,,,,,,,,,,8827,Moral,2024-07-09_10h25.09.902,MoralCondition_v2,2022.2.5,30.00320737078306,
7,0,7,0,6,0,6,0,,,,,,,,,,,,,,,,,,,,,,,,,,,,,,,,,,,,,,,,,,,,,,,,,,,,,494.9058554004878,494.9058554004878,0.0076143015176057816,0.09799110144376755,6.0,1.7249474003911018,,,,,,,,,,,,,,8827,Moral,2024-07-09_10h25.09.902,MoralCondition_v2,2022.2.5,30.00320737078306,
7,0,7,0,,,,,,,,,,,,,,,,,,,,,,,,,,,,,,,,,,,,,,,,,,,,,,,,,,,,,,,,,,,,,,,496.67272219993174,496.67272219993174,0.0016197003424167633,0.09757170081138611,7.0,2.064011801034212,,,,,,,,8827,Moral,2024-07-09_10h25.09.902,MoralCondition_v2,2022.2.5,30.00320737078306,
8,0,8,0,0,0,0,0,,,,,,,,,,,,,,,,,,,,,,498.77271670103073,0.00035789981484413147,0.09759610146284103,504.7892581000924,6.014190800487995,504.95597920008004,504.95597920008004,0.07214370183646679,0.18085330165922642,6.014094401150942,511.05599969998,511.05599969998,511.05599969998,0.06918620131909847,0.18061840161681175,516.7560016009957,516.9558920003474,6.013986900448799,6.113895101472735,522.9558388013393,12.01391240209341,523.0891704000533,523.0891704000533,0.014033902436494827,0.1140644010156393,up,1.4714409988373518,524.6225372012705,4.6700239181518555e-05,0.0978183001279831,,530.6396642010659,530.6396642010659,0.02607019990682602,0.11462870053946972,3.0,2.323549499735236,,,,,,,510.9558899011463,510.9558899011463,523.0558170005679,523.0558170005679,,,,8827,Moral,2024-07-09_10h25.09.902,MoralCondition_v2,2022.2.5,30.00320737078306,
8,0,8,0,1,0,1,0,,,,,,,,,,,,,,,,,,,,,,,,,,,,,,,,,,,,,,,,,,,,,,,,,,,,,533.0058453008533,533.0058453008533,0.007452299818396568,0.09793779999017715,4.0,2.0583272017538548,,,,,,,,,,,,,,8827,Moral,2024-07-09_10h25.09.902,MoralCondition_v2,2022.2.5,30.00320737078306,
8,0,8,0,2,0,2,0,,,,,,,,,,,,,,,,,,,,,,,,,,,,,,,,,,,,,,,,,,,,,,,,,,,,,535.1060136016458,535.1060136016458,0.008363800123333931,0.09701380133628845,5.0,1.9563500992953777,,,,,,,,,,,,,,8827,Moral,2024-07-09_10h25.09.902,MoralCondition_v2,2022.2.5,30.00320737078306,
8,0,8,0,3,0,3,0,,,,,,,,,,,,,,,,,,,,,,,,,,,,,,,,,,,,,,,,,,,,,,,,,,,,,537.1227196007967,537.1227196007967,0.009439000859856606,0.11444759927690029,3.0,1.839369598776102,,,,,,,,,,,,,,8827,Moral,2024-07-09_10h25.09.902,MoralCondition_v2,2022.2.5,30.00320737078306,
8,0,8,0,4,0,4,0,,,,,,,,,,,,,,,,,,,,,,,,,,,,,,,,,,,,,,,,,,,,,,,,,,,,,538.9892981015146,538.9892981015146,0.006261199712753296,0.09939569979906082,2.0,1.960682898759842,,,,,,,,,,,,,,8827,Moral,2024-07-09_10h25.09.902,MoralCondition_v2,2022.2.5,30.00320737078306,
8,0,8,0,5,0,5,0,,,,,,,,,,,,,,,,,,,,,,,,,,,,,,,,,,,,,,,,,,,,,,,,,,,,,540.9892210010439,540.9892210010439,0.006800800561904907,0.09837120026350021,6.0,1.859314899891615,,,,,,,,,,,,,,8827,Moral,2024-07-09_10h25.09.902,MoralCondition_v2,2022.2.5,30.00320737078306,
8,0,8,0,6,0,6,0,,,,,,,,,,,,,,,,,,,,,,,,,,,,,,,,,,,,,,,,,,,,,,,,,,,,,542.8890579007566,542.8890579007566,0.006872400641441345,0.09903489984571934,5.0,2.526588199660182,,,,,,,,,,,,,,8827,Moral,2024-07-09_10h25.09.902,MoralCondition_v2,2022.2.5,30.00320737078306,
8,0,8,0,,,,,,,,,,,,,,,,,,,,,,,,,,,,,,,,,,,,,,,,,,,,,,,,,,,,,,,,,,,,,,,545.4558916017413,545.4558916017413,0.0011844001710414886,0.09797989949584007,4.0,4.231261599808931,,,,,,,,8827,Moral,2024-07-09_10h25.09.902,MoralCondition_v2,2022.2.5,30.00320737078306,
9,0,9,0,0,0,0,0,,,,,,,,,,,,,,,,,,,,,,549.7229131013155,0.00030029937624931335,0.0973838996142149,555.7224102001637,6.030697898939252,555.9056146014482,555.9056146014482,0.07033669948577881,0.1806947998702526,6.013858800753951,562.0057427007705,562.0057427007705,562.0057427007705,0.07302900031208992,0.1808500997722149,567.7060542013496,567.9056687001139,6.013966500759125,6.114205500110984,573.9059918001294,12.014310101047158,574.0390202011913,574.0390202011913,0.014190100133419037,0.11391240172088146,up,0.8099549002945423,574.9057044014335,3.2199546694755554e-05,0.09840049967169762,,580.9391485005617,580.9391485005617,0.026383699849247932,0.13163689896464348,6.0,1.7063107006251812,,,,,,,561.9057158008218,561.9057158008218,573.9890020005405,573.9890020005405,,,,8827,Moral,2024-07-09_10h25.09.902,MoralCondition_v2,2022.2.5,30.00320737078306,
9,0,9,0,1,0,1,0,,,,,,,,,,,,,,,,,,,,,,,,,,,,,,,,,,,,,,,,,,,,,,,,,,,,,582.6724061015993,582.6724061015993,0.006740100681781769,0.09901170060038567,4.0,2.2597171012312174,,,,,,,,,,,,,,8827,Moral,2024-07-09_10h25.09.902,MoralCondition_v2,2022.2.5,30.00320737078306,
9,0,9,0,2,0,2,0,,,,,,,,,,,,,,,,,,,,,,,,,,,,,,,,,,,,,,,,,,,,,,,,,,,,,584.9721445012838,584.9721445012838,0.008462700992822647,0.09724880009889603,2.0,2.390123698860407,,,,,,,,,,,,,,8827,Moral,2024-07-09_10h25.09.902,MoralCondition_v2,2022.2.5,30.00320737078306,
9,0,9,0,3,0,3,0,,,,,,,,,,,,,,,,,,,,,,,,,,,,,,,,,,,,,,,,,,,,,,,,,,,,,587.405540401116,587.405540401116,0.0064476002007722855,0.0990872010588646,1.0,1.6270987000316381,,,,,,,,,,,,,,8827,Moral,2024-07-09_10h25.09.902,MoralCondition_v2,2022.2.5,30.00320737078306,
9,0,9,0,4,0,4,0,,,,,,,,,,,,,,,,,,,,,,,,,,,,,,,,,,,,,,,,,,,,,,,,,,,,,589.0722403004766,589.0722403004766,0.006281198933720589,0.09846139885485172,3.0,1.8269422985613346,,,,,,,,,,,,,,8827,Moral,2024-07-09_10h25.09.902,MoralCondition_v2,2022.2.5,30.00320737078306,
9,0,9,0,5,0,5,0,,,,,,,,,,,,,,,,,,,,,,,,,,,,,,,,,,,,,,,,,,,,,,,,,,,,,590.9388606008142,590.9388606008142,0.006829800084233284,0.09809880144894123,2.0,1.5256856996566057,,,,,,,,,,,,,,8827,Moral,2024-07-09_10h25.09.902,MoralCondition_v2,2022.2.5,30.00320737078306,
9,0,9,0,6,0,6,0,,,,,,,,,,,,,,,,,,,,,,,,,,,,,,,,,,,,,,,,,,,,,,,,,,,,,592.5225226003677,592.5225226003677,0.008549600839614868,0.11371690034866333,5.0,1.2062989007681608,,,,,,,,,,,,,,8827,Moral,2024-07-09_10h25.09.902,MoralCondition_v2,2022.2.5,30.00320737078306,
9,0,9,0,,,,,,,,,,,,,,,,,,,,,,,,,,,,,,,,,,,,,,,,,,,,,,,,,,,,,,,,,,,,,,,593.7557232007384,593.7557232007384,0.0012486986815929413,0.09792809933423996,7.0,2.5310241002589464,,,,,,,,8827,Moral,2024-07-09_10h25.09.902,MoralCondition_v2,2022.2.5,30.00320737078306,
10,0,10,0,0,0,0,0,,,,,,,,,,,,,,,,,,,,,,596.3226180002093,0.00031270086765289307,0.09742389991879463,602.3223036006093,6.030818201601505,602.522205600515,602.522205600515,0.08507740125060081,0.19740080088377,6.030639501288533,608.6223348006606,608.6223348006606,608.6223348006606,0.08241140097379684,0.19759750179946423,614.3221892006695,614.5222326014191,6.030755100771785,6.130696902051568,620.5224215015769,12.030936101451516,620.655584000051,620.655584000051,0.03104170225560665,0.13076660223305225,up,1.313476599752903,622.0054935012013,4.8100948333740234e-05,0.09781290031969547,628.0053301006556,628.0053301006556,628.0053301006556,0.003790099173784256,0.0977937001734972,6.0,1.8949238006025553,,,,,,,608.5222634002566,608.5222634002566,620.6222467999905,620.6222467999905,,,,8827,Moral,2024-07-09_10h25.09.902,MoralCondition_v2,2022.2.5,30.00320737078306,
10,0,10,0,1,0,1,0,,,,,,,,,,,,,,,,,,,,,,,,,,,,,,,,,,,,,,,,,,,,,,,,,,,,,629.9386889003217,629.9386889003217,0.007013000547885895,0.09808470122516155,3.0,1.7588555999100208,,,,,,,,,,,,,,8827,Moral,2024-07-09_10h25.09.902,MoralCondition_v2,2022.2.5,30.00320737078306,
10,0,10,0,2,0,2,0,,,,,,,,,,,,,,,,,,,,,,,,,,,,,,,,,,,,,,,,,,,,,,,,,,,,,631.7556909006089,631.7556909006089,0.008188899606466293,0.11436359956860542,5.0,1.540685199201107,,,,,,,,,,,,,,8827,Moral,2024-07-09_10h25.09.902,MoralCondition_v2,2022.2.5,30.00320737078306,
10,0,10,0,3,0,3,0,,,,,,,,,,,,,,,,,,,,,,,,,,,,,,,,,,,,,,,,,,,,,,,,,,,,,633.3391106016934,633.3391106016934,0.008817799389362335,0.11482100002467632,2.0,1.5069030988961458,,,,,,,,,,,,,,8827,Moral,2024-07-09_10h25.09.902,MoralCondition_v2,2022.2.5,30.00320737078306,
10,0,10,0,4,0,4,0,,,,,,,,,,,,,,,,,,,,,,,,,,,,,,,,,,,,,,,,,,,,,,,,,,,,,634.872025700286,634.872025700286,0.00710969977080822,0.09720649942755699,3.0,3.59116730093956,,,,,,,,,,,,,,8827,Moral,2024-07-09_10h25.09.902,MoralCondition_v2,2022.2.5,30.00320737078306,
10,0,10,0,5,0,5,0,,,,,,,,,,,,,,,,,,,,,,,,,,,,,,,,,,,,,,,,,,,,,,,,,,,,,638.5057284999639,638.5057284999639,0.008236100897192955,0.09712470136582851,6.0,1.3232617992907763,,,,,,,,,,,,,,8827,Moral,2024-07-09_10h25.09.902,MoralCondition_v2,2022.2.5,30.00320737078306,
10,0,10,0,6,0,6,0,,,,,,,,,,,,,,,,,,,,,,,,,,,,,,,,,,,,,,,,,,,,,,,,,,,,,639.8720287010074,639.8720287010074,0.007480001077055931,0.09788640029728413,3.0,3.324956100434065,,,,,,,,,,,,,,8827,Moral,2024-07-09_10h25.09.902,MoralCondition_v2,2022.2.5,30.00320737078306,
10,0,10,0,,,,,,,,,,,,,,,,,,,,,,,,,,,,,,,,,,,,,,,,,,,,,,,,,,,,,,,,,,,,,,,643.2388914003968,643.2388914003968,0.0007715001702308655,0.09938690066337585,7.0,2.9328433983027935,,,,,,,,8827,Moral,2024-07-09_10h25.09.902,MoralCondition_v2,2022.2.5,30.00320737078306,
11,0,11,0,0,0,0,0,,,,,,,,,,,,,,,,,,,,,,646.2056707013398,0.00013690069317817688,0.09924919903278351,652.2053359001875,5.99904459901154,652.3720084000379,652.3720084000379,0.06126699969172478,0.16571670025587082,5.9995457995682955,658.471963500604,658.471963500604,658.471963500604,0.058518800884485245,0.16572190076112747,664.1720762010664,664.4056028015912,5.999206300824881,6.098835499957204,670.4053848013282,11.999019199982285,670.505362899974,670.505362899974,-5.509890615940094e-05,0.09913540072739124,up,1.3273638989776373,671.8886950016022,4.340149462223053e-05,0.09801900014281273,677.8888572007418,677.8888572007418,677.8888572007418,0.00854790024459362,0.09774710051715374,2.0,2.257082300260663,,,,,,,658.3721708003432,658.3721708003432,670.4720839001238,670.4720839001238,6.099025899544358,12.099093900993466,6.099201200529933,8827,Moral,2024-07-09_10h25.09.902,MoralCondition_v2,2022.2.5,30.00320737078306,
11,0,11,0,1,0,1,0,,,,,,,,,,,,,,,,,,,,,,,,,,,,,,,,,,,,,,,,,,,,,,,,,,,,,680.1886347010732,680.1886347010732,0.0069976989179849625,0.09781529940664768,5.0,1.025305800139904,,,,,,,,,,,,,,8827,Moral,2024-07-09_10h25.09.902,MoralCondition_v2,2022.2.5,30.00320737078306,
11,0,11,0,2,0,2,0,,,,,,,,,,,,,,,,,,,,,,,,,,,,,,,,,,,,,,,,,,,,,,,,,,,,,681.2553733009845,681.2553733009845,0.006595300510525703,0.09922370128333569,6.0,2.3933653999119997,,,,,,,,,,,,,,8827,Moral,2024-07-09_10h25.09.902,MoralCondition_v2,2022.2.5,30.00320737078306,
11,0,11,0,3,0,3,0,,,,,,,,,,,,,,,,,,,,,,,,,,,,,,,,,,,,,,,,,,,,,,,,,,,,,683.7053163014352,683.7053163014352,0.007868001237511635,0.1142485998570919,3.0,1.4406915996223688,,,,,,,,,,,,,,8827,Moral,2024-07-09_10h25.09.902,MoralCondition_v2,2022.2.5,30.00320737078306,
11,0,11,0,4,0,4,0,,,,,,,,,,,,,,,,,,,,,,,,,,,,,,,,,,,,,,,,,,,,,,,,,,,,,685.1720018014312,685.1720018014312,0.007178299129009247,0.09802090004086494,6.0,3.2586815990507603,,,,,,,,,,,,,,8827,Moral,2024-07-09_10h25.09.902,MoralCondition_v2,2022.2.5,30.00320737078306,
11,0,11,0,5,0,5,0,,,,,,,,,,,,,,,,,,,,,,,,,,,,,,,,,,,,,,,,,,,,,,,,,,,,,688.4719831999391,688.4719831999391,0.005936099216341972,0.09938069991767406,2.0,1.561158800497651,,,,,,,,,,,,,,8827,Moral,2024-07-09_10h25.09.902,MoralCondition_v2,2022.2.5,30.00320737078306,
11,0,11,0,6,0,6,0,,,,,,,,,,,,,,,,,,,,,,,,,,,,,,,,,,,,,,,,,,,,,,,,,,,,,690.0718775000423,690.0718775000423,0.006159801036119461,0.09902910143136978,5.0,2.560955500230193,,,,,,,,,,,,,,8827,Moral,2024-07-09_10h25.09.902,MoralCondition_v2,2022.2.5,30.00320737078306,
11,0,11,0,,,,,,,,,,,,,,,,,,,,,,,,,,,,,,,,,,,,,,,,,,,,,,,,,,,,,,,,,,,,,,,692.672079000622,692.672079000622,0.0007762014865875244,0.09904170036315918,7.0,1.7992896009236574,,,,,,,,8827,Moral,2024-07-09_10h25.09.902,MoralCondition_v2,2022.2.5,30.00320737078306,
12,0,12,0,0,0,0,0,,,,,,,,,,,,,,,,,,,,,,694.5055569000542,0.00027170032262802124,0.09826070070266724,700.5052771009505,6.031483700498939,700.7054432015866,700.7054432015866,0.08615129999816418,0.19826750084757805,6.0315346997231245,706.8054720014334,706.8054720014334,706.8054720014334,0.08748860098421574,0.19841460138559341,712.5052273012698,712.7052278015763,6.031480800360441,6.131401801481843,718.7052271999419,12.031465901061893,718.8385748006403,718.8385748006403,0.03168710134923458,0.14843040145933628,up,1.2656057998538017,720.1385713014752,4.1699036955833435e-05,0.09772039949893951,,726.1721303015947,726.1721303015947,0.02561359852552414,0.13119449838995934,5.0,2.8397880997508764,,,,,,,706.7052318006754,706.7052318006754,718.8053284008056,718.8053284008056,,,,8827,Moral,2024-07-09_10h25.09.902,MoralCondition_v2,2022.2.5,30.00320737078306,
12,0,12,0,1,0,1,0,,,,,,,,,,,,,,,,,,,,,,,,,,,,,,,,,,,,,,,,,,,,,,,,,,,,,729.0385030005127,729.0385030005127,0.007121199741959572,0.09930909983813763,2.0,2.2263981997966766,,,,,,,,,,,,,,8827,Moral,2024-07-09_10h25.09.902,MoralCondition_v2,2022.2.5,30.00320737078306,
12,0,12,0,2,0,2,0,,,,,,,,,,,,,,,,,,,,,,,,,,,,,,,,,,,,,,,,,,,,,,,,,,,,,731.3219971004874,731.3219971004874,0.007390601560473442,0.11362200044095516,4.0,1.7072071004658937,,,,,,,,,,,,,,8827,Moral,2024-07-09_10h25.09.902,MoralCondition_v2,2022.2.5,30.00320737078306,
12,0,12,0,3,0,3,0,,,,,,,,,,,,,,,,,,,,,,,,,,,,,,,,,,,,,,,,,,,,,,,,,,,,,733.0553331002593,733.0553331002593,0.006296899169683456,0.09913319908082485,3.0,3.6938387006521225,,,,,,,,,,,,,,8827,Moral,2024-07-09_10h25.09.902,MoralCondition_v2,2022.2.5,30.00320737078306,
12,0,12,0,4,0,4,0,,,,,,,,,,,,,,,,,,,,,,,,,,,,,,,,,,,,,,,,,,,,,,,,,,,,,736.7884511016309,736.7884511016309,0.008668100461363792,0.09934640116989613,2.0,1.1917795985937119,,,,,,,,,,,,,,8827,Moral,2024-07-09_10h25.09.902,MoralCondition_v2,2022.2.5,30.00320737078306,
12,0,12,0,5,0,5,0,,,,,,,,,,,,,,,,,,,,,,,,,,,,,,,,,,,,,,,,,,,,,,,,,,,,,738.0387374013662,738.0387374013662,0.009133800864219666,0.11430929973721504,5.0,1.5731201004236937,,,,,,,,,,,,,,8827,Moral,2024-07-09_10h25.09.902,MoralCondition_v2,2022.2.5,30.00320737078306,
12,0,12,0,6,0,6,0,,,,,,,,,,,,,,,,,,,,,,,,,,,,,,,,,,,,,,,,,,,,,,,,,,,,,739.6384934000671,739.6384934000671,0.008833300322294235,0.0986820999532938,5.0,1.3906980995088816,,,,,,,,,,,,,,8827,Moral,2024-07-09_10h25.09.902,MoralCondition_v2,2022.2.5,30.00320737078306,
12,0,12,0,,,,,,,,,,,,,,,,,,,,,,,,,,,,,,,,,,,,,,,,,,,,,,,,,,,,,,,,,,,,,,,741.0716904010624,741.0716904010624,0.0015817005187273026,0.09710790030658245,3.0,2.963418399915099,,,,,,,,8827,Moral,2024-07-09_10h25.09.902,MoralCondition_v2,2022.2.5,30.00320737078306,
13,0,13,0,0,0,0,0,,,,,,,,,,,,,,,,,,,,,,744.0718557015061,0.00027669966220855713,0.0979142002761364,750.0718413013965,6.031290899962187,750.2719010002911,750.2719010002911,0.0947865005582571,0.19809409976005554,6.031324800103903,756.3720226008445,756.3720226008445,756.3720226008445,0.09278710000216961,0.19806350022554398,762.0715960003436,762.2717805001885,6.031295200809836,6.131175499409437,768.2717842012644,12.03129049949348,768.4051924999803,768.4051924999803,0.03148370049893856,0.13117070123553276,up,1.4434498995542526,769.9050862006843,4.6800822019577026e-05,0.09779749996960163,775.921725301072,775.921725301072,775.921725301072,0.008819499984383583,0.11452330090105534,5.0,2.173310201615095,,,,,,,756.2718390002847,756.2718390002847,768.3718514014035,768.3718514014035,,,,8827,Moral,2024-07-09_10h25.09.902,MoralCondition_v2,2022.2.5,30.00320737078306,
13,0,13,0,1,0,1,0,,,,,,,,,,,,,,,,,,,,,,,,,,,,,,,,,,,,,,,,,,,,,,,,,,,,,778.1216843016446,778.1216843016446,0.007275000214576721,0.09765220060944557,3.0,1.9246484003961086,,,,,,,,,,,,,,8827,Moral,2024-07-09_10h25.09.902,MoralCondition_v2,2022.2.5,30.00320737078306,
13,0,13,0,2,0,2,0,,,,,,,,,,,,,,,,,,,,,,,,,,,,,,,,,,,,,,,,,,,,,,,,,,,,,780.0882510002702,780.0882510002702,0.007385300472378731,0.09760339930653572,4.0,2.1247579995542765,,,,,,,,,,,,,,8827,Moral,2024-07-09_10h25.09.902,MoralCondition_v2,2022.2.5,30.00320737078306,
13,0,13,0,3,0,3,0,,,,,,,,,,,,,,,,,,,,,,,,,,,,,,,,,,,,,,,,,,,,,,,,,,,,,782.2551704011858,782.2551704011858,0.0064608994871377945,0.09913260117173195,2.0,1.993927599862218,,,,,,,,,,,,,,8827,Moral,2024-07-09_10h25.09.902,MoralCondition_v2,2022.2.5,30.00320737078306,
13,0,13,0,4,0,4,0,,,,,,,,,,,,,,,,,,,,,,,,,,,,,,,,,,,,,,,,,,,,,,,,,,,,,784.2883152011782,784.2883152011782,0.0074135009199380875,0.09758969955146313,5.0,2.1910034995526075,,,,,,,,,,,,,,8827,Moral,2024-07-09_10h25.09.902,MoralCondition_v2,2022.2.5,30.00320737078306,
13,0,13,0,5,0,5,0,,,,,,,,,,,,,,,,,,,,,,,,,,,,,,,,,,,,,,,,,,,,,,,,,,,,,786.5218778010458,786.5218778010458,0.007401701062917709,0.09771430119872093,5.0,1.9581077005714178,,,,,,,,,,,,,,8827,Moral,2024-07-09_10h25.09.902,MoralCondition_v2,2022.2.5,30.00320737078306,
13,0,13,0,6,0,6,0,,,,,,,,,,,,,,,,,,,,,,,,,,,,,,,,,,,,,,,,,,,,,,,,,,,,,788.538437301293,788.538437301293,0.009061701595783234,0.11379010044038296,2.0,3.472631599754095,,,,,,,,,,,,,,8827,Moral,2024-07-09_10h25.09.902,MoralCondition_v2,2022.2.5,30.00320737078306,
13,0,13,0,,,,,,,,,,,,,,,,,,,,,,,,,,,,,,,,,,,,,,,,,,,,,,,,,,,,,,,,,,,,,,,792.0385631006211,792.0385631006211,0.0007044989615678787,0.09947669878602028,4.0,3.1664374005049467,,,,,,,,8827,Moral,2024-07-09_10h25.09.902,MoralCondition_v2,2022.2.5,30.00320737078306,
14,0,14,0,0,0,0,0,,,,,,,,,,,,,,,,,,,,,,795.2386947013438,0.0005279015749692917,0.09755650162696838,801.2551405001432,6.014517400413752,801.4552752003074,801.4552752003074,0.09885820187628269,0.2143804021179676,6.014164201915264,807.5047262012959,807.5047262012959,807.5047262012959,0.06556650251150131,0.1644021011888981,813.2051690015942,813.438381601125,6.030984301120043,6.130827501416206,819.4382351003587,12.03081670217216,819.5715713016689,819.5715713016689,0.030960701406002045,0.13078590109944344,up,1.3812226988375187,821.0048928000033,9.850040078163147e-05,0.09797249920666218,,827.0218175016344,827.0218175016344,0.02447349950671196,0.11491929925978184,2.0,2.5247997008264065,,,,,,,,,819.5048952009529,819.5048952009529,,,,8827,Moral,2024-07-09_10h25.09.902,MoralCondition_v2,2022.2.5,30.00320737078306,
14,0,14,0,1,0,1,0,,,,,,,,,,,,,,,,,,,,,,,,,,,,,,,,,,,,,,,,,,,,,,,,,,,,,829.5881806015968,829.5881806015968,0.007321499288082123,0.09804119914770126,4.0,3.1247428990900517,,,,,,,,,,,,,,8827,Moral,2024-07-09_10h25.09.902,MoralCondition_v2,2022.2.5,30.00320737078306,
14,0,14,0,2,0,2,0,,,,,,,,,,,,,,,,,,,,,,,,,,,,,,,,,,,,,,,,,,,,,,,,,,,,,832.754859900102,832.754859900102,0.006610199809074402,0.09917180053889751,3.0,1.4938330985605717,,,,,,,,,,,,,,8827,Moral,2024-07-09_10h25.09.902,MoralCondition_v2,2022.2.5,30.00320737078306,
14,0,14,0,3,0,3,0,,,,,,,,,,,,,,,,,,,,,,,,,,,,,,,,,,,,,,,,,,,,,,,,,,,,,834.3050636015832,834.3050636015832,0.009415199980139732,0.11447509936988354,5.0,2.0394667014479637,,,,,,,,,,,,,,8827,Moral,2024-07-09_10h25.09.902,MoralCondition_v2,2022.2.5,30.00320737078306,
14,0,14,0,4,0,4,0,,,,,,,,,,,,,,,,,,,,,,,,,,,,,,,,,,,,,,,,,,,,,,,,,,,,,836.3715286012739,836.3715286012739,0.006712701171636581,0.09916060045361519,2.0,1.4268148001283407,,,,,,,,,,,,,,8827,Moral,2024-07-09_10h25.09.902,MoralCondition_v2,2022.2.5,30.00320737078306,
14,0,14,0,5,0,5,0,,,,,,,,,,,,,,,,,,,,,,,,,,,,,,,,,,,,,,,,,,,,,,,,,,,,,837.8381859008223,837.8381859008223,0.007522400468587875,0.09782310016453266,5.0,2.1913078986108303,,,,,,,,,,,,,,8827,Moral,2024-07-09_10h25.09.902,MoralCondition_v2,2022.2.5,30.00320737078306,
14,0,14,0,6,0,6,0,,,,,,,,,,,,,,,,,,,,,,,,,,,,,,,,,,,,,,,,,,,,,,,,,,,,,840.0715765003115,840.0715765003115,0.007017100229859352,0.09922659955918789,5.0,2.6604503002017736,,,,,,,,,,,,,,8827,Moral,2024-07-09_10h25.09.902,MoralCondition_v2,2022.2.5,30.00320737078306,
14,0,14,0,,,,,,,,,,,,,,,,,,,,,,,,,,,,,,,,,,,,,,,,,,,,,,,,,,,,,,,,,,,,,,,842.7716189008206,842.7716189008206,0.001148400828242302,0.09775679931044579,3.0,2.364520899951458,,,,,,,,8827,Moral,2024-07-09_10h25.09.902,MoralCondition_v2,2022.2.5,30.00320737078306,
15,0,15,0,0,0,0,0,,,,,,,,,,,,,,,,,,,,,,845.1717912014574,0.00013910047709941864,0.09927869960665703,851.1713632009923,5.999226000159979,851.3381318002939,851.3381318002939,0.060106899589300156,0.1660115011036396,5.999300200492144,857.4382616002113,857.4382616002113,857.4382616002113,0.06584780104458332,0.16606879979372025,863.1381116006523,863.3379319999367,6.032431000843644,6.132501600310206,869.3379650004208,11.999010501429439,869.4714807011187,869.4714807011187,3.5017728805541992e-06,0.09917620010674,up,1.4729522000998259,870.9880824014544,4.2300671339035034e-05,0.09799440018832684,877.004871699959,877.004871699959,877.004871699959,0.007933000102639198,0.11470209993422031,4.0,2.507991701364517,,,,,,,857.3380440007895,857.3380440007895,869.4381410013884,869.4381410013884,6.099067600443959,12.099226400256157,6.099099399521947,8827,Moral,2024-07-09_10h25.09.902,MoralCondition_v2,2022.2.5,30.00320737078306,
15,0,15,0,1,0,1,0,,,,,,,,,,,,,,,,,,,,,,,,,,,,,,,,,,,,,,,,,,,,,,,,,,,,,879.5379979014397,879.5379979014397,0.010034799575805664,0.09786459989845753,2.0,2.688883600756526,,,,,,,,,,,,,,8827,Moral,2024-07-09_10h25.09.902,MoralCondition_v2,2022.2.5,30.00320737078306,
15,0,15,0,2,0,2,0,,,,,,,,,,,,,,,,,,,,,,,,,,,,,,,,,,,,,,,,,,,,,,,,,,,,,882.2714250013232,882.2714250013232,0.006872700527310371,0.09912309981882572,5.0,2.5268467999994755,,,,,,,,,,,,,,8827,Moral,2024-07-09_10h25.09.902,MoralCondition_v2,2022.2.5,30.00320737078306,
15,0,15,0,3,0,3,0,,,,,,,,,,,,,,,,,,,,,,,,,,,,,,,,,,,,,,,,,,,,,,,,,,,,,884.8380407001823,884.8380407001823,0.00750960037112236,0.0991659015417099,4.0,2.425992099568248,,,,,,,,,,,,,,8827,Moral,2024-07-09_10h25.09.902,MoralCondition_v2,2022.2.5,30.00320737078306,
15,0,15,0,4,0,4,0,,,,,,,,,,,,,,,,,,,,,,,,,,,,,,,,,,,,,,,,,,,,,,,,,,,,,887.3046548999846,887.3046548999846,0.007792899385094643,0.09804579988121986,5.0,6.0577406994998455,,,,,,,,,,,,,,8827,Moral,2024-07-09_10h25.09.902,MoralCondition_v2,2022.2.5,30.00320737078306,
15,0,15,0,5,0,5,0,,,,,,,,,,,,,,,,,,,,,,,,,,,,,,,,,,,,,,,,,,,,,,,,,,,,,893.4046384003013,893.4046384003013,0.008273400366306305,0.09851540066301823,3.0,4.357957700267434,,,,,,,,,,,,,,8827,Moral,2024-07-09_10h25.09.902,MoralCondition_v2,2022.2.5,30.00320737078306,
15,0,15,0,6,0,6,0,,,,,,,,,,,,,,,,,,,,,,,,,,,,,,,,,,,,,,,,,,,,,,,,,,,,,897.8048847001046,897.8048847001046,0.007088100537657738,0.09805240109562874,3.0,2.32541530020535,,,,,,,,,,,,,,8827,Moral,2024-07-09_10h25.09.902,MoralCondition_v2,2022.2.5,30.00320737078306,
15,0,15,0,,,,,,,,,,,,,,,,,,,,,,,,,,,,,,,,,,,,,,,,,,,,,,,,,,,,,,,,,,,,,,,900.1715153008699,900.1715153008699,0.0013105999678373337,0.09750260040163994,6.0,11.197150500491261,,,,,,,,8827,Moral,2024-07-09_10h25.09.902,MoralCondition_v2,2022.2.5,30.00320737078306,
16,0,16,0,0,0,0,0,,,,,,,,,,,,,,,,,,,,,,911.3876883015037,9.379908442497253e-05,0.08256099931895733,917.3878848999739,6.016233699396253,917.5878383014351,917.5878383014351,0.06964150071144104,0.18312640115618706,6.0162832997739315,923.6879601012915,923.6879601012915,923.6879601012915,0.07055360078811646,0.1830810997635126,929.387833500281,929.587889900431,6.016239600256085,6.116205399855971,935.5877985004336,12.01616040058434,935.7211593016982,935.7211593016982,0.016304001212120056,0.11611960083246231,up,0.55946059897542,936.321168301627,4.580058157444e-05,0.0974821001291275,942.3210696000606,942.3210696000606,942.3210696000606,0.009204700589179993,0.09755109995603561,5.0,4.622431300580502,,,,,,,923.587832801044,923.587832801044,935.6878091003746,935.6878091003746,,,,8827,Moral,2024-07-09_10h25.09.902,MoralCondition_v2,2022.2.5,30.00320737078306,
16,0,16,0,1,0,1,0,,,,,,,,,,,,,,,,,,,,,,,,,,,,,,,,,,,,,,,,,,,,,,,,,,,,,947.0046720001847,947.0046720001847,0.008683199062943459,0.11511269956827164,2.0,1.607167799025774,,,,,,,,,,,,,,8827,Moral,2024-07-09_10h25.09.902,MoralCondition_v2,2022.2.5,30.00320737078306,
16,0,16,0,2,0,2,0,,,,,,,,,,,,,,,,,,,,,,,,,,,,,,,,,,,,,,,,,,,,,,,,,,,,,948.6375406011939,948.6375406011939,0.005438599735498428,0.09917059913277626,4.0,1.6948517989367247,,,,,,,,,,,,,,8827,Moral,2024-07-09_10h25.09.902,MoralCondition_v2,2022.2.5,30.00320737078306,
16,0,16,0,3,0,3,0,,,,,,,,,,,,,,,,,,,,,,,,,,,,,,,,,,,,,,,,,,,,,,,,,,,,,950.388069100678,950.388069100678,0.008601401001214981,0.1144642997533083,5.0,1.5069318991154432,,,,,,,,,,,,,,8827,Moral,2024-07-09_10h25.09.902,MoralCondition_v2,2022.2.5,30.00320737078306,
16,0,16,0,4,0,4,0,,,,,,,,,,,,,,,,,,,,,,,,,,,,,,,,,,,,,,,,,,,,,,,,,,,,,951.9208976998925,951.9208976998925,0.007872899994254112,0.09788120165467262,3.0,1.624261800199747,,,,,,,,,,,,,,8827,Moral,2024-07-09_10h25.09.902,MoralCondition_v2,2022.2.5,30.00320737078306,
16,0,16,0,5,0,5,0,,,,,,,,,,,,,,,,,,,,,,,,,,,,,,,,,,,,,,,,,,,,,,,,,,,,,953.5878200009465,953.5878200009465,0.006742700934410095,0.09904970042407513,4.0,2.1599671002477407,,,,,,,,,,,,,,8827,Moral,2024-07-09_10h25.09.902,MoralCondition_v2,2022.2.5,30.00320737078306,
16,0,16,0,6,0,6,0,,,,,,,,,,,,,,,,,,,,,,,,,,,,,,,,,,,,,,,,,,,,,,,,,,,,,955.7876613009721,955.7876613009721,0.0076409000903368,0.09939920157194138,2.0,2.6261355001479387,,,,,,,,,,,,,,8827,Moral,2024-07-09_10h25.09.902,MoralCondition_v2,2022.2.5,30.00320737078306,
16,0,16,0,,,,,,,,,,,,,,,,,,,,,,,,,,,,,,,,,,,,,,,,,,,,,,,,,,,,,,,,,,,,,,,958.4544752016664,958.4544752016664,0.0006975997239351273,0.09919309988617897,7.0,3.299550998955965,,,,,,,,8827,Moral,2024-07-09_10h25.09.902,MoralCondition_v2,2022.2.5,30.00320737078306,
17,0,17,0,0,0,0,0,,,,,,,,,,,,,,,,,,,,,,961.7881005015224,0.00020759925246238708,0.09905369952321053,967.787698701024,6.032368900254369,967.9877583011985,967.9877583011985,0.09622439928352833,0.19901110045611858,5.9990439005196095,974.0543325003237,974.0543325003237,974.0543325003237,0.05842610076069832,0.16586560010910034,979.7543517015874,979.9876775015146,6.032540099695325,6.132253499701619,985.9877492003143,12.032428700476885,986.1209533009678,986.1209533009678,0.03238080069422722,0.1322570014744997,up,1.2963076997548342,987.470983101055,4.540011286735535e-05,0.09792999923229218,993.4876214005053,993.4876214005053,993.4876214005053,0.010764099657535553,0.11447850055992603,4.0,4.104776099324226,,,,,,,974.0543325003237,974.0543325003237,986.0543028004467,986.0543028004467,,,6.099115900695324,8827,Moral,2024-07-09_10h25.09.902,MoralCondition_v2,2022.2.5,30.00320737078306,
17,0,17,0,1,0,1,0,,,,,,,,,,,,,,,,,,,,,,,,,,,,,,,,,,,,,,,,,,,,,,,,,,,,,997.620678100735,997.620678100735,0.007646398618817329,0.09745940007269382,2.0,1.7244870997965336,,,,,,,,,,,,,,8827,Moral,2024-07-09_10h25.09.902,MoralCondition_v2,2022.2.5,30.00320737078306,
17,0,17,0,2,0,2,0,,,,,,,,,,,,,,,,,,,,,,,,,,,,,,,,,,,,,,,,,,,,,,,,,,,,,999.3875445015728,999.3875445015728,0.0055678002536296844,0.09924769960343838,2.0,1.4612924009561539,,,,,,,,,,,,,,8827,Moral,2024-07-09_10h25.09.902,MoralCondition_v2,2022.2.5,30.00320737078306,
17,0,17,0,3,0,3,0,,,,,,,,,,,,,,,,,,,,,,,,,,,,,,,,,,,,,,,,,,,,,,,,,,,,,1000.9044368006289,1000.9044368006289,0.008164500817656517,0.11413460038602352,6.0,1.807124700397253,,,,,,,,,,,,,,8827,Moral,2024-07-09_10h25.09.902,MoralCondition_v2,2022.2.5,30.00320737078306,
17,0,17,0,4,0,4,0,,,,,,,,,,,,,,,,,,,,,,,,,,,,,,,,,,,,,,,,,,,,,,,,,,,,,1002.7374275010079,1002.7374275010079,0.0065960995852947235,0.09940790012478828,4.0,2.4936280008405447,,,,,,,,,,,,,,8827,Moral,2024-07-09_10h25.09.902,MoralCondition_v2,2022.2.5,30.00320737078306,
17,0,17,0,5,0,5,0,,,,,,,,,,,,,,,,,,,,,,,,,,,,,,,,,,,,,,,,,,,,,,,,,,,,,1005.2708244007081,1005.2708244007081,0.006782099604606628,0.09946189820766449,2.0,2.193877199664712,,,,,,,,,,,,,,8827,Moral,2024-07-09_10h25.09.902,MoralCondition_v2,2022.2.5,30.00320737078306,
17,0,17,0,6,0,6,0,,,,,,,,,,,,,,,,,,,,,,,,,,,,,,,,,,,,,,,,,,,,,,,,,,,,,1007.5044031012803,1007.5044031012803,0.00719510018825531,0.09801530092954636,5.0,2.2919020000845194,,,,,,,,,,,,,,8827,Moral,2024-07-09_10h25.09.902,MoralCondition_v2,2022.2.5,30.00320737078306,
17,0,17,0,,,,,,,,,,,,,,,,,,,,,,,,,,,,,,,,,,,,,,,,,,,,,,,,,,,,,,,,,,,,,,,1009.8375629000366,1009.8375629000366,0.0007151998579502106,0.09921189956367016,7.0,1.3341697007417679,,,,,,,,8827,Moral,2024-07-09_10h25.09.902,MoralCondition_v2,2022.2.5,30.00320737078306,
18,0,18,0,0,0,0,0,,,,,,,,,,,,,,,,,,,,,,1011.2044160012156,0.0002410002052783966,0.09783790074288845,1017.2209967002273,6.01447500102222,1017.3875147011131,1017.3875147011131,0.07280549965798855,0.18131159991025925,6.014470500871539,1023.4708555005491,1023.4708555005491,1023.4708555005491,0.06538080051541328,0.16471940092742443,1029.171027900651,1029.4041651003063,6.0311948005110025,6.131106000393629,1035.404022499919,12.030999600887299,1035.5039650015533,1035.5039650015533,0.01423800177872181,0.09771290048956871,up,1.1529435999691486,1036.7206813003868,4.979968070983887e-05,0.11446619965136051,1042.737376600504,1042.737376600504,1042.737376600504,0.010420801118016243,0.11433090083301067,2.0,1.57146630063653,,,,,,,1023.3872703015804,1023.3872703015804,1035.4539504013956,1035.4539504013956,,,,8827,Moral,2024-07-09_10h25.09.902,MoralCondition_v2,2022.2.5,30.00320737078306,
18,0,18,0,1,0,1,0,,,,,,,,,,,,,,,,,,,,,,,,,,,,,,,,,,,,,,,,,,,,,,,,,,,,,1044.3542450014502,1044.3542450014502,0.008502000942826271,0.1145964004099369,4.0,2.4075803011655807,,,,,,,,,,,,,,8827,Moral,2024-07-09_10h25.09.902,MoralCondition_v2,2022.2.5,30.00320737078306,
18,0,18,0,2,0,2,0,,,,,,,,,,,,,,,,,,,,,,,,,,,,,,,,,,,,,,,,,,,,,,,,,,,,,1046.7871944010258,1046.7871944010258,0.005375400185585022,0.09948759898543358,6.0,2.761743400245905,,,,,,,,,,,,,,8827,Moral,2024-07-09_10h25.09.902,MoralCondition_v2,2022.2.5,30.00320737078306,
18,0,18,0,3,0,3,0,,,,,,,,,,,,,,,,,,,,,,,,,,,,,,,,,,,,,,,,,,,,,,,,,,,,,1049.5874727014452,1049.5874727014452,0.0066909994930028915,0.09903540089726448,6.0,2.3937452994287014,,,,,,,,,,,,,,8827,Moral,2024-07-09_10h25.09.902,MoralCondition_v2,2022.2.5,30.00320737078306,
18,0,18,0,4,0,4,0,,,,,,,,,,,,,,,,,,,,,,,,,,,,,,,,,,,,,,,,,,,,,,,,,,,,,1052.0205269008875,1052.0205269008875,0.008051000535488129,0.0980892013758421,5.0,3.1576885003596544,,,,,,,,,,,,,,8827,Moral,2024-07-09_10h25.09.902,MoralCondition_v2,2022.2.5,30.00320737078306,
18,0,18,0,5,0,5,0,,,,,,,,,,,,,,,,,,,,,,,,,,,,,,,,,,,,,,,,,,,,,,,,,,,,,1055.2208560016006,1055.2208560016006,0.00552469864487648,0.09942109882831573,2.0,2.128050399944186,,,,,,,,,,,,,,8827,Moral,2024-07-09_10h25.09.902,MoralCondition_v2,2022.2.5,30.00320737078306,
18,0,18,0,6,0,6,0,,,,,,,,,,,,,,,,,,,,,,,,,,,,,,,,,,,,,,,,,,,,,,,,,,,,,1057.4042779002339,1057.4042779002339,0.01212490163743496,0.11424130015075207,2.0,0.7365367989987135,,,,,,,,,,,,,,8827,Moral,2024-07-09_10h25.09.902,MoralCondition_v2,2022.2.5,30.00320737078306,
18,0,18,0,,,,,,,,,,,,,,,,,,,,,,,,,,,,,,,,,,,,,,,,,,,,,,,,,,,,,,,,,,,,,,,1058.1708935014904,1058.1708935014904,0.0013464000076055527,0.09784409962594509,7.0,1.6977251004427671,,,,,,,,8827,Moral,2024-07-09_10h25.09.902,MoralCondition_v2,2022.2.5,30.00320737078306,
19,0,19,0,0,0,0,0,,,,,,,,,,,,,,,,,,,,,,1059.9042712002993,0.00013510137796401978,0.09886260144412518,1065.9207927007228,6.015607999637723,1066.0874553006142,1066.0874553006142,0.07023410126566887,0.1823308002203703,6.015776801854372,1072.1704435013235,1072.1704435013235,1072.1704435013235,0.06655490212142467,0.165556401014328,1077.8706813007593,1078.1039182003587,6.0322473011910915,6.132143100723624,1084.1039321012795,12.032260501757264,1084.2371732015163,1084.2371732015163,0.032384201884269714,0.14913000166416168,up,2.355359498411417,1086.6539171002805,3.139860928058624e-05,0.09871429949998856,1092.653798300773,1092.653798300773,1092.653798300773,0.007078899070620537,0.09888779930770397,5.0,1.8259228989481926,,,,,,,1072.0873306002468,1072.0873306002468,1084.1705325003713,1084.1705325003713,,,,8827,Moral,2024-07-09_10h25.09.902,MoralCondition_v2,2022.2.5,30.00320737078306,
19,0,19,0,1,0,1,0,,,,,,,,,,,,,,,,,,,,,,,,,,,,,,,,,,,,,,,,,,,,,,,,,,,,,1094.537563700229,1094.537563700229,0.00871570035815239,0.11428149975836277,2.0,1.5064990986138582,,,,,,,,,,,,,,8827,Moral,2024-07-09_10h25.09.902,MoralCondition_v2,2022.2.5,30.00320737078306,
19,0,19,0,2,0,2,0,,,,,,,,,,,,,,,,,,,,,,,,,,,,,,,,,,,,,,,,,,,,,,,,,,,,,1096.0874999016523,1096.0874999016523,0.008564500138163567,0.11407649889588356,5.0,3.906581200659275,,,,,,,,,,,,,,8827,Moral,2024-07-09_10h25.09.902,MoralCondition_v2,2022.2.5,30.00320737078306,
19,0,19,0,3,0,3,0,,,,,,,,,,,,,,,,,,,,,,,,,,,,,,,,,,,,,,,,,,,,,,,,,,,,,1100.0206032004207,1100.0206032004207,0.007836699485778809,0.0978057999163866,4.0,1.6575256995856762,,,,,,,,,,,,,,8827,Moral,2024-07-09_10h25.09.902,MoralCondition_v2,2022.2.5,30.00320737078306,
19,0,19,0,4,0,4,0,,,,,,,,,,,,,,,,,,,,,,,,,,,,,,,,,,,,,,,,,,,,,,,,,,,,,1101.7203385010362,1101.7203385010362,0.0071649011224508286,0.09821680001914501,2.0,3.358636099845171,,,,,,,,,,,,,,8827,Moral,2024-07-09_10h25.09.902,MoralCondition_v2,2022.2.5,30.00320737078306,
19,0,19,0,5,0,5,0,,,,,,,,,,,,,,,,,,,,,,,,,,,,,,,,,,,,,,,,,,,,,,,,,,,,,1105.1373255010694,1105.1373255010694,0.008322000503540039,0.11460390128195286,1.0,1.9072591997683048,,,,,,,,,,,,,,8827,Moral,2024-07-09_10h25.09.902,MoralCondition_v2,2022.2.5,30.00320737078306,
19,0,19,0,6,0,6,0,,,,,,,,,,,,,,,,,,,,,,,,,,,,,,,,,,,,,,,,,,,,,,,,,,,,,1107.0869583003223,1107.0869583003223,0.008109599351882935,0.11461950093507767,6.0,3.1409596987068653,,,,,,,,,,,,,,8827,Moral,2024-07-09_10h25.09.902,MoralCondition_v2,2022.2.5,30.00320737078306,
19,0,19,0,,,,,,,,,,,,,,,,,,,,,,,,,,,,,,,,,,,,,,,,,,,,,,,,,,,,,,,,,,,,,,,1110.253942400217,1110.253942400217,0.0006676986813545227,0.0993782989680767,7.0,1.9666160997003317,,,,,,,,8827,Moral,2024-07-09_10h25.09.902,MoralCondition_v2,2022.2.5,30.00320737078306,
