loop.thisRepN,loop.thisTrialN,loop.thisN,loop.thisIndex,evaluate_all_emotions.thisRepN,evaluate_all_emotions.thisTrialN,evaluate_all_emotions.thisN,evaluate_all_emotions.thisIndex,sync_beep_1.started,p_port.started,p_port.stopped,sync_beep_1.stopped,sync_beep_2.started,sync_beep_2.stopped,sync_beep_3.started,sync_beep_3.stopped,sync_beep_4.started,baseline.started,p_port_2.started,p_port_2.stopped,baseline.stopped,p_port_3.started,Game_Start_Text.started,p_port_4.started,p_port_4.stopped,key_resp.started,key_resp.keys,key_resp.rt,fixation_cross.started,p_port_5.started,p_port_5.stopped,fixation_cross.stopped,p_port_6.started,player_image_intro.started,player_name_intro.started,p_port_7.started,p_port_7.stopped,p_port_8.started,player_image_offer.started,player_name_offer.started,proposed_split.started,p_port_9.started,p_port_9.stopped,proposed_split.stopped,accept_reject.started,p_port_15.started,p_port_15.stopped,accept_reject.stopped,p_port_10.started,arrow_instructions.started,offer_choice.started,p_port_11.started,p_port_11.stopped,offer_choice.keys,offer_choice.rt,Instructions_Affinity_Score.started,p_port_12.started,p_port_12.stopped,Instructions_Affinity_Score.stopped,Emotion_Image.started,AffinityScore.started,p_port_13.started,p_port_13.stopped,AffinityScore.response,AffinityScore.rt,Instruction.started,Moral_Disgust_Score.started,p_port_14.started,p_port_14.stopped,Moral_Disgust_Score.response,Moral_Disgust_Score.rt,p_port_6.stopped,player_image_intro.stopped,player_name_intro.stopped,p_port_8.stopped,player_image_offer.stopped,player_name_offer.stopped,p_port_10.stopped,participant,session,date,expName,psychopyVersion,frameRate,
,,,,,,,,18.41530992463231,0.0008447989821434021,0.10352119989693165,18.717044798657298,19.033752668648958,19.350500298663974,19.617140170186758,19.91714959964156,20.217143669724464,20.550293998792768,0.006197400391101837,0.10387410037219524,35.550444699823856,15.00372519902885,35.65048489905894,0.003771800547838211,0.10365420021116734,36.117157800123096,space,1.387033300474286,,,,,,,,,,,,,,,,,,,,,,,,,,,,,,,,,,,,,,,,,,,,,,,,,,,9206,Moral,2024-07-03_14h08.00.012,MoralCondition_v2,2022.2.5,29.99430719776782,
0,0,0,0,0,0,0,0,,,,,,,,,,,,,,,,,,,,,37.55045400001109,0.0014526993036270142,0.09838869981467724,43.56708540022373,6.015065899118781,43.76696129888296,43.76696129888296,0.08428329974412918,0.21513030119240284,6.015074901282787,49.867277700454,49.867277700454,49.867277700454,0.07875240035355091,0.2151757013052702,55.567108700051904,55.73380599915981,6.015092801302671,6.114892300218344,61.733746299520135,12.015026001259685,61.86713559925556,61.86713559925556,0.015221601352095604,0.11502260155975819,up,3.4606125000864267,65.36710510030389,4.6798959374427795e-05,0.09762899950146675,71.38377830013633,71.38377830013633,71.38377830013633,0.008463598787784576,0.11450459994375706,1.0,14.590260399505496,,,,,,,,,,,,,,9206,Moral,2024-07-03_14h08.00.012,MoralCondition_v2,2022.2.5,29.99430719776782,
0,0,0,0,1,0,1,0,,,,,,,,,,,,,,,,,,,,,,,,,,,,,,,,,,,,,,,,,,,,,,,,,,,,86.00047140009701,86.00047140009701,0.007478600367903709,0.09780989959836006,3.0,21.958134500309825,,,,,,,,,,,,,,9206,Moral,2024-07-03_14h08.00.012,MoralCondition_v2,2022.2.5,29.99430719776782,
0,0,0,0,2,0,2,0,,,,,,,,,,,,,,,,,,,,,,,,,,,,,,,,,,,,,,,,,,,,,,,,,,,,108.0004120003432,108.0004120003432,0.007083099335432053,0.09922009892761707,1.0,5.726350700482726,,,,,,,,,,,,,,9206,Moral,2024-07-03_14h08.00.012,MoralCondition_v2,2022.2.5,29.99430719776782,
0,0,0,0,3,0,3,0,,,,,,,,,,,,,,,,,,,,,,,,,,,,,,,,,,,,,,,,,,,,,,,,,,,,113.76697219908237,113.76697219908237,0.008233500644564629,0.09829500131309032,4.0,9.257094798609614,,,,,,,,,,,,,,9206,Moral,2024-07-03_14h08.00.012,MoralCondition_v2,2022.2.5,29.99430719776782,
0,0,0,0,4,0,4,0,,,,,,,,,,,,,,,,,,,,,,,,,,,,,,,,,,,,,,,,,,,,,,,,,,,,123.06695099920034,123.06695099920034,0.007609399035573006,0.0981162991374731,5.0,26.524684699252248,,,,,,,,,,,,,,9206,Moral,2024-07-03_14h08.00.012,MoralCondition_v2,2022.2.5,29.99430719776782,
0,0,0,0,5,0,5,0,,,,,,,,,,,,,,,,,,,,,,,,,,,,,,,,,,,,,,,,,,,,,,,,,,,,149.6335287000984,149.6335287000984,0.007416499778628349,0.09784699976444244,1.0,4.858307098969817,,,,,,,,,,,,,,9206,Moral,2024-07-03_14h08.00.012,MoralCondition_v2,2022.2.5,29.99430719776782,
0,0,0,0,6,0,6,0,,,,,,,,,,,,,,,,,,,,,,,,,,,,,,,,,,,,,,,,,,,,,,,,,,,,154.55054379999638,154.55054379999638,0.008082099258899689,0.1141101997345686,5.0,14.773747401311994,,,,,,,,,,,,,,9206,Moral,2024-07-03_14h08.00.012,MoralCondition_v2,2022.2.5,29.99430719776782,
0,0,0,0,,,,,,,,,,,,,,,,,,,,,,,,,,,,,,,,,,,,,,,,,,,,,,,,,,,,,,,,,,,,,,169.35045919939876,169.35045919939876,0.0007128007709980011,0.09903430007398129,6.0,24.099588500335813,,,,,,,,9206,Moral,2024-07-03_14h08.00.012,MoralCondition_v2,2022.2.5,29.99430719776782,
1,0,1,0,0,0,0,0,,,,,,,,,,,,,,,,,,,,,193.48384200036526,0.00013639964163303375,0.09941659867763519,199.48349219933152,5.999277599155903,199.65015359967947,199.65015359967947,0.06095249950885773,0.16585099883377552,5.999293299391866,205.75043769925833,205.75043769925833,205.75043769925833,0.0614583995193243,0.16571030020713806,211.4502392988652,211.68377609923482,5.9994977992028,6.09934419952333,217.6835340000689,11.999243600293994,217.7837355993688,217.7837355993688,0.00012969970703125,0.09912200085818768,up,15.104528499767184,232.9503629989922,5.139969289302826e-05,0.09764550067484379,,238.98374669998884,238.98374669998884,0.027025500312447548,0.13075260072946548,5.0,8.804974699392915,,,,,,,6.099132100120187,205.65047490037978,205.65047490037978,6.099406000226736,217.75037239864469,217.75037239864469,12.099333500489593,9206,Moral,2024-07-03_14h08.00.012,MoralCondition_v2,2022.2.5,29.99430719776782,
1,0,1,0,1,0,1,0,,,,,,,,,,,,,,,,,,,,,,,,,,,,,,,,,,,,,,,,,,,,,,,,,,,,247.8168630991131,247.8168630991131,0.007705599069595337,0.09845799952745438,3.0,2.69156870059669,,,,,,,,,,,,,,9206,Moral,2024-07-03_14h08.00.012,MoralCondition_v2,2022.2.5,29.99430719776782,
1,0,1,0,2,0,2,0,,,,,,,,,,,,,,,,,,,,,,,,,,,,,,,,,,,,,,,,,,,,,,,,,,,,250.55014999955893,250.55014999955893,0.007813900709152222,0.09776470065116882,2.0,3.3911494985222816,,,,,,,,,,,,,,9206,Moral,2024-07-03_14h08.00.012,MoralCondition_v2,2022.2.5,29.99430719776782,
1,0,1,0,3,0,3,0,,,,,,,,,,,,,,,,,,,,,,,,,,,,,,,,,,,,,,,,,,,,,,,,,,,,253.98347249999642,253.98347249999642,0.0074225012212991714,0.09917790070176125,5.0,4.926134100183845,,,,,,,,,,,,,,9206,Moral,2024-07-03_14h08.00.012,MoralCondition_v2,2022.2.5,29.99430719776782,
1,0,1,0,4,0,4,0,,,,,,,,,,,,,,,,,,,,,,,,,,,,,,,,,,,,,,,,,,,,,,,,,,,,258.950192598626,258.950192598626,0.006711099296808243,0.09931720048189163,3.0,6.227045699954033,,,,,,,,,,,,,,9206,Moral,2024-07-03_14h08.00.012,MoralCondition_v2,2022.2.5,29.99430719776782,
1,0,1,0,5,0,5,0,,,,,,,,,,,,,,,,,,,,,,,,,,,,,,,,,,,,,,,,,,,,,,,,,,,,265.2167865987867,265.2167865987867,0.006852300837635994,0.09919440001249313,5.0,10.16000059992075,,,,,,,,,,,,,,9206,Moral,2024-07-03_14h08.00.012,MoralCondition_v2,2022.2.5,29.99430719776782,
1,0,1,0,6,0,6,0,,,,,,,,,,,,,,,,,,,,,,,,,,,,,,,,,,,,,,,,,,,,,,,,,,,,275.4337917994708,275.4337917994708,0.008299199864268303,0.11396319977939129,2.0,6.70683559961617,,,,,,,,,,,,,,9206,Moral,2024-07-03_14h08.00.012,MoralCondition_v2,2022.2.5,29.99430719776782,
1,0,1,0,,,,,,,,,,,,,,,,,,,,,,,,,,,,,,,,,,,,,,,,,,,,,,,,,,,,,,,,,,,,,,282.16693279892206,282.16693279892206,0.0011812001466751099,0.09757000021636486,3.0,10.630906898528337,,,,,,,,9206,Moral,2024-07-03_14h08.00.012,MoralCondition_v2,2022.2.5,29.99430719776782,
2,0,2,0,0,0,0,0,,,,,,,,,,,,,,,,,,,,,292.8337085992098,0.0001683998852968216,0.0994924008846283,298.83338589966297,5.999377800151706,298.99993969872594,298.99993969872594,0.06077650003135204,0.16604069992899895,5.999389201402664,305.0999456997961,305.0999456997961,305.0999456997961,0.055290600284934044,0.16590560041368008,310.80003159865737,311.0002110004425,5.999483600258827,6.0993162002414465,316.9999970998615,11.999392200261354,317.1333127003163,317.1333127003163,0.00036200135946273804,0.09922470152378082,down,1.0744016002863646,318.2667314000428,5.020014941692352e-05,0.09744480066001415,324.2833275999874,324.2833275999874,324.2833275999874,0.008874699473381042,0.11427699960768223,5.0,5.006518600508571,,,,,,,6.0992828998714685,305.00018169917166,305.00018169917166,6.099479300901294,317.10016709938645,317.10016709938645,12.099466500803828,9206,Moral,2024-07-03_14h08.00.012,MoralCondition_v2,2022.2.5,29.99430719776782,
2,0,2,0,1,0,1,0,,,,,,,,,,,,,,,,,,,,,,,,,,,,,,,,,,,,,,,,,,,,,,,,,,,,329.3336209990084,329.3336209990084,0.007854299619793892,0.11436519958078861,2.0,3.073963599279523,,,,,,,,,,,,,,9206,Moral,2024-07-03_14h08.00.012,MoralCondition_v2,2022.2.5,29.99430719776782,
2,0,2,0,2,0,2,0,,,,,,,,,,,,,,,,,,,,,,,,,,,,,,,,,,,,,,,,,,,,,,,,,,,,332.4332251995802,332.4332251995802,0.008434198796749115,0.09947950020432472,4.0,32.22532430104911,,,,,,,,,,,,,,9206,Moral,2024-07-03_14h08.00.012,MoralCondition_v2,2022.2.5,29.99430719776782,
2,0,2,0,3,0,3,0,,,,,,,,,,,,,,,,,,,,,,,,,,,,,,,,,,,,,,,,,,,,,,,,,,,,364.699946898967,364.699946898967,0.006649499759078026,0.09903160110116005,5.0,13.92680379934609,,,,,,,,,,,,,,9206,Moral,2024-07-03_14h08.00.012,MoralCondition_v2,2022.2.5,29.99430719776782,
2,0,2,0,4,0,4,0,,,,,,,,,,,,,,,,,,,,,,,,,,,,,,,,,,,,,,,,,,,,,,,,,,,,378.66648809984326,378.66648809984326,0.0071213990449905396,0.09817949868738651,6.0,8.758844699710608,,,,,,,,,,,,,,9206,Moral,2024-07-03_14h08.00.012,MoralCondition_v2,2022.2.5,29.99430719776782,
2,0,2,0,5,0,5,0,,,,,,,,,,,,,,,,,,,,,,,,,,,,,,,,,,,,,,,,,,,,,,,,,,,,387.4665366988629,387.4665366988629,0.007593398913741112,0.0978998001664877,6.0,5.59126890078187,,,,,,,,,,,,,,9206,Moral,2024-07-03_14h08.00.012,MoralCondition_v2,2022.2.5,29.99430719776782,
2,0,2,0,6,0,6,0,,,,,,,,,,,,,,,,,,,,,,,,,,,,,,,,,,,,,,,,,,,,,,,,,,,,393.0997375994921,393.0997375994921,0.007230699062347412,0.09727749973535538,5.0,10.457886999472976,,,,,,,,,,,,,,9206,Moral,2024-07-03_14h08.00.012,MoralCondition_v2,2022.2.5,29.99430719776782,
2,0,2,0,,,,,,,,,,,,,,,,,,,,,,,,,,,,,,,,,,,,,,,,,,,,,,,,,,,,,,,,,,,,,,403.6000733990222,403.6000733990222,0.0011393986642360687,0.09873109869658947,2.0,11.597882999107242,,,,,,,,9206,Moral,2024-07-03_14h08.00.012,MoralCondition_v2,2022.2.5,29.99430719776782,
3,0,3,0,0,0,0,0,,,,,,,,,,,,,,,,,,,,,415.2331577986479,8.510053157806396e-05,0.09916390106081963,421.2330478988588,5.999396100640297,421.39967969991267,421.39967969991267,0.06496860086917877,0.16628970205783844,5.99935220181942,427.4997476004064,427.4997476004064,427.4997476004064,0.061242301017045975,0.16602180153131485,433.19968570023775,433.39966749958694,5.999454701319337,6.099312702193856,439.39967679977417,11.999382002279162,439.5161390993744,439.5161390993744,-0.0004938971251249313,0.08265630155801773,up,23.259617200121284,462.81622899882495,4.5999884605407715e-05,0.09763539955019951,468.81612529978156,468.81612529978156,468.81612529978156,0.004537399858236313,0.09764369949698448,5.0,3.0276505015790462,,,,,,,6.099360000342131,427.39969469979405,427.39969469979405,6.099410900846124,439.49955390021205,439.49955390021205,12.099177300930023,9206,Moral,2024-07-03_14h08.00.012,MoralCondition_v2,2022.2.5,29.99430719776782,
3,0,3,0,1,0,1,0,,,,,,,,,,,,,,,,,,,,,,,,,,,,,,,,,,,,,,,,,,,,,,,,,,,,471.8830861989409,471.8830861989409,0.007454300299286842,0.09756730124354362,3.0,5.05791449919343,,,,,,,,,,,,,,9206,Moral,2024-07-03_14h08.00.012,MoralCondition_v2,2022.2.5,29.99430719776782,
3,0,3,0,2,0,2,0,,,,,,,,,,,,,,,,,,,,,,,,,,,,,,,,,,,,,,,,,,,,,,,,,,,,476.9829513002187,476.9829513002187,0.007069200277328491,0.09956740029156208,3.0,3.693138198927045,,,,,,,,,,,,,,9206,Moral,2024-07-03_14h08.00.012,MoralCondition_v2,2022.2.5,29.99430719776782,
3,0,3,0,3,0,3,0,,,,,,,,,,,,,,,,,,,,,,,,,,,,,,,,,,,,,,,,,,,,,,,,,,,,480.71618079952896,480.71618079952896,0.006604800000786781,0.09898350015282631,6.0,9.193364901468158,,,,,,,,,,,,,,9206,Moral,2024-07-03_14h08.00.012,MoralCondition_v2,2022.2.5,29.99430719776782,
3,0,3,0,4,0,4,0,,,,,,,,,,,,,,,,,,,,,,,,,,,,,,,,,,,,,,,,,,,,,,,,,,,,489.9495726004243,489.9495726004243,0.007370600476861,0.09738029912114143,4.0,8.957730900496244,,,,,,,,,,,,,,9206,Moral,2024-07-03_14h08.00.012,MoralCondition_v2,2022.2.5,29.99430719776782,
3,0,3,0,5,0,5,0,,,,,,,,,,,,,,,,,,,,,,,,,,,,,,,,,,,,,,,,,,,,,,,,,,,,498.9495924990624,498.9495924990624,0.007160099223256111,0.09799630008637905,5.0,17.291903799399734,,,,,,,,,,,,,,9206,Moral,2024-07-03_14h08.00.012,MoralCondition_v2,2022.2.5,29.99430719776782,
3,0,3,0,6,0,6,0,,,,,,,,,,,,,,,,,,,,,,,,,,,,,,,,,,,,,,,,,,,,,,,,,,,,516.2826218996197,516.2826218996197,0.008655698969960213,0.09770769998431206,6.0,9.09007589891553,,,,,,,,,,,,,,9206,Moral,2024-07-03_14h08.00.012,MoralCondition_v2,2022.2.5,29.99430719776782,
3,0,3,0,,,,,,,,,,,,,,,,,,,,,,,,,,,,,,,,,,,,,,,,,,,,,,,,,,,,,,,,,,,,,,525.4161389004439,525.4161389004439,0.0016872994601726532,0.09656949900090694,3.0,5.363003300502896,,,,,,,,9206,Moral,2024-07-03_14h08.00.012,MoralCondition_v2,2022.2.5,29.99430719776782,
4,0,4,0,0,0,0,0,,,,,,,,,,,,,,,,,,,,,530.8163334000856,0.0001338999718427658,0.09933950006961823,536.8160036001354,5.999334400519729,536.9825388994068,536.9825388994068,0.061430301517248154,0.16589830070734024,5.9994260016828775,543.0829185992479,543.0829185992479,543.0829185992479,0.05182880163192749,0.16607200168073177,548.7825894989073,548.9826257992536,5.999248001724482,6.099356401711702,554.9825771003962,11.999215800315142,555.1161361988634,555.1161361988634,2.590194344520569e-05,0.09914150089025497,up,7.356502002105117,562.5158798992634,5.779974162578583e-05,0.09793969988822937,,568.5328164994717,568.5328164994717,0.02545960061252117,0.1147633995860815,5.0,9.856968600302935,,,,,,,6.099207000806928,542.9826926998794,542.9826926998794,6.099330801516771,555.0659010000527,555.0659010000527,12.099273001775146,9206,Moral,2024-07-03_14h08.00.012,MoralCondition_v2,2022.2.5,29.99430719776782,
4,0,4,0,1,0,1,0,,,,,,,,,,,,,,,,,,,,,,,,,,,,,,,,,,,,,,,,,,,,,,,,,,,,578.4323688987643,578.4323688987643,0.006498498842120171,0.09901659935712814,3.0,6.560302900150418,,,,,,,,,,,,,,9206,Moral,2024-07-03_14h08.00.012,MoralCondition_v2,2022.2.5,29.99430719776782,
4,0,4,0,2,0,2,0,,,,,,,,,,,,,,,,,,,,,,,,,,,,,,,,,,,,,,,,,,,,,,,,,,,,585.0322963986546,585.0322963986546,0.0066744014620780945,0.09910840168595314,6.0,5.493796199560165,,,,,,,,,,,,,,9206,Moral,2024-07-03_14h08.00.012,MoralCondition_v2,2022.2.5,29.99430719776782,
4,0,4,0,3,0,3,0,,,,,,,,,,,,,,,,,,,,,,,,,,,,,,,,,,,,,,,,,,,,,,,,,,,,590.5826302990317,590.5826302990317,0.00832660123705864,0.11345270089805126,5.0,3.5060916990041733,,,,,,,,,,,,,,9206,Moral,2024-07-03_14h08.00.012,MoralCondition_v2,2022.2.5,29.99430719776782,
4,0,4,0,4,0,4,0,,,,,,,,,,,,,,,,,,,,,,,,,,,,,,,,,,,,,,,,,,,,,,,,,,,,594.1159357987344,594.1159357987344,0.0069000013172626495,0.09821020066738129,2.0,2.9255550000816584,,,,,,,,,,,,,,9206,Moral,2024-07-03_14h08.00.012,MoralCondition_v2,2022.2.5,29.99430719776782,
4,0,4,0,5,0,5,0,,,,,,,,,,,,,,,,,,,,,,,,,,,,,,,,,,,,,,,,,,,,,,,,,,,,597.0825254991651,597.0825254991651,0.005569899454712868,0.09859280101954937,5.0,9.594411799684167,,,,,,,,,,,,,,9206,Moral,2024-07-03_14h08.00.012,MoralCondition_v2,2022.2.5,29.99430719776782,
4,0,4,0,6,0,6,0,,,,,,,,,,,,,,,,,,,,,,,,,,,,,,,,,,,,,,,,,,,,,,,,,,,,606.7159120999277,606.7159120999277,0.00710269995033741,0.0978280995041132,6.0,9.158748300746083,,,,,,,,,,,,,,9206,Moral,2024-07-03_14h08.00.012,MoralCondition_v2,2022.2.5,29.99430719776782,
4,0,4,0,,,,,,,,,,,,,,,,,,,,,,,,,,,,,,,,,,,,,,,,,,,,,,,,,,,,,,,,,,,,,,615.9159180000424,615.9159180000424,0.0015580002218484879,0.09757919982075691,2.0,13.230494199320674,,,,,,,,9206,Moral,2024-07-03_14h08.00.012,MoralCondition_v2,2022.2.5,29.99430719776782,
5,0,5,0,0,0,0,0,,,,,,,,,,,,,,,,,,,,,629.1823607999831,0.00012829899787902832,0.09893889911472797,635.1989390999079,6.015695499256253,635.3655079994351,635.3655079994351,0.07491309940814972,0.1826352011412382,6.015874199569225,641.4659394994378,641.4659394994378,641.4659394994378,0.0699618998914957,0.18250440061092377,647.1656433995813,647.3655500002205,6.015676200389862,6.115753000602126,653.3657210990787,12.015845000743866,653.4991974998266,653.4991974998266,0.015639500692486763,0.11561310105025768,down,1.1337072998285294,654.6988757997751,4.8801302909851074e-05,0.09802640043199062,660.6988214999437,660.6988214999437,660.6988214999437,0.008857501670718193,0.09808350168168545,6.0,8.490107499063015,,,,,,,,641.3656382989138,641.3656382989138,,653.4487747997046,653.4487747997046,,9206,Moral,2024-07-03_14h08.00.012,MoralCondition_v2,2022.2.5,29.99430719776782,
5,0,5,0,1,0,1,0,,,,,,,,,,,,,,,,,,,,,,,,,,,,,,,,,,,,,,,,,,,,,,,,,,,,669.2322958000004,669.2322958000004,0.006013298407196999,0.09839729964733124,5.0,8.260114900767803,,,,,,,,,,,,,,9206,Moral,2024-07-03_14h08.00.012,MoralCondition_v2,2022.2.5,29.99430719776782,
5,0,5,0,2,0,2,0,,,,,,,,,,,,,,,,,,,,,,,,,,,,,,,,,,,,,,,,,,,,,,,,,,,,677.5489610992372,677.5489610992372,0.008163100108504295,0.11412449926137924,6.0,2.5402027014642954,,,,,,,,,,,,,,9206,Moral,2024-07-03_14h08.00.012,MoralCondition_v2,2022.2.5,29.99430719776782,
5,0,5,0,3,0,3,0,,,,,,,,,,,,,,,,,,,,,,,,,,,,,,,,,,,,,,,,,,,,,,,,,,,,680.1153269987553,680.1153269987553,0.0073517002165317535,0.09774790145456791,6.0,1.3246396016329527,,,,,,,,,,,,,,9206,Moral,2024-07-03_14h08.00.012,MoralCondition_v2,2022.2.5,29.99430719776782,
5,0,5,0,4,0,4,0,,,,,,,,,,,,,,,,,,,,,,,,,,,,,,,,,,,,,,,,,,,,,,,,,,,,681.4822923000902,681.4822923000902,0.007397100329399109,0.09904059953987598,2.0,2.4594188015908003,,,,,,,,,,,,,,9206,Moral,2024-07-03_14h08.00.012,MoralCondition_v2,2022.2.5,29.99430719776782,
5,0,5,0,5,0,5,0,,,,,,,,,,,,,,,,,,,,,,,,,,,,,,,,,,,,,,,,,,,,,,,,,,,,683.9820919986814,683.9820919986814,0.006766000762581825,0.09757770039141178,6.0,9.02539479918778,,,,,,,,,,,,,,9206,Moral,2024-07-03_14h08.00.012,MoralCondition_v2,2022.2.5,29.99430719776782,
5,0,5,0,6,0,6,0,,,,,,,,,,,,,,,,,,,,,,,,,,,,,,,,,,,,,,,,,,,,,,,,,,,,693.048796299845,693.048796299845,0.007204599678516388,0.0984944999217987,5.0,4.291999800130725,,,,,,,,,,,,,,9206,Moral,2024-07-03_14h08.00.012,MoralCondition_v2,2022.2.5,29.99430719776782,
5,0,5,0,,,,,,,,,,,,,,,,,,,,,,,,,,,,,,,,,,,,,,,,,,,,,,,,,,,,,,,,,,,,,,697.3820436988026,697.3820436988026,0.0007147006690502167,0.09920450113713741,1.0,8.699521301314235,,,,,,,,9206,Moral,2024-07-03_14h08.00.012,MoralCondition_v2,2022.2.5,29.99430719776782,
6,0,6,0,0,0,0,0,,,,,,,,,,,,,,,,,,,,,706.1153452992439,0.0003887992352247238,0.09663959965109825,712.1319152992219,6.0133793000131845,712.2985044997185,712.2985044997185,0.07175970077514648,0.1799359004944563,6.0133707001805305,718.3984648995101,718.3984648995101,718.3984648995101,0.07234880141913891,0.18002850003540516,724.0985904987901,724.29857079871,6.01323390007019,6.113211400806904,730.29858019948,12.013259900733829,730.4319104999304,730.4319104999304,0.013379301875829697,0.11314580217003822,up,0.944556899368763,731.431974099949,4.579871892929077e-05,0.09787539951503277,737.4317913986742,737.4317913986742,737.4317913986742,0.009207898750901222,0.09793949872255325,1.0,4.089753599837422,,,,,,,,718.2985838986933,718.2985838986933,,730.3985566999763,730.3985566999763,,9206,Moral,2024-07-03_14h08.00.012,MoralCondition_v2,2022.2.5,29.99430719776782,
6,0,6,0,1,0,1,0,,,,,,,,,,,,,,,,,,,,,,,,,,,,,,,,,,,,,,,,,,,,,,,,,,,,741.565130200237,741.565130200237,0.006672699004411697,0.0990877989679575,2.0,7.826813900843263,,,,,,,,,,,,,,9206,Moral,2024-07-03_14h08.00.012,MoralCondition_v2,2022.2.5,29.99430719776782,
6,0,6,0,2,0,2,0,,,,,,,,,,,,,,,,,,,,,,,,,,,,,,,,,,,,,,,,,,,,,,,,,,,,749.4486653991044,749.4486653991044,0.007706800475716591,0.11440660059452057,1.0,2.6408166997134686,,,,,,,,,,,,,,9206,Moral,2024-07-03_14h08.00.012,MoralCondition_v2,2022.2.5,29.99430719776782,
6,0,6,0,3,0,3,0,,,,,,,,,,,,,,,,,,,,,,,,,,,,,,,,,,,,,,,,,,,,,,,,,,,,752.1150283999741,752.1150283999741,0.006800800561904907,0.09805480018258095,1.0,3.9923952016979456,,,,,,,,,,,,,,9206,Moral,2024-07-03_14h08.00.012,MoralCondition_v2,2022.2.5,29.99430719776782,
6,0,6,0,4,0,4,0,,,,,,,,,,,,,,,,,,,,,,,,,,,,,,,,,,,,,,,,,,,,,,,,,,,,756.1487111002207,756.1487111002207,0.006367899477481842,0.09905169904232025,4.0,8.293785801157355,,,,,,,,,,,,,,9206,Moral,2024-07-03_14h08.00.012,MoralCondition_v2,2022.2.5,29.99430719776782,
6,0,6,0,5,0,5,0,,,,,,,,,,,,,,,,,,,,,,,,,,,,,,,,,,,,,,,,,,,,,,,,,,,,764.4819109998643,764.4819109998643,0.008072100579738617,0.09754469990730286,6.0,10.9239568002522,,,,,,,,,,,,,,9206,Moral,2024-07-03_14h08.00.012,MoralCondition_v2,2022.2.5,29.99430719776782,
6,0,6,0,6,0,6,0,,,,,,,,,,,,,,,,,,,,,,,,,,,,,,,,,,,,,,,,,,,,,,,,,,,,775.4482840001583,775.4482840001583,0.007447199895977974,0.09805330075323582,1.0,2.658151200041175,,,,,,,,,,,,,,9206,Moral,2024-07-03_14h08.00.012,MoralCondition_v2,2022.2.5,29.99430719776782,
6,0,6,0,,,,,,,,,,,,,,,,,,,,,,,,,,,,,,,,,,,,,,,,,,,,,,,,,,,,,,,,,,,,,,778.1485978998244,778.1485978998244,0.0022313985973596573,0.09748549945652485,6.0,4.263088101521134,,,,,,,,9206,Moral,2024-07-03_14h08.00.012,MoralCondition_v2,2022.2.5,29.99430719776782,
7,0,7,0,0,0,0,0,,,,,,,,,,,,,,,,,,,,,782.4487217999995,0.0003911014646291733,0.097146300598979,788.4649749994278,6.013797899708152,788.631535500288,788.631535500288,0.0693811010569334,0.18048890121281147,6.0137693006545305,794.7316663004458,794.7316663004458,794.7316663004458,0.0658034011721611,0.1807049009948969,800.4315967001021,800.6316122990102,6.013855600729585,6.113576101139188,806.6318161003292,12.014021402224898,806.7480682991445,806.7480682991445,0.01379140093922615,0.09704650193452835,up,1.9718675017356873,808.7815738990903,6.639957427978516e-05,0.09809770062565804,814.7814514990896,814.7814514990896,814.7814514990896,0.00801439955830574,0.09820709936320782,6.0,2.924515299499035,,,,,,,,794.6316461991519,794.6316461991519,,806.7315156999975,806.7315156999975,,9206,Moral,2024-07-03_14h08.00.012,MoralCondition_v2,2022.2.5,29.99430719776782,
7,0,7,0,1,0,1,0,,,,,,,,,,,,,,,,,,,,,,,,,,,,,,,,,,,,,,,,,,,,,,,,,,,,817.7481145001948,817.7481145001948,0.007464399561285973,0.09779009968042374,1.0,4.691303100436926,,,,,,,,,,,,,,9206,Moral,2024-07-03_14h08.00.012,MoralCondition_v2,2022.2.5,29.99430719776782,
7,0,7,0,2,0,2,0,,,,,,,,,,,,,,,,,,,,,,,,,,,,,,,,,,,,,,,,,,,,,,,,,,,,822.481513299048,822.481513299048,0.007621999830007553,0.09761419892311096,1.0,1.957752799615264,,,,,,,,,,,,,,9206,Moral,2024-07-03_14h08.00.012,MoralCondition_v2,2022.2.5,29.99430719776782,
7,0,7,0,3,0,3,0,,,,,,,,,,,,,,,,,,,,,,,,,,,,,,,,,,,,,,,,,,,,,,,,,,,,824.4814701993018,824.4814701993018,0.006272200495004654,0.09923830069601536,2.0,5.027219099923968,,,,,,,,,,,,,,9206,Moral,2024-07-03_14h08.00.012,MoralCondition_v2,2022.2.5,29.99430719776782,
7,0,7,0,4,0,4,0,,,,,,,,,,,,,,,,,,,,,,,,,,,,,,,,,,,,,,,,,,,,,,,,,,,,829.5483848992735,829.5483848992735,0.006414199247956276,0.09906649962067604,2.0,3.0936785005033016,,,,,,,,,,,,,,9206,Moral,2024-07-03_14h08.00.012,MoralCondition_v2,2022.2.5,29.99430719776782,
7,0,7,0,5,0,5,0,,,,,,,,,,,,,,,,,,,,,,,,,,,,,,,,,,,,,,,,,,,,,,,,,,,,832.6813990995288,832.6813990995288,0.006759600713849068,0.09922710061073303,4.0,4.093529000878334,,,,,,,,,,,,,,9206,Moral,2024-07-03_14h08.00.012,MoralCondition_v2,2022.2.5,29.99430719776782,
7,0,7,0,6,0,6,0,,,,,,,,,,,,,,,,,,,,,,,,,,,,,,,,,,,,,,,,,,,,,,,,,,,,836.8149120993912,836.8149120993912,0.007512198761105537,0.09794429875910282,1.0,2.557958599179983,,,,,,,,,,,,,,9206,Moral,2024-07-03_14h08.00.012,MoralCondition_v2,2022.2.5,29.99430719776782,
7,0,7,0,,,,,,,,,,,,,,,,,,,,,,,,,,,,,,,,,,,,,,,,,,,,,,,,,,,,,,,,,,,,,,839.4150400999933,839.4150400999933,0.0013551004230976105,0.09771069884300232,6.0,2.464096600189805,,,,,,,,9206,Moral,2024-07-03_14h08.00.012,MoralCondition_v2,2022.2.5,29.99430719776782,
8,0,8,0,0,0,0,0,,,,,,,,,,,,,,,,,,,,,841.9151459001005,0.0002730991691350937,0.09802900068461895,847.9147490002215,6.031382100656629,848.1148896999657,848.1148896999657,0.08804750069975853,0.19831150025129318,6.031338499858975,854.2147471997887,854.2147471997887,854.2147471997887,0.08696730062365532,0.1979841012507677,859.9146796986461,860.1147068999708,6.031347401440144,6.1312960013747215,866.1146859992296,12.031324200332165,866.247974799946,866.247974799946,0.031471000984311104,0.13124130107462406,down,17.912434101104736,884.214784398675,2.4300068616867065e-05,0.0988634005188942,,890.2481166999787,890.2481166999787,0.027370600029826164,0.13200509920716286,6.0,4.905873600393534,,,,,,,,854.1147446986288,854.1147446986288,,866.2147588003427,866.2147588003427,,9206,Moral,2024-07-03_14h08.00.012,MoralCondition_v2,2022.2.5,29.99430719776782,
8,0,8,0,1,0,1,0,,,,,,,,,,,,,,,,,,,,,,,,,,,,,,,,,,,,,,,,,,,,,,,,,,,,895.1813245993108,895.1813245993108,0.00724249891936779,0.09780569933354855,6.0,4.791504001244903,,,,,,,,,,,,,,9206,Moral,2024-07-03_14h08.00.012,MoralCondition_v2,2022.2.5,29.99430719776782,
8,0,8,0,2,0,2,0,,,,,,,,,,,,,,,,,,,,,,,,,,,,,,,,,,,,,,,,,,,,,,,,,,,,900.0147264990956,900.0147264990956,0.007309999316930771,0.09761709906160831,5.0,4.024707298725843,,,,,,,,,,,,,,9206,Moral,2024-07-03_14h08.00.012,MoralCondition_v2,2022.2.5,29.99430719776782,
8,0,8,0,3,0,3,0,,,,,,,,,,,,,,,,,,,,,,,,,,,,,,,,,,,,,,,,,,,,,,,,,,,,904.0811742004007,904.0811742004007,0.00666399858891964,0.09908569976687431,7.0,6.227140599861741,,,,,,,,,,,,,,9206,Moral,2024-07-03_14h08.00.012,MoralCondition_v2,2022.2.5,29.99430719776782,
8,0,8,0,4,0,4,0,,,,,,,,,,,,,,,,,,,,,,,,,,,,,,,,,,,,,,,,,,,,,,,,,,,,910.3476727996022,910.3476727996022,0.006858799606561661,0.09771640039980412,1.0,2.558492299169302,,,,,,,,,,,,,,9206,Moral,2024-07-03_14h08.00.012,MoralCondition_v2,2022.2.5,29.99430719776782,
8,0,8,0,5,0,5,0,,,,,,,,,,,,,,,,,,,,,,,,,,,,,,,,,,,,,,,,,,,,,,,,,,,,912.9478743001819,912.9478743001819,0.006591299548745155,0.09905190020799637,5.0,9.793601799756289,,,,,,,,,,,,,,9206,Moral,2024-07-03_14h08.00.012,MoralCondition_v2,2022.2.5,29.99430719776782,
8,0,8,0,6,0,6,0,,,,,,,,,,,,,,,,,,,,,,,,,,,,,,,,,,,,,,,,,,,,,,,,,,,,922.7812631987035,922.7812631987035,0.006991401314735413,0.09891119971871376,5.0,7.493021000176668,,,,,,,,,,,,,,9206,Moral,2024-07-03_14h08.00.012,MoralCondition_v2,2022.2.5,29.99430719776782,
8,0,8,0,,,,,,,,,,,,,,,,,,,,,,,,,,,,,,,,,,,,,,,,,,,,,,,,,,,,,,,,,,,,,,930.3143015988171,930.3143015988171,0.001794399693608284,0.09726070053875446,3.0,6.96343719959259,,,,,,,,9206,Moral,2024-07-03_14h08.00.012,MoralCondition_v2,2022.2.5,29.99430719776782,
9,0,9,0,0,0,0,0,,,,,,,,,,,,,,,,,,,,,937.3146531004459,0.0003629010170698166,0.09769480116665363,943.2975375987589,6.0142271015793085,943.4811093993485,943.4811093993485,0.053352801129221916,0.16455360129475594,6.031047200784087,949.6147153992206,949.6147153992206,949.6147153992206,0.08531410060822964,0.19813630171120167,955.3142427001148,955.5143260993063,6.031067801639438,6.130960801616311,961.514257999137,12.030992601066828,961.6475980002433,961.6475980002433,0.031193502247333527,0.13093120232224464,down,0.6645571012049913,962.3476052992046,3.979913890361786e-05,0.0979360993951559,968.3481810986996,968.3481810986996,968.3481810986996,0.008610500022768974,0.09768659994006157,7.0,3.6236732006073,,,,,,,6.097708201035857,949.4810263998806,949.4810263998806,,961.6142835002393,961.6142835002393,,9206,Moral,2024-07-03_14h08.00.012,MoralCondition_v2,2022.2.5,29.99430719776782,
9,0,9,0,1,0,1,0,,,,,,,,,,,,,,,,,,,,,,,,,,,,,,,,,,,,,,,,,,,,,,,,,,,,972.0142132993788,972.0142132993788,0.006425701081752777,0.0992709007114172,6.0,2.860393701121211,,,,,,,,,,,,,,9206,Moral,2024-07-03_14h08.00.012,MoralCondition_v2,2022.2.5,29.99430719776782,
9,0,9,0,2,0,2,0,,,,,,,,,,,,,,,,,,,,,,,,,,,,,,,,,,,,,,,,,,,,,,,,,,,,974.9142936989665,974.9142936989665,0.007993601262569427,0.09763170033693314,7.0,2.2905515003949404,,,,,,,,,,,,,,9206,Moral,2024-07-03_14h08.00.012,MoralCondition_v2,2022.2.5,29.99430719776782,
9,0,9,0,3,0,3,0,,,,,,,,,,,,,,,,,,,,,,,,,,,,,,,,,,,,,,,,,,,,,,,,,,,,977.2477438990027,977.2477438990027,0.006611499935388565,0.0984164010733366,6.0,1.8927487004548311,,,,,,,,,,,,,,9206,Moral,2024-07-03_14h08.00.012,MoralCondition_v2,2022.2.5,29.99430719776782,
9,0,9,0,4,0,4,0,,,,,,,,,,,,,,,,,,,,,,,,,,,,,,,,,,,,,,,,,,,,,,,,,,,,979.1976698990911,979.1976698990911,0.0070993006229400635,0.11393900029361248,5.0,5.67439560033381,,,,,,,,,,,,,,9206,Moral,2024-07-03_14h08.00.012,MoralCondition_v2,2022.2.5,29.99430719776782,
9,0,9,0,5,0,5,0,,,,,,,,,,,,,,,,,,,,,,,,,,,,,,,,,,,,,,,,,,,,,,,,,,,,984.897323500365,984.897323500365,0.007761301472783089,0.09773570112884045,1.0,9.890897801145911,,,,,,,,,,,,,,9206,Moral,2024-07-03_14h08.00.012,MoralCondition_v2,2022.2.5,29.99430719776782,
9,0,9,0,6,0,6,0,,,,,,,,,,,,,,,,,,,,,,,,,,,,,,,,,,,,,,,,,,,,,,,,,,,,994.8307392988354,994.8307392988354,0.0065232012420892715,0.09935829974710941,5.0,2.5603555999696255,,,,,,,,,,,,,,9206,Moral,2024-07-03_14h08.00.012,MoralCondition_v2,2022.2.5,29.99430719776782,
9,0,9,0,,,,,,,,,,,,,,,,,,,,,,,,,,,,,,,,,,,,,,,,,,,,,,,,,,,,,,,,,,,,,,997.4309700001031,997.4309700001031,0.0006914995610713959,0.0991297997534275,1.0,7.133122900500894,,,,,,,,9206,Moral,2024-07-03_14h08.00.012,MoralCondition_v2,2022.2.5,29.99430719776782,
10,0,10,0,0,0,0,0,,,,,,,,,,,,,,,,,,,,,1004.5976064000279,0.00036999955773353577,0.09760189987719059,1010.6144874989986,6.014796799048781,1010.7806930989027,1010.7806930989027,0.07120469957590103,0.18118389882147312,6.014139099046588,1016.8809146992862,1016.8809146992862,1016.8809146992862,0.06770670041441917,0.18140750005841255,1022.58073399961,1022.7806662004441,6.01419279910624,6.1141098998487,1028.7807160001248,12.014224499464035,1028.9140124004334,1028.9140124004334,0.014271799474954605,0.11406470090150833,down,8.726138601079583,1037.6806014999747,4.7400593757629395e-05,0.09774420037865639,,1043.6970811001956,1043.6970811001956,0.026087099686264992,0.11456179991364479,5.0,3.7224850989878178,,,,,,,,1016.7807045001537,1016.7807045001537,,1028.880646198988,1028.880646198988,,9206,Moral,2024-07-03_14h08.00.012,MoralCondition_v2,2022.2.5,29.99430719776782,
10,0,10,0,1,0,1,0,,,,,,,,,,,,,,,,,,,,,,,,,,,,,,,,,,,,,,,,,,,,,,,,,,,,1047.4639854989946,1047.4639854989946,0.007493600249290466,0.09772549942135811,6.0,4.157867601141334,,,,,,,,,,,,,,9206,Moral,2024-07-03_14h08.00.012,MoralCondition_v2,2022.2.5,29.99430719776782,
10,0,10,0,2,0,2,0,,,,,,,,,,,,,,,,,,,,,,,,,,,,,,,,,,,,,,,,,,,,,,,,,,,,1051.6808323990554,1051.6808323990554,0.01215059868991375,0.1147380992770195,7.0,2.3032880015671253,,,,,,,,,,,,,,9206,Moral,2024-07-03_14h08.00.012,MoralCondition_v2,2022.2.5,29.99430719776782,
10,0,10,0,3,0,3,0,,,,,,,,,,,,,,,,,,,,,,,,,,,,,,,,,,,,,,,,,,,,,,,,,,,,1054.0138025991619,1054.0138025991619,0.007432600483298302,0.09793739952147007,7.0,1.1915295999497175,,,,,,,,,,,,,,9206,Moral,2024-07-03_14h08.00.012,MoralCondition_v2,2022.2.5,29.99430719776782,
10,0,10,0,4,0,4,0,,,,,,,,,,,,,,,,,,,,,,,,,,,,,,,,,,,,,,,,,,,,,,,,,,,,1055.2472491003573,1055.2472491003573,0.005986299365758896,0.09907249920070171,5.0,1.460827399045229,,,,,,,,,,,,,,9206,Moral,2024-07-03_14h08.00.012,MoralCondition_v2,2022.2.5,29.99430719776782,
10,0,10,0,5,0,5,0,,,,,,,,,,,,,,,,,,,,,,,,,,,,,,,,,,,,,,,,,,,,,,,,,,,,1056.747098699212,1056.747098699212,0.006431998685002327,0.09944319911301136,6.0,2.3271027989685535,,,,,,,,,,,,,,9206,Moral,2024-07-03_14h08.00.012,MoralCondition_v2,2022.2.5,29.99430719776782,
10,0,10,0,6,0,6,0,,,,,,,,,,,,,,,,,,,,,,,,,,,,,,,,,,,,,,,,,,,,,,,,,,,,1059.1138942986727,1059.1138942986727,0.007930301129817963,0.09747930057346821,1.0,2.2574000991880894,,,,,,,,,,,,,,9206,Moral,2024-07-03_14h08.00.012,MoralCondition_v2,2022.2.5,29.99430719776782,
10,0,10,0,,,,,,,,,,,,,,,,,,,,,,,,,,,,,,,,,,,,,,,,,,,,,,,,,,,,,,,,,,,,,,1061.413726599887,1061.413726599887,0.0015726014971733093,0.09800370037555695,2.0,4.431088101118803,,,,,,,,9206,Moral,2024-07-03_14h08.00.012,MoralCondition_v2,2022.2.5,29.99430719776782,
11,0,11,0,0,0,0,0,,,,,,,,,,,,,,,,,,,,,1065.880455499515,0.0006287992000579834,0.09756099991500378,1071.8804483003914,6.030693799257278,1072.080272499472,1072.080272499472,0.08961080014705658,0.19750949926674366,6.030832499265671,1078.1804520003498,1078.1804520003498,1078.1804520003498,0.0893751997500658,0.19724470004439354,1083.8804342988878,1084.0803957991302,6.030649300664663,6.1306082010269165,1090.0805270001292,12.03079660050571,1090.2137398999184,1090.2137398999184,0.030801599845290184,0.13055730052292347,up,0.8181529995054007,1091.0803679991513,4.04994934797287e-05,0.09799819998443127,1097.0804037991911,1097.0804037991911,1097.0804037991911,0.007303500548005104,0.0980261005461216,2.0,4.458306899294257,,,,,,,,1078.0804262999445,1078.0804262999445,,1090.1803930997849,1090.1803930997849,,9206,Moral,2024-07-03_14h08.00.012,MoralCondition_v2,2022.2.5,29.99430719776782,
11,0,11,0,1,0,1,0,,,,,,,,,,,,,,,,,,,,,,,,,,,,,,,,,,,,,,,,,,,,,,,,,,,,1101.597229398787,1101.597229398787,0.00782960094511509,0.11450480110943317,1.0,2.5743434987962246,,,,,,,,,,,,,,9206,Moral,2024-07-03_14h08.00.012,MoralCondition_v2,2022.2.5,29.99430719776782,
11,0,11,0,2,0,2,0,,,,,,,,,,,,,,,,,,,,,,,,,,,,,,,,,,,,,,,,,,,,,,,,,,,,1104.1969779003412,1104.1969779003412,0.007129199802875519,0.09811720065772533,2.0,1.7252155002206564,,,,,,,,,,,,,,9206,Moral,2024-07-03_14h08.00.012,MoralCondition_v2,2022.2.5,29.99430719776782,
11,0,11,0,3,0,3,0,,,,,,,,,,,,,,,,,,,,,,,,,,,,,,,,,,,,,,,,,,,,,,,,,,,,1105.9804843999445,1105.9804843999445,0.008146699517965317,0.1144810002297163,2.0,2.5072115007787943,,,,,,,,,,,,,,9206,Moral,2024-07-03_14h08.00.012,MoralCondition_v2,2022.2.5,29.99430719776782,
11,0,11,0,4,0,4,0,,,,,,,,,,,,,,,,,,,,,,,,,,,,,,,,,,,,,,,,,,,,,,,,,,,,1108.530438799411,1108.530438799411,0.008412299677729607,0.11455369926989079,7.0,4.507160000503063,,,,,,,,,,,,,,9206,Moral,2024-07-03_14h08.00.012,MoralCondition_v2,2022.2.5,29.99430719776782,
11,0,11,0,5,0,5,0,,,,,,,,,,,,,,,,,,,,,,,,,,,,,,,,,,,,,,,,,,,,,,,,,,,,1113.063728298992,1113.063728298992,0.006979700177907944,0.09920379891991615,1.0,2.0931754000484943,,,,,,,,,,,,,,9206,Moral,2024-07-03_14h08.00.012,MoralCondition_v2,2022.2.5,29.99430719776782,
11,0,11,0,6,0,6,0,,,,,,,,,,,,,,,,,,,,,,,,,,,,,,,,,,,,,,,,,,,,,,,,,,,,1115.1968692988157,1115.1968692988157,0.007439101114869118,0.09786710143089294,2.0,3.424506800249219,,,,,,,,,,,,,,9206,Moral,2024-07-03_14h08.00.012,MoralCondition_v2,2022.2.5,29.99430719776782,
11,0,11,0,,,,,,,,,,,,,,,,,,,,,,,,,,,,,,,,,,,,,,,,,,,,,,,,,,,,,,,,,,,,,,1118.663640499115,1118.663640499115,0.0015406012535095215,0.09727930091321468,7.0,2.9637969993054867,,,,,,,,9206,Moral,2024-07-03_14h08.00.012,MoralCondition_v2,2022.2.5,29.99430719776782,
12,0,12,0,0,0,0,0,,,,,,,,,,,,,,,,,,,,,1121.6637999992818,0.00013620033860206604,0.0991578008979559,1127.6802949998528,6.015843199566007,1127.8470008987933,1127.8470008987933,0.07925149984657764,0.18265660107135773,6.015768200159073,1133.9468419998884,1133.9468419998884,1133.9468419998884,0.07831050083041191,0.1826728004962206,1139.6468383986503,1139.8468942996114,6.015837701037526,6.115729201585054,1145.84685449861,12.0158322006464,1145.980089198798,1145.980089198798,0.016044601798057556,0.11576900072395802,down,1.235606200993061,1147.28024020046,4.40012663602829e-05,0.09788200072944164,1153.296910200268,1153.296910200268,1153.296910200268,0.008451201021671295,0.11453470028936863,7.0,7.507158700376749,,,,,,,,1133.8468864001334,1133.8468864001334,,1145.9468663986772,1145.9468663986772,,9206,Moral,2024-07-03_14h08.00.012,MoralCondition_v2,2022.2.5,29.99430719776782,
12,0,12,0,1,0,1,0,,,,,,,,,,,,,,,,,,,,,,,,,,,,,,,,,,,,,,,,,,,,,,,,,,,,1160.8299447000027,1160.8299447000027,0.005883701145648956,0.09892580099403858,6.0,4.294058199971914,,,,,,,,,,,,,,9206,Moral,2024-07-03_14h08.00.012,MoralCondition_v2,2022.2.5,29.99430719776782,
12,0,12,0,2,0,2,0,,,,,,,,,,,,,,,,,,,,,,,,,,,,,,,,,,,,,,,,,,,,,,,,,,,,1165.1803073994815,1165.1803073994815,0.00804700143635273,0.1145063005387783,1.0,2.907381499186158,,,,,,,,,,,,,,9206,Moral,2024-07-03_14h08.00.012,MoralCondition_v2,2022.2.5,29.99430719776782,
12,0,12,0,3,0,3,0,,,,,,,,,,,,,,,,,,,,,,,,,,,,,,,,,,,,,,,,,,,,,,,,,,,,1168.1303243003786,1168.1303243003786,0.007607201114296913,0.1140086017549038,5.0,3.3409452997148037,,,,,,,,,,,,,,9206,Moral,2024-07-03_14h08.00.012,MoralCondition_v2,2022.2.5,29.99430719776782,
12,0,12,0,4,0,4,0,,,,,,,,,,,,,,,,,,,,,,,,,,,,,,,,,,,,,,,,,,,,,,,,,,,,1171.49659819901,1171.49659819901,0.007085300981998444,0.09822660125792027,6.0,2.8587743006646633,,,,,,,,,,,,,,9206,Moral,2024-07-03_14h08.00.012,MoralCondition_v2,2022.2.5,29.99430719776782,
12,0,12,0,5,0,5,0,,,,,,,,,,,,,,,,,,,,,,,,,,,,,,,,,,,,,,,,,,,,,,,,,,,,1174.3966780994087,1174.3966780994087,0.006658399477601051,0.09916700050234795,5.0,2.6269141007214785,,,,,,,,,,,,,,9206,Moral,2024-07-03_14h08.00.012,MoralCondition_v2,2022.2.5,29.99430719776782,
12,0,12,0,6,0,6,0,,,,,,,,,,,,,,,,,,,,,,,,,,,,,,,,,,,,,,,,,,,,,,,,,,,,1177.080393999815,1177.080393999815,0.008404899388551712,0.1144510991871357,6.0,7.406884199008346,,,,,,,,,,,,,,9206,Moral,2024-07-03_14h08.00.012,MoralCondition_v2,2022.2.5,29.99430719776782,
12,0,12,0,,,,,,,,,,,,,,,,,,,,,,,,,,,,,,,,,,,,,,,,,,,,,,,,,,,,,,,,,,,,,,1184.5138405002654,1184.5138405002654,0.0010580997914075851,0.09876270033419132,1.0,6.398618299514055,,,,,,,,9206,Moral,2024-07-03_14h08.00.012,MoralCondition_v2,2022.2.5,29.99430719776782,
13,0,13,0,0,0,0,0,,,,,,,,,,,,,,,,,,,,,1190.9469935987145,0.00030559860169887543,0.09786400012671947,1196.946754898876,6.031268499791622,1197.1301025990397,1197.1301025990397,0.06774180009961128,0.18114789947867393,6.014587299898267,1203.229982400313,1203.229982400313,1203.229982400313,0.07007360085844994,0.18160230107605457,1208.9298852998763,1209.1298612989485,6.014459300786257,6.114434899762273,1215.130009399727,12.014601100236177,1215.2631641998887,1215.2631641998887,0.014630099758505821,0.11449600011110306,up,6.833183400332928,1222.1464523989707,4.640035331249237e-05,0.09773269854485989,1228.1633545998484,1228.1633545998484,1228.1633545998484,0.008498899638652802,0.11450939998030663,5.0,4.740312300622463,,,,,,,,1203.13002499938,1203.13002499938,,1215.2298705987632,1215.2298705987632,,9206,Moral,2024-07-03_14h08.00.012,MoralCondition_v2,2022.2.5,29.99430719776782,
13,0,13,0,1,0,1,0,,,,,,,,,,,,,,,,,,,,,,,,,,,,,,,,,,,,,,,,,,,,,,,,,,,,1232.929766599089,1232.929766599089,0.006575299426913261,0.09927890077233315,5.0,2.693910401314497,,,,,,,,,,,,,,9206,Moral,2024-07-03_14h08.00.012,MoralCondition_v2,2022.2.5,29.99430719776782,
13,0,13,0,2,0,2,0,,,,,,,,,,,,,,,,,,,,,,,,,,,,,,,,,,,,,,,,,,,,,,,,,,,,1235.6630485001951,1235.6630485001951,0.007450999692082405,0.09786289930343628,4.0,3.491255098953843,,,,,,,,,,,,,,9206,Moral,2024-07-03_14h08.00.012,MoralCondition_v2,2022.2.5,29.99430719776782,
13,0,13,0,3,0,3,0,,,,,,,,,,,,,,,,,,,,,,,,,,,,,,,,,,,,,,,,,,,,,,,,,,,,1239.2133591994643,1239.2133591994643,0.007539300248026848,0.1140489000827074,5.0,4.7408495005220175,,,,,,,,,,,,,,9206,Moral,2024-07-03_14h08.00.012,MoralCondition_v2,2022.2.5,29.99430719776782,
13,0,13,0,4,0,4,0,,,,,,,,,,,,,,,,,,,,,,,,,,,,,,,,,,,,,,,,,,,,,,,,,,,,1243.9796577002853,1243.9796577002853,0.0066231004893779755,0.09931080043315887,5.0,11.026901699602604,,,,,,,,,,,,,,9206,Moral,2024-07-03_14h08.00.012,MoralCondition_v2,2022.2.5,29.99430719776782,
13,0,13,0,5,0,5,0,,,,,,,,,,,,,,,,,,,,,,,,,,,,,,,,,,,,,,,,,,,,,,,,,,,,1255.0630828998983,1255.0630828998983,0.008014699444174767,0.11412419937551022,5.0,2.573597399517894,,,,,,,,,,,,,,9206,Moral,2024-07-03_14h08.00.012,MoralCondition_v2,2022.2.5,29.99430719776782,
13,0,13,0,6,0,6,0,,,,,,,,,,,,,,,,,,,,,,,,,,,,,,,,,,,,,,,,,,,,,,,,,,,,1257.6631300989538,1257.6631300989538,0.007939498871564865,0.0982246994972229,2.0,7.057748898863792,,,,,,,,,,,,,,9206,Moral,2024-07-03_14h08.00.012,MoralCondition_v2,2022.2.5,29.99430719776782,
13,0,13,0,,,,,,,,,,,,,,,,,,,,,,,,,,,,,,,,,,,,,,,,,,,,,,,,,,,,,,,,,,,,,,1264.7630800995976,1264.7630800995976,0.0007067006081342697,0.09887720085680485,5.0,6.8328588008880615,,,,,,,,9206,Moral,2024-07-03_14h08.00.012,MoralCondition_v2,2022.2.5,29.99430719776782,
14,0,14,0,0,0,0,0,,,,,,,,,,,,,,,,,,,,,1271.6299066990614,0.00018300116062164307,0.0990930013358593,1277.6127468999475,6.015481600537896,1277.7964145988226,1277.7964145988226,0.060015901923179626,0.16583960130810738,5.9992567002773285,1283.8961733002216,1283.8961733002216,1283.8961733002216,0.062211401760578156,0.16555930115282536,1289.5963485985994,1289.8295520991087,6.032370900735259,6.132223101332784,1295.8294916003942,12.032270701602101,1295.9628193993121,1295.9628193993121,0.032426901161670685,0.13229180127382278,down,2.133550299331546,1298.146125299856,4.4500455260276794e-05,0.09802870079874992,,1304.1626155991107,1304.1626155991107,0.027017099782824516,0.11478180065751076,1.0,3.988759199157357,,,,,,,6.098862400278449,1283.7962305992842,1283.7962305992842,6.099115300923586,1295.89611209929,1295.89611209929,,9206,Moral,2024-07-03_14h08.00.012,MoralCondition_v2,2022.2.5,29.99430719776782,
14,0,14,0,1,0,1,0,,,,,,,,,,,,,,,,,,,,,,,,,,,,,,,,,,,,,,,,,,,,,,,,,,,,1308.195998199284,1308.195998199284,0.0076293013989925385,0.09775650128722191,6.0,2.2245621997863054,,,,,,,,,,,,,,9206,Moral,2024-07-03_14h08.00.012,MoralCondition_v2,2022.2.5,29.99430719776782,
14,0,14,0,2,0,2,0,,,,,,,,,,,,,,,,,,,,,,,,,,,,,,,,,,,,,,,,,,,,,,,,,,,,1310.4627650994807,1310.4627650994807,0.00711979903280735,0.09932149946689606,4.0,11.093075200915337,,,,,,,,,,,,,,9206,Moral,2024-07-03_14h08.00.012,MoralCondition_v2,2022.2.5,29.99430719776782,
14,0,14,0,3,0,3,0,,,,,,,,,,,,,,,,,,,,,,,,,,,,,,,,,,,,,,,,,,,,,,,,,,,,1321.5959824994206,1321.5959824994206,0.006766399368643761,0.09851789847016335,5.0,3.526010699570179,,,,,,,,,,,,,,9206,Moral,2024-07-03_14h08.00.012,MoralCondition_v2,2022.2.5,29.99430719776782,
14,0,14,0,4,0,4,0,,,,,,,,,,,,,,,,,,,,,,,,,,,,,,,,,,,,,,,,,,,,,,,,,,,,1325.1626925002784,1325.1626925002784,0.007699400186538696,0.09923449903726578,5.0,2.3590137008577585,,,,,,,,,,,,,,9206,Moral,2024-07-03_14h08.00.012,MoralCondition_v2,2022.2.5,29.99430719776782,
14,0,14,0,5,0,5,0,,,,,,,,,,,,,,,,,,,,,,,,,,,,,,,,,,,,,,,,,,,,,,,,,,,,1327.5794821996242,1327.5794821996242,0.009931199252605438,0.11385910026729107,5.0,10.405028099194169,,,,,,,,,,,,,,9206,Moral,2024-07-03_14h08.00.012,MoralCondition_v2,2022.2.5,29.99430719776782,
14,0,14,0,6,0,6,0,,,,,,,,,,,,,,,,,,,,,,,,,,,,,,,,,,,,,,,,,,,,,,,,,,,,1338.012818299234,1338.012818299234,0.006662899628281593,0.09923399984836578,5.0,4.526973400264978,,,,,,,,,,,,,,9206,Moral,2024-07-03_14h08.00.012,MoralCondition_v2,2022.2.5,29.99430719776782,
14,0,14,0,,,,,,,,,,,,,,,,,,,,,,,,,,,,,,,,,,,,,,,,,,,,,,,,,,,,,,,,,,,,,,1342.5792532991618,1342.5792532991618,0.001264600083231926,0.09809079952538013,4.0,4.197933999821544,,,,,,,,9206,Moral,2024-07-03_14h08.00.012,MoralCondition_v2,2022.2.5,29.99430719776782,
15,0,15,0,0,0,0,0,,,,,,,,,,,,,,,,,,,,,1346.8129923995584,0.0002903006970882416,0.09792790003120899,1352.8126113992184,6.031273901462555,1353.0123755000532,1353.0123755000532,0.09041530080139637,0.19799070060253143,6.031197400763631,1359.1124922987074,1359.1124922987074,1359.1124922987074,0.0899026021361351,0.1980999018996954,1364.8125294987112,1365.0125181004405,6.03121830150485,6.131248300895095,1371.0125126987696,12.031202301383018,1371.1458906996995,1371.1458906996995,0.03134940192103386,0.13109840266406536,up,0.5259905997663736,1371.7292510997504,5.009956657886505e-05,0.09779809974133968,1377.7459424994886,1377.7459424994886,1377.7459424994886,0.01082799956202507,0.1146331001073122,7.0,3.9046398997306824,,,,,,,,1359.0127584990114,1359.0127584990114,,1371.1125035993755,1371.1125035993755,,9206,Moral,2024-07-03_14h08.00.012,MoralCondition_v2,2022.2.5,29.99430719776782,
15,0,15,0,1,0,1,0,,,,,,,,,,,,,,,,,,,,,,,,,,,,,,,,,,,,,,,,,,,,,,,,,,,,1381.69586869888,1381.69586869888,0.010294899344444275,0.1145102009177208,1.0,2.138782698661089,,,,,,,,,,,,,,9206,Moral,2024-07-03_14h08.00.012,MoralCondition_v2,2022.2.5,29.99430719776782,
15,0,15,0,2,0,2,0,,,,,,,,,,,,,,,,,,,,,,,,,,,,,,,,,,,,,,,,,,,,,,,,,,,,1383.8624558988959,1383.8624558988959,0.008347200229763985,0.09803059883415699,3.0,3.0239142011851072,,,,,,,,,,,,,,9206,Moral,2024-07-03_14h08.00.012,MoralCondition_v2,2022.2.5,29.99430719776782,
15,0,15,0,3,0,3,0,,,,,,,,,,,,,,,,,,,,,,,,,,,,,,,,,,,,,,,,,,,,,,,,,,,,1386.929084399715,1386.929084399715,0.006615599617362022,0.09953770041465759,2.0,2.1607870999723673,,,,,,,,,,,,,,9206,Moral,2024-07-03_14h08.00.012,MoralCondition_v2,2022.2.5,29.99430719776782,
15,0,15,0,4,0,4,0,,,,,,,,,,,,,,,,,,,,,,,,,,,,,,,,,,,,,,,,,,,,,,,,,,,,1389.1461776997894,1389.1461776997894,0.008204499259591103,0.11355749890208244,2.0,2.9064082000404596,,,,,,,,,,,,,,9206,Moral,2024-07-03_14h08.00.012,MoralCondition_v2,2022.2.5,29.99430719776782,
15,0,15,0,5,0,5,0,,,,,,,,,,,,,,,,,,,,,,,,,,,,,,,,,,,,,,,,,,,,,,,,,,,,1392.0789317004383,1392.0789317004383,0.0065623000264167786,0.09830970130860806,2.0,2.0595749989151955,,,,,,,,,,,,,,9206,Moral,2024-07-03_14h08.00.012,MoralCondition_v2,2022.2.5,29.99430719776782,
15,0,15,0,6,0,6,0,,,,,,,,,,,,,,,,,,,,,,,,,,,,,,,,,,,,,,,,,,,,,,,,,,,,1394.1790297999978,1394.1790297999978,0.007521800696849823,0.09781800024211407,1.0,1.7915802989155054,,,,,,,,,,,,,,9206,Moral,2024-07-03_14h08.00.012,MoralCondition_v2,2022.2.5,29.99430719776782,
15,0,15,0,,,,,,,,,,,,,,,,,,,,,,,,,,,,,,,,,,,,,,,,,,,,,,,,,,,,,,,,,,,,,,1396.0124455988407,1396.0124455988407,0.0007183011621236801,0.09938959963619709,7.0,5.899798300117254,,,,,,,,9206,Moral,2024-07-03_14h08.00.012,MoralCondition_v2,2022.2.5,29.99430719776782,
16,0,16,0,0,0,0,0,,,,,,,,,,,,,,,,,,,,,1401.945943498984,0.0002618003636598587,0.09782420098781586,1407.9623572994024,6.014384699985385,1408.1293292995542,1408.1293292995542,0.07708889991044998,0.181283101439476,6.0143543016165495,1414.2289247997105,1414.2289247997105,1414.2289247997105,0.07579240202903748,0.1811841018497944,1419.9291701000184,1420.1289596986026,6.014362800866365,6.114323500543833,1426.1289750002325,12.01439650170505,1426.2623185999691,1426.2623185999691,0.014557601884007454,0.11429530195891857,up,0.9942642021924257,1427.2956236992031,5.4599717259407043e-05,0.0978057999163866,,1433.328995699063,1433.328995699063,0.025575900450348854,0.13137239962816238,5.0,3.706597700715065,,,,,,,,1414.1290990002453,1414.1290990002453,,1426.2289230003953,1426.2289230003953,,9206,Moral,2024-07-03_14h08.00.012,MoralCondition_v2,2022.2.5,29.99430719776782,
16,0,16,0,1,0,1,0,,,,,,,,,,,,,,,,,,,,,,,,,,,,,,,,,,,,,,,,,,,,,,,,,,,,1437.0621951986104,1437.0621951986104,0.006699599325656891,0.09907469898462296,5.0,5.326882600784302,,,,,,,,,,,,,,9206,Moral,2024-07-03_14h08.00.012,MoralCondition_v2,2022.2.5,29.99430719776782,
16,0,16,0,2,0,2,0,,,,,,,,,,,,,,,,,,,,,,,,,,,,,,,,,,,,,,,,,,,,,,,,,,,,1442.4288807995617,1442.4288807995617,0.0072234999388456345,0.09934020042419434,2.0,3.5929821003228426,,,,,,,,,,,,,,9206,Moral,2024-07-03_14h08.00.012,MoralCondition_v2,2022.2.5,29.99430719776782,
16,0,16,0,3,0,3,0,,,,,,,,,,,,,,,,,,,,,,,,,,,,,,,,,,,,,,,,,,,,,,,,,,,,1446.0621355995536,1446.0621355995536,0.006715299561619759,0.09911629930138588,5.0,9.160361900925636,,,,,,,,,,,,,,9206,Moral,2024-07-03_14h08.00.012,MoralCondition_v2,2022.2.5,29.99430719776782,
16,0,16,0,4,0,4,0,,,,,,,,,,,,,,,,,,,,,,,,,,,,,,,,,,,,,,,,,,,,,,,,,,,,1455.2621339987963,1455.2621339987963,0.006555398926138878,0.09932509995996952,5.0,1.5937909986823797,,,,,,,,,,,,,,9206,Moral,2024-07-03_14h08.00.012,MoralCondition_v2,2022.2.5,29.99430719776782,
16,0,16,0,5,0,5,0,,,,,,,,,,,,,,,,,,,,,,,,,,,,,,,,,,,,,,,,,,,,,,,,,,,,1456.8954661991447,1456.8954661991447,0.006952401250600815,0.09830120019614697,5.0,2.4589719995856285,,,,,,,,,,,,,,9206,Moral,2024-07-03_14h08.00.012,MoralCondition_v2,2022.2.5,29.99430719776782,
16,0,16,0,6,0,6,0,,,,,,,,,,,,,,,,,,,,,,,,,,,,,,,,,,,,,,,,,,,,,,,,,,,,1459.3953334987164,1459.3953334987164,0.007221400737762451,0.09730900079011917,4.0,5.491269901394844,,,,,,,,,,,,,,9206,Moral,2024-07-03_14h08.00.012,MoralCondition_v2,2022.2.5,29.99430719776782,
16,0,16,0,,,,,,,,,,,,,,,,,,,,,,,,,,,,,,,,,,,,,,,,,,,,,,,,,,,,,,,,,,,,,,1464.9290447998792,1464.9290447998792,0.0007447004318237305,0.09925729967653751,3.0,14.4662009999156,,,,,,,,9206,Moral,2024-07-03_14h08.00.012,MoralCondition_v2,2022.2.5,29.99430719776782,
17,0,17,0,0,0,0,0,,,,,,,,,,,,,,,,,,,,,1479.4287439994514,0.000461699441075325,0.09734930098056793,1485.4287342000753,6.030733700841665,1485.6287099998444,1485.6287099998444,0.08788879960775375,0.19770120084285736,6.030656199902296,1491.7289031986147,1491.7289031986147,1491.7289031986147,0.08621460013091564,0.19757720082998276,1497.4286211002618,1497.6284964997321,6.030434301123023,6.130598101764917,1503.6286293994635,12.030632300302386,1503.7619901988655,1503.7619901988655,0.03092390112578869,0.1305755004286766,up,16.19841530174017,1520.0119036994874,2.960115671157837e-05,0.09911740012466908,,1526.0290660001338,1526.0290660001338,0.026926400139927864,0.11580310016870499,6.0,5.122982200235128,,,,,,,,1491.6286546997726,1491.6286546997726,,1503.7287579998374,1503.7287579998374,,9206,Moral,2024-07-03_14h08.00.012,MoralCondition_v2,2022.2.5,29.99430719776782,
17,0,17,0,1,0,1,0,,,,,,,,,,,,,,,,,,,,,,,,,,,,,,,,,,,,,,,,,,,,,,,,,,,,1531.1951020993292,1531.1951020993292,0.006614699959754944,0.09889140166342258,5.0,1.760012000799179,,,,,,,,,,,,,,9206,Moral,2024-07-03_14h08.00.012,MoralCondition_v2,2022.2.5,29.99430719776782,
17,0,17,0,2,0,2,0,,,,,,,,,,,,,,,,,,,,,,,,,,,,,,,,,,,,,,,,,,,,,,,,,,,,1532.9950702004135,1532.9950702004135,0.006144300103187561,0.09855559840798378,5.0,1.326978201046586,,,,,,,,,,,,,,9206,Moral,2024-07-03_14h08.00.012,MoralCondition_v2,2022.2.5,29.99430719776782,
17,0,17,0,3,0,3,0,,,,,,,,,,,,,,,,,,,,,,,,,,,,,,,,,,,,,,,,,,,,,,,,,,,,1534.3616792988032,1534.3616792988032,0.00758649967610836,0.09737579897046089,1.0,2.690956000238657,,,,,,,,,,,,,,9206,Moral,2024-07-03_14h08.00.012,MoralCondition_v2,2022.2.5,29.99430719776782,
17,0,17,0,4,0,4,0,,,,,,,,,,,,,,,,,,,,,,,,,,,,,,,,,,,,,,,,,,,,,,,,,,,,1537.0950927995145,1537.0950927995145,0.006753899157047272,0.09916939958930016,6.0,2.626877499744296,,,,,,,,,,,,,,9206,Moral,2024-07-03_14h08.00.012,MoralCondition_v2,2022.2.5,29.99430719776782,
17,0,17,0,5,0,5,0,,,,,,,,,,,,,,,,,,,,,,,,,,,,,,,,,,,,,,,,,,,,,,,,,,,,1539.76189689897,1539.76189689897,0.008093100041151047,0.09807660058140755,6.0,9.590998699888587,,,,,,,,,,,,,,9206,Moral,2024-07-03_14h08.00.012,MoralCondition_v2,2022.2.5,29.99430719776782,
17,0,17,0,6,0,6,0,,,,,,,,,,,,,,,,,,,,,,,,,,,,,,,,,,,,,,,,,,,,,,,,,,,,1549.4120742995292,1549.4120742995292,0.007964599877595901,0.1142151989042759,4.0,8.37390299886465,,,,,,,,,,,,,,9206,Moral,2024-07-03_14h08.00.012,MoralCondition_v2,2022.2.5,29.99430719776782,
17,0,17,0,,,,,,,,,,,,,,,,,,,,,,,,,,,,,,,,,,,,,,,,,,,,,,,,,,,,,,,,,,,,,,1557.8118404000998,1557.8118404000998,0.0007010996341705322,0.09925669990479946,2.0,8.93272740021348,,,,,,,,9206,Moral,2024-07-03_14h08.00.012,MoralCondition_v2,2022.2.5,29.99430719776782,
18,0,18,0,0,0,0,0,,,,,,,,,,,,,,,,,,,,,1566.7786897998303,0.00027639977633953094,0.09776949882507324,1572.778321299702,6.0311012994498014,1572.9781829994172,1572.9781829994172,0.0886084996163845,0.19773459993302822,6.03104680031538,1579.078459398821,1579.078459398821,1579.078459398821,0.08568060025572777,0.1979296002537012,1584.7784307003021,1584.9782813992351,6.031060099601746,6.131208699196577,1590.9783835988492,12.031237099319696,1591.1116147004068,1591.1116147004068,0.03120489977300167,0.131045900285244,up,0.5844948012381792,1591.7449147999287,4.8998743295669556e-05,0.09791489876806736,,1597.7784062996507,1597.7784062996507,0.02501789852976799,0.13143409974873066,1.0,2.2074017990380526,,,,,,,,1578.9782963003963,1578.9782963003963,,1591.0782414004207,1591.0782414004207,,9206,Moral,2024-07-03_14h08.00.012,MoralCondition_v2,2022.2.5,29.99430719776782,
18,0,18,0,1,0,1,0,,,,,,,,,,,,,,,,,,,,,,,,,,,,,,,,,,,,,,,,,,,,,,,,,,,,1600.0115750990808,1600.0115750990808,0.007137499749660492,0.09773110039532185,1.0,2.891619300469756,,,,,,,,,,,,,,9206,Moral,2024-07-03_14h08.00.012,MoralCondition_v2,2022.2.5,29.99430719776782,
18,0,18,0,2,0,2,0,,,,,,,,,,,,,,,,,,,,,,,,,,,,,,,,,,,,,,,,,,,,,,,,,,,,1602.9449699986726,1602.9449699986726,0.007232099771499634,0.09808560088276863,5.0,2.4918584004044533,,,,,,,,,,,,,,9206,Moral,2024-07-03_14h08.00.012,MoralCondition_v2,2022.2.5,29.99430719776782,
18,0,18,0,3,0,3,0,,,,,,,,,,,,,,,,,,,,,,,,,,,,,,,,,,,,,,,,,,,,,,,,,,,,1605.478118199855,1605.478118199855,0.006758499890565872,0.09902979992330074,2.0,1.693631799891591,,,,,,,,,,,,,,9206,Moral,2024-07-03_14h08.00.012,MoralCondition_v2,2022.2.5,29.99430719776782,
18,0,18,0,4,0,4,0,,,,,,,,,,,,,,,,,,,,,,,,,,,,,,,,,,,,,,,,,,,,,,,,,,,,1607.2114159986377,1607.2114159986377,0.006750600412487984,0.09927250072360039,7.0,2.360043400898576,,,,,,,,,,,,,,9206,Moral,2024-07-03_14h08.00.012,MoralCondition_v2,2022.2.5,29.99430719776782,
18,0,18,0,5,0,5,0,,,,,,,,,,,,,,,,,,,,,,,,,,,,,,,,,,,,,,,,,,,,,,,,,,,,1609.6113940998912,1609.6113940998912,0.007647199556231499,0.0978958997875452,1.0,2.291285799816251,,,,,,,,,,,,,,9206,Moral,2024-07-03_14h08.00.012,MoralCondition_v2,2022.2.5,29.99430719776782,
18,0,18,0,6,0,6,0,,,,,,,,,,,,,,,,,,,,,,,,,,,,,,,,,,,,,,,,,,,,,,,,,,,,1611.9449064992368,1611.9449064992368,0.006750199943780899,0.09912320040166378,2.0,2.2267458997666836,,,,,,,,,,,,,,9206,Moral,2024-07-03_14h08.00.012,MoralCondition_v2,2022.2.5,29.99430719776782,
18,0,18,0,,,,,,,,,,,,,,,,,,,,,,,,,,,,,,,,,,,,,,,,,,,,,,,,,,,,,,,,,,,,,,1614.2116003986448,1614.2116003986448,0.000658499076962471,0.09915729984641075,7.0,3.03308429941535,,,,,,,,9206,Moral,2024-07-03_14h08.00.012,MoralCondition_v2,2022.2.5,29.99430719776782,
19,0,19,0,0,0,0,0,,,,,,,,,,,,,,,,,,,,,1617.2782912999392,0.0003045015037059784,0.09808560088276863,1623.2947304993868,6.014538800343871,1623.4616240989417,1623.4616240989417,0.07055780105292797,0.18129580095410347,6.014518501237035,1629.5615391992033,1629.5615391992033,1629.5615391992033,0.06928910128772259,0.18132230080664158,1635.2613669000566,1635.4614613000304,6.01459770090878,6.114492801949382,1641.4613908994943,12.014532001689076,1641.594692999497,1641.594692999497,0.01468450203537941,0.11457240208983421,up,0.9655940998345613,1642.6113482993096,5.359947681427002e-05,0.0979750007390976,1648.6278900001198,1648.6278900001198,1648.6278900001198,0.010545700788497925,0.11425230093300343,2.0,2.704849699512124,,,,,,,,1629.4614260997623,1629.4614260997623,,1641.56132959947,1641.56132959947,,9206,Moral,2024-07-03_14h08.00.012,MoralCondition_v2,2022.2.5,29.99430719776782,
19,0,19,0,1,0,1,0,,,,,,,,,,,,,,,,,,,,,,,,,,,,,,,,,,,,,,,,,,,,,,,,,,,,1651.3612291999161,1651.3612291999161,0.006657801568508148,0.09837610088288784,2.0,5.892703499644995,,,,,,,,,,,,,,9206,Moral,2024-07-03_14h08.00.012,MoralCondition_v2,2022.2.5,29.99430719776782,
19,0,19,0,2,0,2,0,,,,,,,,,,,,,,,,,,,,,,,,,,,,,,,,,,,,,,,,,,,,,,,,,,,,1657.311635799706,1657.311635799706,0.008921300992369652,0.11454620026051998,2.0,2.773190800100565,,,,,,,,,,,,,,9206,Moral,2024-07-03_14h08.00.012,MoralCondition_v2,2022.2.5,29.99430719776782,
19,0,19,0,3,0,3,0,,,,,,,,,,,,,,,,,,,,,,,,,,,,,,,,,,,,,,,,,,,,,,,,,,,,1660.111333699897,1660.111333699897,0.006659001111984253,0.09923600032925606,5.0,2.393561100587249,,,,,,,,,,,,,,9206,Moral,2024-07-03_14h08.00.012,MoralCondition_v2,2022.2.5,29.99430719776782,
19,0,19,0,4,0,4,0,,,,,,,,,,,,,,,,,,,,,,,,,,,,,,,,,,,,,,,,,,,,,,,,,,,,1662.5615267995745,1662.5615267995745,0.00859840027987957,0.11456199921667576,4.0,2.673512699082494,,,,,,,,,,,,,,9206,Moral,2024-07-03_14h08.00.012,MoralCondition_v2,2022.2.5,29.99430719776782,
19,0,19,0,5,0,5,0,,,,,,,,,,,,,,,,,,,,,,,,,,,,,,,,,,,,,,,,,,,,,,,,,,,,1665.2613214999437,1665.2613214999437,0.006249500438570976,0.09941850043833256,3.0,4.3273561000823975,,,,,,,,,,,,,,9206,Moral,2024-07-03_14h08.00.012,MoralCondition_v2,2022.2.5,29.99430719776782,
19,0,19,0,6,0,6,0,,,,,,,,,,,,,,,,,,,,,,,,,,,,,,,,,,,,,,,,,,,,,,,,,,,,1669.6278888992965,1669.6278888992965,0.00706849992275238,0.09780259989202023,2.0,2.558196699246764,,,,,,,,,,,,,,9206,Moral,2024-07-03_14h08.00.012,MoralCondition_v2,2022.2.5,29.99430719776782,
19,0,19,0,,,,,,,,,,,,,,,,,,,,,,,,,,,,,,,,,,,,,,,,,,,,,,,,,,,,,,,,,,,,,,1672.2280541993678,1672.2280541993678,0.0007157009094953537,0.0987468995153904,5.0,3.3671512994915247,,,,,,,,9206,Moral,2024-07-03_14h08.00.012,MoralCondition_v2,2022.2.5,29.99430719776782,
