loop.thisRepN,loop.thisTrialN,loop.thisN,loop.thisIndex,evaluate_all_emotions.thisRepN,evaluate_all_emotions.thisTrialN,evaluate_all_emotions.thisN,evaluate_all_emotions.thisIndex,sync_beep_1.started,p_port.started,p_port.stopped,sync_beep_2.started,sync_beep_2.stopped,sync_beep_3.started,sync_beep_3.stopped,sync_beep_4.started,sync_beep_4.stopped,baseline.started,p_port_2.started,p_port_2.stopped,baseline.stopped,p_port_3.started,Game_Start_Text.started,p_port_4.started,p_port_4.stopped,key_resp.started,key_resp.keys,key_resp.rt,fixation_cross.started,p_port_5.started,p_port_5.stopped,fixation_cross.stopped,p_port_6.started,player_image_intro.started,player_name_intro.started,p_port_7.started,p_port_7.stopped,p_port_8.started,player_image_offer.started,player_name_offer.started,proposed_split.started,p_port_9.started,p_port_9.stopped,proposed_split.stopped,accept_reject.started,p_port_15.started,p_port_15.stopped,accept_reject.stopped,p_port_10.started,arrow_instructions.started,offer_choice.started,p_port_11.started,p_port_11.stopped,offer_choice.keys,offer_choice.rt,Instructions_Affinity_Score.started,p_port_12.started,p_port_12.stopped,Instructions_Affinity_Score.stopped,Emotion_Image.started,AffinityScore.started,p_port_13.started,p_port_13.stopped,AffinityScore.response,AffinityScore.rt,Instruction.started,Moral_Disgust_Score.started,p_port_14.started,p_port_14.stopped,Moral_Disgust_Score.response,Moral_Disgust_Score.rt,player_image_intro.stopped,player_name_intro.stopped,player_image_offer.stopped,player_name_offer.stopped,p_port_6.stopped,p_port_8.stopped,p_port_10.stopped,participant,session,date,expName,psychopyVersion,frameRate,
,,,,,,,,17.580411699484102,0.002488899976015091,0.1082882999908179,18.17586820999859,18.49247870000545,18.792538510018495,19.10918839997612,19.3758776100236,19.709155300050043,19.709155300050043,0.04171430005226284,0.14179070002865046,34.70901520003099,15.024867999949493,34.80907399998978,0.008137500029988587,0.12513840000610799,35.29248709999956,space,0.6995129000861198,,,,,,,,,,,,,,,,,,,,,,,,,,,,,,,,,,,,,,,,,,,,,,,,,,,9216,Moral,2024-10-29_19h06.39.919,MoralCondition_v2,2022.2.5,29.9867518603686,
0,0,0,0,0,0,0,0,,,,,,,,,,,,,,,,,,,,,36.042502900003456,0.017508900025859475,0.11492009996436536,42.059309100033715,6.031383999972604,42.30901840003207,42.30901840003207,0.1350277999881655,0.2814607999753207,6.014708900009282,48.34260400000494,48.34260400000494,48.34260400000494,0.07731620001140982,0.214726300095208,54.042510099941865,54.20911349996459,6.014700900064781,6.114688600064255,60.209152800031006,12.014812800101936,60.3426243000431,60.3426243000431,0.01492140011396259,0.11484620010014623,up,0.704595600022003,61.109147000010125,6.769993342459202e-05,0.09811079991050065,67.12584700004663,67.12584700004663,67.12584700004663,0.012518199975602329,0.11450229992624372,1.0,13.2861151000252,,,,,,,,,,,,,,9216,Moral,2024-10-29_19h06.39.919,MoralCondition_v2,2022.2.5,29.9867518603686,
0,0,0,0,1,0,1,0,,,,,,,,,,,,,,,,,,,,,,,,,,,,,,,,,,,,,,,,,,,,,,,,,,,,80.45946080004796,80.45946080004796,0.012457899982109666,0.11349769996013492,1.0,4.168826299952343,,,,,,,,,,,,,,9216,Moral,2024-10-29_19h06.39.919,MoralCondition_v2,2022.2.5,29.9867518603686,
0,0,0,0,2,0,2,0,,,,,,,,,,,,,,,,,,,,,,,,,,,,,,,,,,,,,,,,,,,,,,,,,,,,84.67593230004422,84.67593230004422,0.0196771000046283,0.11442220001481473,2.0,9.862171899992973,,,,,,,,,,,,,,9216,Moral,2024-10-29_19h06.39.919,MoralCondition_v2,2022.2.5,29.9867518603686,
0,0,0,0,3,0,3,0,,,,,,,,,,,,,,,,,,,,,,,,,,,,,,,,,,,,,,,,,,,,,,,,,,,,94.59270309994463,94.59270309994463,0.009672999964095652,0.11431079998146743,2.0,3.2055555999977514,,,,,,,,,,,,,,9216,Moral,2024-10-29_19h06.39.919,MoralCondition_v2,2022.2.5,29.9867518603686,
0,0,0,0,4,0,4,0,,,,,,,,,,,,,,,,,,,,,,,,,,,,,,,,,,,,,,,,,,,,,,,,,,,,97.84264559997246,97.84264559997246,0.009975600056350231,0.11357789998874068,2.0,2.204598900047131,,,,,,,,,,,,,,9216,Moral,2024-10-29_19h06.39.919,MoralCondition_v2,2022.2.5,29.9867518603686,
0,0,0,0,5,0,5,0,,,,,,,,,,,,,,,,,,,,,,,,,,,,,,,,,,,,,,,,,,,,,,,,,,,,100.07580999995116,100.07580999995116,0.011124700075015426,0.09780470002442598,4.0,2.7876957999542356,,,,,,,,,,,,,,9216,Moral,2024-10-29_19h06.39.919,MoralCondition_v2,2022.2.5,29.9867518603686,
0,0,0,0,6,0,6,0,,,,,,,,,,,,,,,,,,,,,,,,,,,,,,,,,,,,,,,,,,,,,,,,,,,,102.90923690004274,102.90923690004274,0.009928499930538237,0.09784699999727309,2.0,3.0885653001023456,,,,,,,,,,,,,,9216,Moral,2024-10-29_19h06.39.919,MoralCondition_v2,2022.2.5,29.9867518603686,
0,0,0,0,,,,,,,,,,,,,,,,,,,,,,,,,,,,,,,,,,,,,,,,,,,,,,,,,,,,,,,,,,,,,,106.04262610001024,106.04262610001024,0.0007536999182775617,0.09898739994969219,6.0,10.733384999912232,,,,,,,,9216,Moral,2024-10-29_19h06.39.919,MoralCondition_v2,2022.2.5,29.9867518603686,
1,0,1,0,0,0,0,0,,,,,,,,,,,,,,,,,,,,,116.80956480000168,0.00014290004037320614,0.0991611999925226,122.82591210003011,6.015736100031063,122.99242989998311,122.99242989998311,0.07008370000403374,0.1825272999703884,6.015750400023535,129.09269159997348,129.09269159997348,129.09269159997348,0.07649950007908046,0.18256520002614707,134.79269459994975,134.99255840003025,6.01577840000391,6.115676400018856,140.99255860003177,12.015781300025992,141.1258953999495,141.1258953999495,0.015988800092600286,0.11578000010922551,up,5.1219857999822125,146.29260189994238,3.930006641894579e-05,0.09786200011149049,,152.3090965000447,152.3090965000447,0.025522600044496357,0.11463389999698848,1.0,2.2566689000232145,,,,,,,128.9925922000548,128.9925922000548,141.09261219995096,141.09261219995096,,,,9216,Moral,2024-10-29_19h06.39.919,MoralCondition_v2,2022.2.5,29.9867518603686,
1,0,1,0,1,0,1,0,,,,,,,,,,,,,,,,,,,,,,,,,,,,,,,,,,,,,,,,,,,,,,,,,,,,154.60913839994464,154.60913839994464,0.0068885000655427575,0.09928970003966242,1.0,2.126732400036417,,,,,,,,,,,,,,9216,Moral,2024-10-29_19h06.39.919,MoralCondition_v2,2022.2.5,29.9867518603686,
1,0,1,0,2,0,2,0,,,,,,,,,,,,,,,,,,,,,,,,,,,,,,,,,,,,,,,,,,,,,,,,,,,,156.77594129997306,156.77594129997306,0.006989199900999665,0.09920779999811202,5.0,2.428811800084077,,,,,,,,,,,,,,9216,Moral,2024-10-29_19h06.39.919,MoralCondition_v2,2022.2.5,29.9867518603686,
1,0,1,0,3,0,3,0,,,,,,,,,,,,,,,,,,,,,,,,,,,,,,,,,,,,,,,,,,,,,,,,,,,,159.24272189999465,159.24272189999465,0.005985199939459562,0.09829659992828965,1.0,3.0602682000026107,,,,,,,,,,,,,,9216,Moral,2024-10-29_19h06.39.919,MoralCondition_v2,2022.2.5,29.9867518603686,
1,0,1,0,4,0,4,0,,,,,,,,,,,,,,,,,,,,,,,,,,,,,,,,,,,,,,,,,,,,,,,,,,,,162.342731700046,162.342731700046,0.007577999960631132,0.0978878999594599,4.0,2.291217799996957,,,,,,,,,,,,,,9216,Moral,2024-10-29_19h06.39.919,MoralCondition_v2,2022.2.5,29.9867518603686,
1,0,1,0,5,0,5,0,,,,,,,,,,,,,,,,,,,,,,,,,,,,,,,,,,,,,,,,,,,,,,,,,,,,164.6757998999674,164.6757998999674,0.007738899905234575,0.09747379994951189,4.0,1.5242039998993278,,,,,,,,,,,,,,9216,Moral,2024-10-29_19h06.39.919,MoralCondition_v2,2022.2.5,29.9867518603686,
1,0,1,0,6,0,6,0,,,,,,,,,,,,,,,,,,,,,,,,,,,,,,,,,,,,,,,,,,,,,,,,,,,,166.2593126000138,166.2593126000138,0.008431200054474175,0.11397639999631792,5.0,7.106384699931368,,,,,,,,,,,,,,9216,Moral,2024-10-29_19h06.39.919,MoralCondition_v2,2022.2.5,29.9867518603686,
1,0,1,0,,,,,,,,,,,,,,,,,,,,,,,,,,,,,,,,,,,,,,,,,,,,,,,,,,,,,,,,,,,,,,173.39264470001217,173.39264470001217,0.0013640000252053142,0.0971522000618279,4.0,12.730348699958995,,,,,,,,9216,Moral,2024-10-29_19h06.39.919,MoralCondition_v2,2022.2.5,29.9867518603686,
2,0,2,0,0,0,0,0,,,,,,,,,,,,,,,,,,,,,186.15928499994334,0.00017559994012117386,0.0980356999207288,192.1759880000027,6.014887299970724,192.3259987999918,192.3259987999918,0.06304289994295686,0.16516360000241548,6.031517999945208,198.44274820003193,198.44274820003193,198.44274820003193,0.0853734000120312,0.1816373000619933,204.14289559994359,204.34265939996112,6.01498239999637,6.114878899999894,210.34293749998324,12.015184700023383,210.47604640002828,210.47604640002828,0.015196599997580051,0.11490270006470382,up,0.763815600075759,211.27599869994447,3.600004129111767e-05,0.0978017000015825,217.27592679997906,217.27592679997906,217.27592679997906,0.007349200081080198,0.09783840004820377,5.0,2.7581655000103638,,,,,,,198.32606039999519,198.32606039999519,210.44267699995544,210.44267699995544,,,,9216,Moral,2024-10-29_19h06.39.919,MoralCondition_v2,2022.2.5,29.9867518603686,
2,0,2,0,1,0,1,0,,,,,,,,,,,,,,,,,,,,,,,,,,,,,,,,,,,,,,,,,,,,,,,,,,,,220.07588849996682,220.07588849996682,0.007201400003395975,0.09931050008162856,5.0,1.426312300027348,,,,,,,,,,,,,,9216,Moral,2024-10-29_19h06.39.919,MoralCondition_v2,2022.2.5,29.9867518603686,
2,0,2,0,2,0,2,0,,,,,,,,,,,,,,,,,,,,,,,,,,,,,,,,,,,,,,,,,,,,,,,,,,,,221.55935250001494,221.55935250001494,0.008123099920339882,0.11458329996094108,1.0,3.2091696000425145,,,,,,,,,,,,,,9216,Moral,2024-10-29_19h06.39.919,MoralCondition_v2,2022.2.5,29.9867518603686,
2,0,2,0,3,0,3,0,,,,,,,,,,,,,,,,,,,,,,,,,,,,,,,,,,,,,,,,,,,,,,,,,,,,224.7925944000017,224.7925944000017,0.007424000068567693,0.09782030002679676,6.0,2.858188399928622,,,,,,,,,,,,,,9216,Moral,2024-10-29_19h06.39.919,MoralCondition_v2,2022.2.5,29.9867518603686,
2,0,2,0,4,0,4,0,,,,,,,,,,,,,,,,,,,,,,,,,,,,,,,,,,,,,,,,,,,,,,,,,,,,227.70944320003036,227.70944320003036,0.008217500057071447,0.11422260000836104,4.0,2.5403622000012547,,,,,,,,,,,,,,9216,Moral,2024-10-29_19h06.39.919,MoralCondition_v2,2022.2.5,29.9867518603686,
2,0,2,0,5,0,5,0,,,,,,,,,,,,,,,,,,,,,,,,,,,,,,,,,,,,,,,,,,,,,,,,,,,,230.27592020004522,230.27592020004522,0.006763000041246414,0.09905690001323819,1.0,1.5933902999386191,,,,,,,,,,,,,,9216,Moral,2024-10-29_19h06.39.919,MoralCondition_v2,2022.2.5,29.9867518603686,
2,0,2,0,6,0,6,0,,,,,,,,,,,,,,,,,,,,,,,,,,,,,,,,,,,,,,,,,,,,,,,,,,,,231.90926989994477,231.90926989994477,0.008733700029551983,0.09786159999202937,5.0,1.8902885999996215,,,,,,,,,,,,,,9216,Moral,2024-10-29_19h06.39.919,MoralCondition_v2,2022.2.5,29.9867518603686,
2,0,2,0,,,,,,,,,,,,,,,,,,,,,,,,,,,,,,,,,,,,,,,,,,,,,,,,,,,,,,,,,,,,,,233.84268650005106,233.84268650005106,0.0007254999363794923,0.09923209995031357,2.0,7.233181899995543,,,,,,,,9216,Moral,2024-10-29_19h06.39.919,MoralCondition_v2,2022.2.5,29.9867518603686,
3,0,3,0,0,0,0,0,,,,,,,,,,,,,,,,,,,,,241.10955439996906,0.0002533999504521489,0.09790829999838024,247.12602720002178,6.0146005999995396,247.32592890004162,247.32592890004162,0.1147126000141725,0.21460449998266995,6.01459649996832,253.39255480002612,253.39255480002612,253.39255480002612,0.07288869994226843,0.18129129998851568,259.09284669999033,259.29273089999333,6.014701499952935,6.114682800020091,265.29274069995154,12.014747999957763,265.40919010003563,265.40919010003563,0.014657999970950186,0.09795079997275025,up,0.3265603999607265,265.77608390001114,5.18999295309186e-05,0.097760200034827,,271.79268449998926,271.79268449998926,0.025544799980707467,0.11433589993976057,1.0,3.9231597000034526,,,,,,,,,265.39268239995,265.39268239995,,,,9216,Moral,2024-10-29_19h06.39.919,MoralCondition_v2,2022.2.5,29.9867518603686,
3,0,3,0,1,0,1,0,,,,,,,,,,,,,,,,,,,,,,,,,,,,,,,,,,,,,,,,,,,,,,,,,,,,275.77640810003504,275.77640810003504,0.008167299907654524,0.11439339991193265,1.0,5.707306500058621,,,,,,,,,,,,,,9216,Moral,2024-10-29_19h06.39.919,MoralCondition_v2,2022.2.5,29.9867518603686,
3,0,3,0,2,0,2,0,,,,,,,,,,,,,,,,,,,,,,,,,,,,,,,,,,,,,,,,,,,,,,,,,,,,281.5262721000472,281.5262721000472,0.007944599958136678,0.11461299995426089,4.0,1.9076925000408664,,,,,,,,,,,,,,9216,Moral,2024-10-29_19h06.39.919,MoralCondition_v2,2022.2.5,29.9867518603686,
3,0,3,0,3,0,3,0,,,,,,,,,,,,,,,,,,,,,,,,,,,,,,,,,,,,,,,,,,,,,,,,,,,,283.4591943999985,283.4591943999985,0.007325800019316375,0.0991532999323681,4.0,7.326338000013493,,,,,,,,,,,,,,9216,Moral,2024-10-29_19h06.39.919,MoralCondition_v2,2022.2.5,29.9867518603686,
3,0,3,0,4,0,4,0,,,,,,,,,,,,,,,,,,,,,,,,,,,,,,,,,,,,,,,,,,,,,,,,,,,,290.8430473000044,290.8430473000044,0.008586799958720803,0.11387000000104308,4.0,4.706396299996413,,,,,,,,,,,,,,9216,Moral,2024-10-29_19h06.39.919,MoralCondition_v2,2022.2.5,29.9867518603686,
3,0,3,0,5,0,5,0,,,,,,,,,,,,,,,,,,,,,,,,,,,,,,,,,,,,,,,,,,,,,,,,,,,,295.59288210002705,295.59288210002705,0.008632699958980083,0.11420869990251958,1.0,2.3731167999794707,,,,,,,,,,,,,,9216,Moral,2024-10-29_19h06.39.919,MoralCondition_v2,2022.2.5,29.9867518603686,
3,0,3,0,6,0,6,0,,,,,,,,,,,,,,,,,,,,,,,,,,,,,,,,,,,,,,,,,,,,,,,,,,,,297.9925346999662,297.9925346999662,0.007874300004914403,0.09770860010758042,4.0,2.2908245000289753,,,,,,,,,,,,,,9216,Moral,2024-10-29_19h06.39.919,MoralCondition_v2,2022.2.5,29.9867518603686,
3,0,3,0,,,,,,,,,,,,,,,,,,,,,,,,,,,,,,,,,,,,,,,,,,,,,,,,,,,,,,,,,,,,,,300.3261182999704,300.3261182999704,0.0007216999074444175,0.09913949994370341,6.0,7.266403200104833,,,,,,,,9216,Moral,2024-10-29_19h06.39.919,MoralCondition_v2,2022.2.5,29.9867518603686,
4,0,4,0,0,0,0,0,,,,,,,,,,,,,,,,,,,,,307.62630360003095,0.00037610006984323263,0.09733989997766912,313.6259366000304,6.013890200061724,313.8094956999412,313.8094956999412,0.06544060003943741,0.18070470006205142,6.013938200077973,319.9094227999449,319.9094227999449,319.9094227999449,0.06580860004760325,0.18044700007885695,325.60951850004494,325.80952040001284,6.014068600023165,6.113930800114758,331.80942339997273,12.013951300061308,331.94274840003345,331.94274840003345,0.014231800101697445,0.1137464001076296,up,0.9608518000459298,332.95945510000456,3.899994771927595e-05,0.09806979994755238,338.9592849999899,338.9592849999899,338.9592849999899,0.009178400039672852,0.09803879994433373,5.0,9.22332660004031,,,,,,,319.80953560001217,319.80953560001217,331.9094415999716,331.9094415999716,6.09711780003272,,,9216,Moral,2024-10-29_19h06.39.919,MoralCondition_v2,2022.2.5,29.9867518603686,
4,0,4,0,1,0,1,0,,,,,,,,,,,,,,,,,,,,,,,,,,,,,,,,,,,,,,,,,,,,,,,,,,,,348.22589050000533,348.22589050000533,0.007760000065900385,0.09775770001579076,1.0,7.85759019991383,,,,,,,,,,,,,,9216,Moral,2024-10-29_19h06.39.919,MoralCondition_v2,2022.2.5,29.9867518603686,
4,0,4,0,2,0,2,0,,,,,,,,,,,,,,,,,,,,,,,,,,,,,,,,,,,,,,,,,,,,,,,,,,,,356.12612120003905,356.12612120003905,0.007088900078088045,0.09913410001900047,5.0,2.9597388999536633,,,,,,,,,,,,,,9216,Moral,2024-10-29_19h06.39.919,MoralCondition_v2,2022.2.5,29.9867518603686,
4,0,4,0,3,0,3,0,,,,,,,,,,,,,,,,,,,,,,,,,,,,,,,,,,,,,,,,,,,,,,,,,,,,359.12614860001486,359.12614860001486,0.006738599971868098,0.09911339997779578,2.0,2.926869200076908,,,,,,,,,,,,,,9216,Moral,2024-10-29_19h06.39.919,MoralCondition_v2,2022.2.5,29.9867518603686,
4,0,4,0,4,0,4,0,,,,,,,,,,,,,,,,,,,,,,,,,,,,,,,,,,,,,,,,,,,,,,,,,,,,362.09284739999566,362.09284739999566,0.006558799999766052,0.09919009997975081,5.0,2.3606509999372065,,,,,,,,,,,,,,9216,Moral,2024-10-29_19h06.39.919,MoralCondition_v2,2022.2.5,29.9867518603686,
4,0,4,0,5,0,5,0,,,,,,,,,,,,,,,,,,,,,,,,,,,,,,,,,,,,,,,,,,,,,,,,,,,,364.50938780000433,364.50938780000433,0.010712299961596727,0.11471680004615337,5.0,1.80487130000256,,,,,,,,,,,,,,9216,Moral,2024-10-29_19h06.39.919,MoralCondition_v2,2022.2.5,29.9867518603686,
4,0,4,0,6,0,6,0,,,,,,,,,,,,,,,,,,,,,,,,,,,,,,,,,,,,,,,,,,,,,,,,,,,,366.3426554000471,366.3426554000471,0.006506299949251115,0.09913779993075877,4.0,4.99364370002877,,,,,,,,,,,,,,9216,Moral,2024-10-29_19h06.39.919,MoralCondition_v2,2022.2.5,29.9867518603686,
4,0,4,0,,,,,,,,,,,,,,,,,,,,,,,,,,,,,,,,,,,,,,,,,,,,,,,,,,,,,,,,,,,,,,371.37619730003644,371.37619730003644,0.0015623000217601657,0.09761719999369234,2.0,3.4304813999915496,,,,,,,,9216,Moral,2024-10-29_19h06.39.919,MoralCondition_v2,2022.2.5,29.9867518603686,
5,0,5,0,0,0,0,0,,,,,,,,,,,,,,,,,,,,,374.84308180003427,0.0002590999938547611,0.09787749999668449,380.8428014999954,6.0311745998915285,381.12599800003227,381.12599800003227,0.17097909993026406,0.2812376000219956,6.014461599988863,387.1263298999984,387.1263298999984,387.1263298999984,0.06762650003656745,0.18130149994976819,392.8261640999699,393.0261027000379,6.014489499968477,6.1144500999944285,399.02611830004025,12.014484800049104,399.15945010003634,399.15945010003634,0.014603100018575788,0.114512600004673,up,0.3524833000265062,399.5594567999942,4.099996294826269e-05,0.09773759997915477,,405.5760206000414,405.5760206000414,0.025684199994429946,0.1144906000699848,5.0,12.523402399965562,,,,,,,,,399.12607999995816,399.12607999995816,,,,9216,Moral,2024-10-29_19h06.39.919,MoralCondition_v2,2022.2.5,29.9867518603686,
5,0,5,0,1,0,1,0,,,,,,,,,,,,,,,,,,,,,,,,,,,,,,,,,,,,,,,,,,,,,,,,,,,,418.1427660000045,418.1427660000045,0.007331299944780767,0.09801850002259016,4.0,3.1912284999853,,,,,,,,,,,,,,9216,Moral,2024-10-29_19h06.39.919,MoralCondition_v2,2022.2.5,29.9867518603686,
5,0,5,0,2,0,2,0,,,,,,,,,,,,,,,,,,,,,,,,,,,,,,,,,,,,,,,,,,,,,,,,,,,,421.39301530004013,421.39301530004013,0.007912500062957406,0.11427709995768964,1.0,1.8738709000172094,,,,,,,,,,,,,,9216,Moral,2024-10-29_19h06.39.919,MoralCondition_v2,2022.2.5,29.9867518603686,
5,0,5,0,3,0,3,0,,,,,,,,,,,,,,,,,,,,,,,,,,,,,,,,,,,,,,,,,,,,,,,,,,,,423.29284060001373,423.29284060001373,0.006596399936825037,0.09913769992999732,5.0,4.393519400036894,,,,,,,,,,,,,,9216,Moral,2024-10-29_19h06.39.919,MoralCondition_v2,2022.2.5,29.9867518603686,
5,0,5,0,4,0,4,0,,,,,,,,,,,,,,,,,,,,,,,,,,,,,,,,,,,,,,,,,,,,,,,,,,,,427.72603490005713,427.72603490005713,0.006630399962887168,0.09858789993450046,4.0,3.4264002999989316,,,,,,,,,,,,,,9216,Moral,2024-10-29_19h06.39.919,MoralCondition_v2,2022.2.5,29.9867518603686,
5,0,5,0,5,0,5,0,,,,,,,,,,,,,,,,,,,,,,,,,,,,,,,,,,,,,,,,,,,,,,,,,,,,431.2096932999557,431.2096932999557,0.008417399949394166,0.11418469995260239,1.0,1.4400338000850752,,,,,,,,,,,,,,9216,Moral,2024-10-29_19h06.39.919,MoralCondition_v2,2022.2.5,29.9867518603686,
5,0,5,0,6,0,6,0,,,,,,,,,,,,,,,,,,,,,,,,,,,,,,,,,,,,,,,,,,,,,,,,,,,,432.67596629995387,432.67596629995387,0.00656479992903769,0.09918749995995313,4.0,2.9271229000296444,,,,,,,,,,,,,,9216,Moral,2024-10-29_19h06.39.919,MoralCondition_v2,2022.2.5,29.9867518603686,
5,0,5,0,,,,,,,,,,,,,,,,,,,,,,,,,,,,,,,,,,,,,,,,,,,,,,,,,,,,,,,,,,,,,,435.6429551000474,435.6429551000474,0.0006978999590501189,0.09914890001527965,4.0,11.999667400028557,,,,,,,,9216,Moral,2024-10-29_19h06.39.919,MoralCondition_v2,2022.2.5,29.9867518603686,
6,0,6,0,0,0,0,0,,,,,,,,,,,,,,,,,,,,,447.67631869995967,0.0001351999817416072,0.09925029997248203,453.676102599944,5.9991746000014246,453.8428736999631,453.8428736999631,0.05925410008057952,0.16602780006360263,5.999176900018938,459.94282370002475,459.94282370002475,459.94282370002475,0.06513430003542453,0.1658970001153648,465.6427972000092,465.87598110002,5.999337500077672,6.09914960002061,471.8760985999834,11.999202700098976,471.97613780002575,471.97613780002575,-5.599926225841045e-06,0.09917760011740029,up,0.5111473000142723,472.5428130000364,4.4599990360438824e-05,0.09792920004110783,,478.5762366000563,478.5762366000563,0.02601989998947829,0.13125069998204708,4.0,1.8062442000955343,,,,,,,459.8428599999752,459.8428599999752,471.94277970003895,471.94277970003895,6.09913750004489,6.09929749998264,12.099189500091597,9216,Moral,2024-10-29_19h06.39.919,MoralCondition_v2,2022.2.5,29.9867518603686,
6,0,6,0,1,0,1,0,,,,,,,,,,,,,,,,,,,,,,,,,,,,,,,,,,,,,,,,,,,,,,,,,,,,480.42627039994113,480.42627039994113,0.008077200036495924,0.1138043999671936,5.0,3.9065933999372646,,,,,,,,,,,,,,9216,Moral,2024-10-29_19h06.39.919,MoralCondition_v2,2022.2.5,29.9867518603686,
6,0,6,0,2,0,2,0,,,,,,,,,,,,,,,,,,,,,,,,,,,,,,,,,,,,,,,,,,,,,,,,,,,,484.3763167000143,484.3763167000143,0.008341099950484931,0.11438849999103695,1.0,1.8067109000403434,,,,,,,,,,,,,,9216,Moral,2024-10-29_19h06.39.919,MoralCondition_v2,2022.2.5,29.9867518603686,
6,0,6,0,3,0,3,0,,,,,,,,,,,,,,,,,,,,,,,,,,,,,,,,,,,,,,,,,,,,,,,,,,,,486.2094683999894,486.2094683999894,0.0074760999996215105,0.09749299997929484,1.0,1.3910606000572443,,,,,,,,,,,,,,9216,Moral,2024-10-29_19h06.39.919,MoralCondition_v2,2022.2.5,29.9867518603686,
6,0,6,0,4,0,4,0,,,,,,,,,,,,,,,,,,,,,,,,,,,,,,,,,,,,,,,,,,,,,,,,,,,,487.6426541999681,487.6426541999681,0.006678400095552206,0.09935400006361306,4.0,1.4270646999357268,,,,,,,,,,,,,,9216,Moral,2024-10-29_19h06.39.919,MoralCondition_v2,2022.2.5,29.9867518603686,
6,0,6,0,5,0,5,0,,,,,,,,,,,,,,,,,,,,,,,,,,,,,,,,,,,,,,,,,,,,,,,,,,,,489.1094357999973,489.1094357999973,0.006771899992600083,0.099202899960801,4.0,6.060189299983904,,,,,,,,,,,,,,9216,Moral,2024-10-29_19h06.39.919,MoralCondition_v2,2022.2.5,29.9867518603686,
6,0,6,0,6,0,6,0,,,,,,,,,,,,,,,,,,,,,,,,,,,,,,,,,,,,,,,,,,,,,,,,,,,,495.2264054999687,495.2264054999687,0.008846399956382811,0.11463470000308007,5.0,1.9399123000912368,,,,,,,,,,,,,,9216,Moral,2024-10-29_19h06.39.919,MoralCondition_v2,2022.2.5,29.9867518603686,
6,0,6,0,,,,,,,,,,,,,,,,,,,,,,,,,,,,,,,,,,,,,,,,,,,,,,,,,,,,,,,,,,,,,,497.19287769997027,497.19287769997027,0.0014263000339269638,0.09738970000762492,2.0,5.130528199952096,,,,,,,,9216,Moral,2024-10-29_19h06.39.919,MoralCondition_v2,2022.2.5,29.9867518603686,
7,0,7,0,0,0,0,0,,,,,,,,,,,,,,,,,,,,,502.35971800005063,0.0001379000023007393,0.09933310002088547,508.3759940000018,6.015906699933112,508.54289309994783,508.54289309994783,0.07412100001238286,0.18245640001259744,6.01580189995002,514.6428043999476,514.6428043999476,514.6428043999476,0.0713864000281319,0.18273050000425428,520.34274620004,520.5427835000446,6.015829600044526,6.115812400006689,526.5427508000284,12.015871500014327,526.6760894999607,526.6760894999607,0.015942600090056658,0.11578500003088266,up,0.4519294999772683,527.1761476000538,5.40000619366765e-05,0.09778960002586246,533.1760606999742,533.1760606999742,533.1760606999742,0.008064800058491528,0.09795379999559373,4.0,1.424150799983181,,,,,,,514.5427526000421,514.5427526000421,526.6427475999808,526.6427475999808,,,,9216,Moral,2024-10-29_19h06.39.919,MoralCondition_v2,2022.2.5,29.9867518603686,
7,0,7,0,1,0,1,0,,,,,,,,,,,,,,,,,,,,,,,,,,,,,,,,,,,,,,,,,,,,,,,,,,,,534.6427421000553,534.6427421000553,0.006464999984018505,0.0989847999298945,4.0,2.1936517000431195,,,,,,,,,,,,,,9216,Moral,2024-10-29_19h06.39.919,MoralCondition_v2,2022.2.5,29.9867518603686,
7,0,7,0,2,0,2,0,,,,,,,,,,,,,,,,,,,,,,,,,,,,,,,,,,,,,,,,,,,,,,,,,,,,536.8760405000066,536.8760405000066,0.007562099955976009,0.09926639997866005,2.0,2.259494199999608,,,,,,,,,,,,,,9216,Moral,2024-10-29_19h06.39.919,MoralCondition_v2,2022.2.5,29.9867518603686,
7,0,7,0,3,0,3,0,,,,,,,,,,,,,,,,,,,,,,,,,,,,,,,,,,,,,,,,,,,,,,,,,,,,539.17595970002,539.17595970002,0.006402100087143481,0.09913200000301003,5.0,2.227015499956906,,,,,,,,,,,,,,9216,Moral,2024-10-29_19h06.39.919,MoralCondition_v2,2022.2.5,29.9867518603686,
7,0,7,0,4,0,4,0,,,,,,,,,,,,,,,,,,,,,,,,,,,,,,,,,,,,,,,,,,,,,,,,,,,,541.4428612999618,541.4428612999618,0.007236500037834048,0.09803450002800673,4.0,2.825082099996507,,,,,,,,,,,,,,9216,Moral,2024-10-29_19h06.39.919,MoralCondition_v2,2022.2.5,29.9867518603686,
7,0,7,0,5,0,5,0,,,,,,,,,,,,,,,,,,,,,,,,,,,,,,,,,,,,,,,,,,,,,,,,,,,,544.3094755000202,544.3094755000202,0.007411700091324747,0.09800870006438345,1.0,1.424712699954398,,,,,,,,,,,,,,9216,Moral,2024-10-29_19h06.39.919,MoralCondition_v2,2022.2.5,29.9867518603686,
7,0,7,0,6,0,6,0,,,,,,,,,,,,,,,,,,,,,,,,,,,,,,,,,,,,,,,,,,,,,,,,,,,,545.776213999954,545.776213999954,0.009066600003279746,0.09732919989619404,5.0,1.5224296000087634,,,,,,,,,,,,,,9216,Moral,2024-10-29_19h06.39.919,MoralCondition_v2,2022.2.5,29.9867518603686,
7,0,7,0,,,,,,,,,,,,,,,,,,,,,,,,,,,,,,,,,,,,,,,,,,,,,,,,,,,,,,,,,,,,,,547.3430696999421,547.3430696999421,0.0007033000001683831,0.09921480005141348,4.0,5.132947400095873,,,,,,,,9216,Moral,2024-10-29_19h06.39.919,MoralCondition_v2,2022.2.5,29.9867518603686,
8,0,8,0,0,0,0,0,,,,,,,,,,,,,,,,,,,,,552.5097099000122,0.0003454000689089298,0.09745170001406223,558.5262840000214,6.014366899966262,558.6925766000059,558.6925766000059,0.0725162000162527,0.1807115999981761,6.014305900083855,564.7927331000101,564.7927331000101,564.7927331000101,0.06866610003635287,0.18067390006035566,570.4927245000144,570.6928375000134,6.01420610002242,6.1138506000861526,576.6926331999712,12.013892400078475,576.8092615000205,576.8092615000205,0.013828200055286288,0.09755380009301007,up,0.6547958999872208,577.5261867999798,1.4600111171603203e-05,0.09935840009711683,,583.5426289000316,583.5426289000316,0.024540500016883016,0.1162022000644356,5.0,3.9593278999673203,,,,,,,564.6928387000225,564.6928387000225,576.7759389999555,576.7759389999555,,,,9216,Moral,2024-10-29_19h06.39.919,MoralCondition_v2,2022.2.5,29.9867518603686,
8,0,8,0,1,0,1,0,,,,,,,,,,,,,,,,,,,,,,,,,,,,,,,,,,,,,,,,,,,,,,,,,,,,587.5426327999448,587.5426327999448,0.006288699922151864,0.0992104000179097,2.0,1.6605891999788582,,,,,,,,,,,,,,9216,Moral,2024-10-29_19h06.39.919,MoralCondition_v2,2022.2.5,29.9867518603686,
8,0,8,0,2,0,2,0,,,,,,,,,,,,,,,,,,,,,,,,,,,,,,,,,,,,,,,,,,,,,,,,,,,,589.2428131999914,589.2428131999914,0.006277799955569208,0.09931229997891933,4.0,2.59403330006171,,,,,,,,,,,,,,9216,Moral,2024-10-29_19h06.39.919,MoralCondition_v2,2022.2.5,29.9867518603686,
8,0,8,0,3,0,3,0,,,,,,,,,,,,,,,,,,,,,,,,,,,,,,,,,,,,,,,,,,,,,,,,,,,,591.8759224000387,591.8759224000387,0.007659299997612834,0.0984166000271216,4.0,1.6247966999653727,,,,,,,,,,,,,,9216,Moral,2024-10-29_19h06.39.919,MoralCondition_v2,2022.2.5,29.9867518603686,
8,0,8,0,4,0,4,0,,,,,,,,,,,,,,,,,,,,,,,,,,,,,,,,,,,,,,,,,,,,,,,,,,,,593.5426548999967,593.5426548999967,0.006969299982301891,0.09940749988891184,5.0,2.6267914000200108,,,,,,,,,,,,,,9216,Moral,2024-10-29_19h06.39.919,MoralCondition_v2,2022.2.5,29.9867518603686,
8,0,8,0,5,0,5,0,,,,,,,,,,,,,,,,,,,,,,,,,,,,,,,,,,,,,,,,,,,,,,,,,,,,596.2094665999757,596.2094665999757,0.006712100002914667,0.09897209994960576,1.0,1.5600392000051215,,,,,,,,,,,,,,9216,Moral,2024-10-29_19h06.39.919,MoralCondition_v2,2022.2.5,29.9867518603686,
8,0,8,0,6,0,6,0,,,,,,,,,,,,,,,,,,,,,,,,,,,,,,,,,,,,,,,,,,,,,,,,,,,,597.8094493000535,597.8094493000535,0.008340400061570108,0.09745140001177788,5.0,2.4568422000156716,,,,,,,,,,,,,,9216,Moral,2024-10-29_19h06.39.919,MoralCondition_v2,2022.2.5,29.9867518603686,
8,0,8,0,,,,,,,,,,,,,,,,,,,,,,,,,,,,,,,,,,,,,,,,,,,,,,,,,,,,,,,,,,,,,,600.3093293999555,600.3093293999555,0.0013516999315470457,0.09776119992602617,4.0,6.197678099968471,,,,,,,,9216,Moral,2024-10-29_19h06.39.919,MoralCondition_v2,2022.2.5,29.9867518603686,
9,0,9,0,0,0,0,0,,,,,,,,,,,,,,,,,,,,,606.5429255999625,0.00012610002886503935,0.09915200003888458,612.5593306999654,6.015739600057714,612.7925639000023,612.7925639000023,0.1329808000009507,0.24900429998524487,6.015762700000778,618.8257891000248,618.8257891000248,618.8257891000248,0.07823580002877861,0.18234780000057071,624.5259606000036,624.7259724000469,6.015711400075816,6.115644400008023,630.7259674000088,12.015683800098486,630.8591849999502,630.8591849999502,0.015824300120584667,0.11566360003780574,up,0.764743100036867,631.6593165999511,3.93999507650733e-05,0.09788899996783584,637.6761631000554,637.6761631000554,637.6761631000554,0.00941709999460727,0.11462759994901717,5.0,3.606235899962485,,,,,,,,,630.8259444000432,630.8259444000432,,,,9216,Moral,2024-10-29_19h06.39.919,MoralCondition_v2,2022.2.5,29.9867518603686,
9,0,9,0,1,0,1,0,,,,,,,,,,,,,,,,,,,,,,,,,,,,,,,,,,,,,,,,,,,,,,,,,,,,641.3262178000296,641.3262178000296,0.008726899977773428,0.11505969997961074,5.0,2.2070428000297397,,,,,,,,,,,,,,9216,Moral,2024-10-29_19h06.39.919,MoralCondition_v2,2022.2.5,29.9867518603686,
9,0,9,0,2,0,2,0,,,,,,,,,,,,,,,,,,,,,,,,,,,,,,,,,,,,,,,,,,,,,,,,,,,,643.5593783999793,643.5593783999793,0.007617199909873307,0.09789059998001903,5.0,2.1245546999853104,,,,,,,,,,,,,,9216,Moral,2024-10-29_19h06.39.919,MoralCondition_v2,2022.2.5,29.9867518603686,
9,0,9,0,3,0,3,0,,,,,,,,,,,,,,,,,,,,,,,,,,,,,,,,,,,,,,,,,,,,,,,,,,,,645.7265519000357,645.7265519000357,0.007635300047695637,0.0969839000608772,4.0,4.2573649999685585,,,,,,,,,,,,,,9216,Moral,2024-10-29_19h06.39.919,MoralCondition_v2,2022.2.5,29.9867518603686,
9,0,9,0,4,0,4,0,,,,,,,,,,,,,,,,,,,,,,,,,,,,,,,,,,,,,,,,,,,,,,,,,,,,650.0259884999832,650.0259884999832,0.006539599969983101,0.09941170003730804,2.0,1.7270871000364423,,,,,,,,,,,,,,9216,Moral,2024-10-29_19h06.39.919,MoralCondition_v2,2022.2.5,29.9867518603686,
9,0,9,0,5,0,5,0,,,,,,,,,,,,,,,,,,,,,,,,,,,,,,,,,,,,,,,,,,,,,,,,,,,,651.7926349999616,651.7926349999616,0.007714099949225783,0.09768280002754182,5.0,1.9244943000376225,,,,,,,,,,,,,,9216,Moral,2024-10-29_19h06.39.919,MoralCondition_v2,2022.2.5,29.9867518603686,
9,0,9,0,6,0,6,0,,,,,,,,,,,,,,,,,,,,,,,,,,,,,,,,,,,,,,,,,,,,,,,,,,,,653.7593024000525,653.7593024000525,0.007222199928946793,0.09817290003411472,1.0,3.158889599959366,,,,,,,,,,,,,,9216,Moral,2024-10-29_19h06.39.919,MoralCondition_v2,2022.2.5,29.9867518603686,
9,0,9,0,,,,,,,,,,,,,,,,,,,,,,,,,,,,,,,,,,,,,,,,,,,,,,,,,,,,,,,,,,,,,,656.9592705999967,656.9592705999967,0.0007253000512719154,0.09928800002671778,4.0,12.19952160003595,,,,,,,,9216,Moral,2024-10-29_19h06.39.919,MoralCondition_v2,2022.2.5,29.9867518603686,
10,0,10,0,0,0,0,0,,,,,,,,,,,,,,,,,,,,,669.1928340999875,0.00026000000070780516,0.09802719997242093,675.1924682999961,6.014694900019094,675.3593151000096,675.3593151000096,0.06033830007072538,0.1649136000778526,6.031333300052211,681.4927040999755,681.4927040999755,681.4927040999755,0.09172340005170554,0.19825980009045452,687.1925921000075,687.3926095999777,6.031419200007804,6.1312798000872135,693.3928793000523,12.031646500108764,693.5259339000331,693.5259339000331,0.03151970007456839,0.131175700109452,up,0.6414648999925703,694.2093827000353,4.069996066391468e-05,0.09793349995743483,700.2260835999623,700.2260835999623,700.2260835999623,0.009204000001773238,0.11473319993820041,2.0,30.13955940003507,,,,,,,681.3592531000031,681.3592531000031,693.4926124999765,693.4926124999765,6.097916400060058,,,9216,Moral,2024-10-29_19h06.39.919,MoralCondition_v2,2022.2.5,29.9867518603686,
10,0,10,0,1,0,1,0,,,,,,,,,,,,,,,,,,,,,,,,,,,,,,,,,,,,,,,,,,,,,,,,,,,,730.3924192000413,730.3924192000413,0.0065944999223575,0.09827900002710521,4.0,2.6926786999683827,,,,,,,,,,,,,,9216,Moral,2024-10-29_19h06.39.919,MoralCondition_v2,2022.2.5,29.9867518603686,
10,0,10,0,2,0,2,0,,,,,,,,,,,,,,,,,,,,,,,,,,,,,,,,,,,,,,,,,,,,,,,,,,,,733.1259099999443,733.1259099999443,0.007545099942944944,0.09756679995916784,5.0,1.9243439000565559,,,,,,,,,,,,,,9216,Moral,2024-10-29_19h06.39.919,MoralCondition_v2,2022.2.5,29.9867518603686,
10,0,10,0,3,0,3,0,,,,,,,,,,,,,,,,,,,,,,,,,,,,,,,,,,,,,,,,,,,,,,,,,,,,735.1094206999987,735.1094206999987,0.00799329997971654,0.11428439989686012,5.0,1.4740831999806687,,,,,,,,,,,,,,9216,Moral,2024-10-29_19h06.39.919,MoralCondition_v2,2022.2.5,29.9867518603686,
10,0,10,0,4,0,4,0,,,,,,,,,,,,,,,,,,,,,,,,,,,,,,,,,,,,,,,,,,,,,,,,,,,,736.60927669995,736.60927669995,0.007662800024263561,0.0976041000103578,4.0,2.5243552000029013,,,,,,,,,,,,,,9216,Moral,2024-10-29_19h06.39.919,MoralCondition_v2,2022.2.5,29.9867518603686,
10,0,10,0,5,0,5,0,,,,,,,,,,,,,,,,,,,,,,,,,,,,,,,,,,,,,,,,,,,,,,,,,,,,739.1758309999714,739.1758309999714,0.007691300008445978,0.09772479999810457,1.0,1.6244149999693036,,,,,,,,,,,,,,9216,Moral,2024-10-29_19h06.39.919,MoralCondition_v2,2022.2.5,29.9867518603686,
10,0,10,0,6,0,6,0,,,,,,,,,,,,,,,,,,,,,,,,,,,,,,,,,,,,,,,,,,,,,,,,,,,,740.8426211000187,740.8426211000187,0.006832299986854196,0.09937680000439286,5.0,2.393161699990742,,,,,,,,,,,,,,9216,Moral,2024-10-29_19h06.39.919,MoralCondition_v2,2022.2.5,29.9867518603686,
10,0,10,0,,,,,,,,,,,,,,,,,,,,,,,,,,,,,,,,,,,,,,,,,,,,,,,,,,,,,,,,,,,,,,743.2760207999963,743.2760207999963,0.0006777000380679965,0.09915399993769825,4.0,4.932937099947594,,,,,,,,9216,Moral,2024-10-29_19h06.39.919,MoralCondition_v2,2022.2.5,29.9867518603686,
11,0,11,0,0,0,0,0,,,,,,,,,,,,,,,,,,,,,748.2429182999767,0.00014100002590566874,0.09908159996848553,754.2424650000175,5.9990958999842405,754.409174600034,754.409174600034,0.060383500065654516,0.16585240000858903,5.999131400021724,760.5093901000218,760.5093901000218,760.5093901000218,0.05172400001902133,0.16566970001440495,766.2096169999568,766.4424992999993,5.9990735000465065,6.098972900072113,772.4424443000462,11.999048100085929,772.5424498999491,772.5424498999491,-0.00015289988368749619,0.09891140006948262,up,0.34517550002783537,772.9424744000426,4.349998198449612e-05,0.09792769991327077,778.9428185999859,778.9428185999859,778.9428185999859,0.00889539998024702,0.09809230000246316,5.0,2.2233284999383613,,,,,,,760.4090703000547,760.4090703000547,772.5091341000516,772.5091341000516,6.098974199965596,6.098918400006369,12.099028100026771,9216,Moral,2024-10-29_19h06.39.919,MoralCondition_v2,2022.2.5,29.9867518603686,
11,0,11,0,1,0,1,0,,,,,,,,,,,,,,,,,,,,,,,,,,,,,,,,,,,,,,,,,,,,,,,,,,,,781.2260289000114,781.2260289000114,0.008423599996604025,0.11400669999420643,3.0,4.139514200040139,,,,,,,,,,,,,,9216,Moral,2024-10-29_19h06.39.919,MoralCondition_v2,2022.2.5,29.9867518603686,
11,0,11,0,2,0,2,0,,,,,,,,,,,,,,,,,,,,,,,,,,,,,,,,,,,,,,,,,,,,,,,,,,,,785.3925125000533,785.3925125000533,0.006738200085237622,0.09935580007731915,1.0,4.026849199901335,,,,,,,,,,,,,,9216,Moral,2024-10-29_19h06.39.919,MoralCondition_v2,2022.2.5,29.9867518603686,
11,0,11,0,3,0,3,0,,,,,,,,,,,,,,,,,,,,,,,,,,,,,,,,,,,,,,,,,,,,,,,,,,,,789.4590864999918,789.4590864999918,0.007933599990792572,0.09759859996847808,2.0,3.2238893000176176,,,,,,,,,,,,,,9216,Moral,2024-10-29_19h06.39.919,MoralCondition_v2,2022.2.5,29.9867518603686,
11,0,11,0,4,0,4,0,,,,,,,,,,,,,,,,,,,,,,,,,,,,,,,,,,,,,,,,,,,,,,,,,,,,792.7258642000379,792.7258642000379,0.00767319998703897,0.09773150004912168,4.0,3.424405400059186,,,,,,,,,,,,,,9216,Moral,2024-10-29_19h06.39.919,MoralCondition_v2,2022.2.5,29.9867518603686,
11,0,11,0,5,0,5,0,,,,,,,,,,,,,,,,,,,,,,,,,,,,,,,,,,,,,,,,,,,,,,,,,,,,796.1923858999508,796.1923858999508,0.007711199927143753,0.09788669995032251,4.0,3.1241245000855997,,,,,,,,,,,,,,9216,Moral,2024-10-29_19h06.39.919,MoralCondition_v2,2022.2.5,29.9867518603686,
11,0,11,0,6,0,6,0,,,,,,,,,,,,,,,,,,,,,,,,,,,,,,,,,,,,,,,,,,,,,,,,,,,,799.3590285000391,799.3590285000391,0.007436199928633869,0.09800869994796813,1.0,2.258233500062488,,,,,,,,,,,,,,9216,Moral,2024-10-29_19h06.39.919,MoralCondition_v2,2022.2.5,29.9867518603686,
11,0,11,0,,,,,,,,,,,,,,,,,,,,,,,,,,,,,,,,,,,,,,,,,,,,,,,,,,,,,,,,,,,,,,801.6591697999975,801.6591697999975,0.0013617000076919794,0.09808409994002432,4.0,5.864471599925309,,,,,,,,9216,Moral,2024-10-29_19h06.39.919,MoralCondition_v2,2022.2.5,29.9867518603686,
12,0,12,0,0,0,0,0,,,,,,,,,,,,,,,,,,,,,807.5591217000037,0.00031949998810887337,0.09778459998778999,813.5590411999729,6.031131699914113,813.7589131999994,813.7589131999994,0.09096099995076656,0.1977678999537602,6.031092799967155,819.8591739999829,819.8591739999829,819.8591739999829,0.08737409999594092,0.19792880001477897,825.5590788000263,825.7590847000247,6.031195800052956,6.1310678999871016,831.7590204000007,12.031200699973851,831.8924078999553,831.8924078999553,0.031357200001366436,0.13105269998777658,up,1.1876490999711677,833.1424051000504,5.859998054802418e-05,0.09763109998311847,839.1590659000212,839.1590659000212,839.1590659000212,0.011701300041750073,0.11463319999165833,5.0,2.570515500032343,,,,,,,819.7590640999842,819.7590640999842,831.8590837999946,831.8590837999946,,,,9216,Moral,2024-10-29_19h06.39.919,MoralCondition_v2,2022.2.5,29.9867518603686,
12,0,12,0,1,0,1,0,,,,,,,,,,,,,,,,,,,,,,,,,,,,,,,,,,,,,,,,,,,,,,,,,,,,841.758933700039,841.758933700039,0.0067529999651014805,0.09924669994506985,1.0,1.6267897000070661,,,,,,,,,,,,,,9216,Moral,2024-10-29_19h06.39.919,MoralCondition_v2,2022.2.5,29.9867518603686,
12,0,12,0,2,0,2,0,,,,,,,,,,,,,,,,,,,,,,,,,,,,,,,,,,,,,,,,,,,,,,,,,,,,843.425751099945,843.425751099945,0.007148800068534911,0.0977913000388071,4.0,2.2250086999265477,,,,,,,,,,,,,,9216,Moral,2024-10-29_19h06.39.919,MoralCondition_v2,2022.2.5,29.9867518603686,
12,0,12,0,3,0,3,0,,,,,,,,,,,,,,,,,,,,,,,,,,,,,,,,,,,,,,,,,,,,,,,,,,,,845.7090123000089,845.7090123000089,0.009647099999710917,0.11398920009378344,4.0,2.771775500033982,,,,,,,,,,,,,,9216,Moral,2024-10-29_19h06.39.919,MoralCondition_v2,2022.2.5,29.9867518603686,
12,0,12,0,4,0,4,0,,,,,,,,,,,,,,,,,,,,,,,,,,,,,,,,,,,,,,,,,,,,,,,,,,,,848.5258788999636,848.5258788999636,0.008280199952423573,0.11446779989637434,5.0,1.6404104999965057,,,,,,,,,,,,,,9216,Moral,2024-10-29_19h06.39.919,MoralCondition_v2,2022.2.5,29.9867518603686,
12,0,12,0,5,0,5,0,,,,,,,,,,,,,,,,,,,,,,,,,,,,,,,,,,,,,,,,,,,,,,,,,,,,850.192477399949,850.192477399949,0.00732209999114275,0.09814699995331466,1.0,1.4917414999799803,,,,,,,,,,,,,,9216,Moral,2024-10-29_19h06.39.919,MoralCondition_v2,2022.2.5,29.9867518603686,
12,0,12,0,6,0,6,0,,,,,,,,,,,,,,,,,,,,,,,,,,,,,,,,,,,,,,,,,,,,,,,,,,,,851.725710800034,851.725710800034,0.007199599989689887,0.09923319995868951,2.0,2.6931660000700504,,,,,,,,,,,,,,9216,Moral,2024-10-29_19h06.39.919,MoralCondition_v2,2022.2.5,29.9867518603686,
12,0,12,0,,,,,,,,,,,,,,,,,,,,,,,,,,,,,,,,,,,,,,,,,,,,,,,,,,,,,,,,,,,,,,854.4590263999999,854.4590263999999,0.0013951000291854143,0.09794469992630184,6.0,9.164222900057212,,,,,,,,9216,Moral,2024-10-29_19h06.39.919,MoralCondition_v2,2022.2.5,29.9867518603686,
13,0,13,0,0,0,0,0,,,,,,,,,,,,,,,,,,,,,863.6589732000139,0.00038739992305636406,0.09727839997503906,869.6589606000343,6.030595600022934,869.8589694000548,869.8589694000548,0.08986890001688153,0.19724690006114542,6.03055589995347,875.9591371000279,875.9591371000279,875.9591371000279,0.08696770004462451,0.19757399999070913,881.6589817999629,881.8588904000353,6.0305296999868006,6.130516799981706,887.85885650001,12.030561299994588,887.9922811000142,887.9922811000142,0.030729299993254244,0.1306480000494048,up,0.4636040000477806,888.4922824000241,7.730000652372837e-05,0.09773080004379153,,894.5088006999576,894.5088006999576,0.025801100069656968,0.11436260002665222,1.0,2.8229888000059873,,,,,,,875.8591583999805,875.8591583999805,887.9589260000503,887.9589260000503,,,,9216,Moral,2024-10-29_19h06.39.919,MoralCondition_v2,2022.2.5,29.9867518603686,
13,0,13,0,1,0,1,0,,,,,,,,,,,,,,,,,,,,,,,,,,,,,,,,,,,,,,,,,,,,,,,,,,,,897.3756193999434,897.3756193999434,0.007548100082203746,0.09772740001790226,1.0,2.8579749999335036,,,,,,,,,,,,,,9216,Moral,2024-10-29_19h06.39.919,MoralCondition_v2,2022.2.5,29.9867518603686,
13,0,13,0,2,0,2,0,,,,,,,,,,,,,,,,,,,,,,,,,,,,,,,,,,,,,,,,,,,,,,,,,,,,900.2754653999582,900.2754653999582,0.007918799994513392,0.09753270004875958,5.0,1.9577619000338018,,,,,,,,,,,,,,9216,Moral,2024-10-29_19h06.39.919,MoralCondition_v2,2022.2.5,29.9867518603686,
13,0,13,0,3,0,3,0,,,,,,,,,,,,,,,,,,,,,,,,,,,,,,,,,,,,,,,,,,,,,,,,,,,,902.2756884000264,902.2756884000264,0.006756999995559454,0.09926280006766319,4.0,2.693283100030385,,,,,,,,,,,,,,9216,Moral,2024-10-29_19h06.39.919,MoralCondition_v2,2022.2.5,29.9867518603686,
13,0,13,0,4,0,4,0,,,,,,,,,,,,,,,,,,,,,,,,,,,,,,,,,,,,,,,,,,,,,,,,,,,,905.0091669999529,905.0091669999529,0.007307499996386468,0.0979998999973759,4.0,3.2249032000545412,,,,,,,,,,,,,,9216,Moral,2024-10-29_19h06.39.919,MoralCondition_v2,2022.2.5,29.9867518603686,
13,0,13,0,5,0,5,0,,,,,,,,,,,,,,,,,,,,,,,,,,,,,,,,,,,,,,,,,,,,,,,,,,,,908.2757145999931,908.2757145999931,0.007116599939763546,0.09910489991307259,4.0,4.026357499998994,,,,,,,,,,,,,,9216,Moral,2024-10-29_19h06.39.919,MoralCondition_v2,2022.2.5,29.9867518603686,
13,0,13,0,6,0,6,0,,,,,,,,,,,,,,,,,,,,,,,,,,,,,,,,,,,,,,,,,,,,,,,,,,,,912.3423012000276,912.3423012000276,0.0074023999040946364,0.09935459995176643,5.0,2.4596632999600843,,,,,,,,,,,,,,9216,Moral,2024-10-29_19h06.39.919,MoralCondition_v2,2022.2.5,29.9867518603686,
13,0,13,0,,,,,,,,,,,,,,,,,,,,,,,,,,,,,,,,,,,,,,,,,,,,,,,,,,,,,,,,,,,,,,914.8424621999729,914.8424621999729,0.0006849000928923488,0.0991480000084266,4.0,6.466213300009258,,,,,,,,9216,Moral,2024-10-29_19h06.39.919,MoralCondition_v2,2022.2.5,29.9867518603686,
14,0,14,0,0,0,0,0,,,,,,,,,,,,,,,,,,,,,921.3425627000397,0.00039950001519173384,0.09749810001812875,927.3589618999977,6.014149900060147,927.5255149999866,927.5255149999866,0.06646780006121844,0.18080510012805462,6.014343200018629,933.6257836000295,933.6257836000295,933.6257836000295,0.0683431001380086,0.18109490012284368,939.3255059999647,939.5256712000119,6.014303300064057,6.114141400088556,945.5255123999668,12.014169300091453,945.6588964000111,945.6588964000111,0.014542000135406852,0.11408960015978664,up,2.348683200078085,948.0592281999998,4.5999884605407715e-05,0.0977707999991253,,954.0753801000537,954.0753801000537,0.02531899989116937,0.11429729999508709,4.0,5.356861499953084,,,,,,,933.5255687000463,933.5255687000463,945.6256679999642,945.6256679999642,,,,9216,Moral,2024-10-29_19h06.39.919,MoralCondition_v2,2022.2.5,29.9867518603686,
14,0,14,0,1,0,1,0,,,,,,,,,,,,,,,,,,,,,,,,,,,,,,,,,,,,,,,,,,,,,,,,,,,,959.4754193000263,959.4754193000263,0.006784399971365929,0.09905880002770573,3.0,3.4602196000050753,,,,,,,,,,,,,,9216,Moral,2024-10-29_19h06.39.919,MoralCondition_v2,2022.2.5,29.9867518603686,
14,0,14,0,2,0,2,0,,,,,,,,,,,,,,,,,,,,,,,,,,,,,,,,,,,,,,,,,,,,,,,,,,,,962.9754764999961,962.9754764999961,0.005971699953079224,0.09867330000270158,1.0,3.094055199995637,,,,,,,,,,,,,,9216,Moral,2024-10-29_19h06.39.919,MoralCondition_v2,2022.2.5,29.9867518603686,
14,0,14,0,3,0,3,0,,,,,,,,,,,,,,,,,,,,,,,,,,,,,,,,,,,,,,,,,,,,,,,,,,,,966.1255667000078,966.1255667000078,0.009654299938119948,0.11400269996374846,1.0,3.5719696999294683,,,,,,,,,,,,,,9216,Moral,2024-10-29_19h06.39.919,MoralCondition_v2,2022.2.5,29.9867518603686,
14,0,14,0,4,0,4,0,,,,,,,,,,,,,,,,,,,,,,,,,,,,,,,,,,,,,,,,,,,,,,,,,,,,969.7255322999554,969.7255322999554,0.007464199909009039,0.09784489998128265,1.0,1.591483399970457,,,,,,,,,,,,,,9216,Moral,2024-10-29_19h06.39.919,MoralCondition_v2,2022.2.5,29.9867518603686,
14,0,14,0,5,0,5,0,,,,,,,,,,,,,,,,,,,,,,,,,,,,,,,,,,,,,,,,,,,,,,,,,,,,971.3587818000233,971.3587818000233,0.007823699968867004,0.09747529996093363,2.0,2.723653000080958,,,,,,,,,,,,,,9216,Moral,2024-10-29_19h06.39.919,MoralCondition_v2,2022.2.5,29.9867518603686,
14,0,14,0,6,0,6,0,,,,,,,,,,,,,,,,,,,,,,,,,,,,,,,,,,,,,,,,,,,,,,,,,,,,974.1254245999735,974.1254245999735,0.005518199992366135,0.09970529994461685,1.0,4.695334400050342,,,,,,,,,,,,,,9216,Moral,2024-10-29_19h06.39.919,MoralCondition_v2,2022.2.5,29.9867518603686,
14,0,14,0,,,,,,,,,,,,,,,,,,,,,,,,,,,,,,,,,,,,,,,,,,,,,,,,,,,,,,,,,,,,,,978.8587386000436,978.8587386000436,0.0006753000197932124,0.09975189995020628,6.0,3.5664431999903172,,,,,,,,9216,Moral,2024-10-29_19h06.39.919,MoralCondition_v2,2022.2.5,29.9867518603686,
15,0,15,0,0,0,0,0,,,,,,,,,,,,,,,,,,,,,982.4590863999911,0.00027059996500611305,0.09832720004487783,988.475458699977,6.014758000033908,988.6422367000487,988.6422367000487,0.06946570007130504,0.18159900000318885,6.014821800054051,994.7423284000251,994.7423284000251,994.7423284000251,0.0664907000027597,0.18157160002738237,1000.4421431999654,1000.6421177999582,6.014789800043218,6.1147215000819415,1006.642095600022,12.014764000079595,1006.7754370999755,1006.7754370999755,0.01500570005737245,0.11484700010623783,up,2.4958519999636337,1009.3254703000421,5.610007792711258e-05,0.09803460002876818,1015.3252730000531,1015.3252730000531,1015.3252730000531,0.011105300043709576,0.09790600009728223,1.0,4.754732500063255,,,,,,,994.6253764999565,994.6253764999565,1006.7421483000508,1006.7421483000508,,,,9216,Moral,2024-10-29_19h06.39.919,MoralCondition_v2,2022.2.5,29.9867518603686,
15,0,15,0,1,0,1,0,,,,,,,,,,,,,,,,,,,,,,,,,,,,,,,,,,,,,,,,,,,,,,,,,,,,1020.1255006999709,1020.1255006999709,0.007045999984256923,0.09750649996567518,5.0,3.42456219997257,,,,,,,,,,,,,,9216,Moral,2024-10-29_19h06.39.919,MoralCondition_v2,2022.2.5,29.9867518603686,
15,0,15,0,2,0,2,0,,,,,,,,,,,,,,,,,,,,,,,,,,,,,,,,,,,,,,,,,,,,,,,,,,,,1023.5920502999797,1023.5920502999797,0.0072085000574588776,0.09904890006873757,5.0,1.1262755999341607,,,,,,,,,,,,,,9216,Moral,2024-10-29_19h06.39.919,MoralCondition_v2,2022.2.5,29.9867518603686,
15,0,15,0,3,0,3,0,,,,,,,,,,,,,,,,,,,,,,,,,,,,,,,,,,,,,,,,,,,,,,,,,,,,1024.7585598999867,1024.7585598999867,0.00671019998844713,0.09925870003644377,4.0,2.5600269000278786,,,,,,,,,,,,,,9216,Moral,2024-10-29_19h06.39.919,MoralCondition_v2,2022.2.5,29.9867518603686,
15,0,15,0,4,0,4,0,,,,,,,,,,,,,,,,,,,,,,,,,,,,,,,,,,,,,,,,,,,,,,,,,,,,1027.3755515000084,1027.3755515000084,0.008310499950312078,0.11400870000943542,1.0,1.4399947000201792,,,,,,,,,,,,,,9216,Moral,2024-10-29_19h06.39.919,MoralCondition_v2,2022.2.5,29.9867518603686,
15,0,15,0,5,0,5,0,,,,,,,,,,,,,,,,,,,,,,,,,,,,,,,,,,,,,,,,,,,,,,,,,,,,1028.841889000032,1028.841889000032,0.007389899925328791,0.09820599993690848,1.0,1.4251804000232369,,,,,,,,,,,,,,9216,Moral,2024-10-29_19h06.39.919,MoralCondition_v2,2022.2.5,29.9867518603686,
15,0,15,0,6,0,6,0,,,,,,,,,,,,,,,,,,,,,,,,,,,,,,,,,,,,,,,,,,,,,,,,,,,,1030.3087187999627,1030.3087187999627,0.006465199985541403,0.09932999999728054,1.0,4.226869400008582,,,,,,,,,,,,,,9216,Moral,2024-10-29_19h06.39.919,MoralCondition_v2,2022.2.5,29.9867518603686,
15,0,15,0,,,,,,,,,,,,,,,,,,,,,,,,,,,,,,,,,,,,,,,,,,,,,,,,,,,,,,,,,,,,,,1034.5754091000417,1034.5754091000417,0.0007023999933153391,0.09898380003869534,6.0,3.6327994000166655,,,,,,,,9216,Moral,2024-10-29_19h06.39.919,MoralCondition_v2,2022.2.5,29.9867518603686,
16,0,16,0,0,0,0,0,,,,,,,,,,,,,,,,,,,,,1038.2422844000394,0.00039039994589984417,0.09761619998607785,1044.2421038999455,6.030940999975428,1044.4421052000253,1044.4421052000253,0.09288679994642735,0.1977359999436885,6.030823300010525,1050.5420439000009,1050.5420439000009,1050.5420439000009,0.09225099999457598,0.1974976999917999,1056.2420446999604,1056.4420234999852,6.030830099945888,6.130930099985562,1062.442018099944,12.030825600028038,1062.5753559999866,1062.5753559999866,0.030982300057075918,0.13086660008411855,up,0.19990080001298338,1062.8086849000538,1.7400016076862812e-05,0.09890940005425364,1068.8255784000503,1068.8255784000503,1068.8255784000503,0.011175499996170402,0.11559070006478578,4.0,3.571977199986577,,,,,,,1050.441996300011,1050.441996300011,1062.5420226999559,1062.5420226999559,,,,9216,Moral,2024-10-29_19h06.39.919,MoralCondition_v2,2022.2.5,29.9867518603686,
16,0,16,0,1,0,1,0,,,,,,,,,,,,,,,,,,,,,,,,,,,,,,,,,,,,,,,,,,,,,,,,,,,,1072.4253626000136,1072.4253626000136,0.006555899977684021,0.0990489999530837,1.0,2.7268837000010535,,,,,,,,,,,,,,9216,Moral,2024-10-29_19h06.39.919,MoralCondition_v2,2022.2.5,29.9867518603686,
16,0,16,0,2,0,2,0,,,,,,,,,,,,,,,,,,,,,,,,,,,,,,,,,,,,,,,,,,,,,,,,,,,,1075.1921482000034,1075.1921482000034,0.006704500061459839,0.09899810003116727,1.0,5.026672700070776,,,,,,,,,,,,,,9216,Moral,2024-10-29_19h06.39.919,MoralCondition_v2,2022.2.5,29.9867518603686,
16,0,16,0,3,0,3,0,,,,,,,,,,,,,,,,,,,,,,,,,,,,,,,,,,,,,,,,,,,,,,,,,,,,1080.2585650000256,1080.2585650000256,0.007712500053457916,0.09757940005511045,6.0,2.492158200009726,,,,,,,,,,,,,,9216,Moral,2024-10-29_19h06.39.919,MoralCondition_v2,2022.2.5,29.9867518603686,
16,0,16,0,4,0,4,0,,,,,,,,,,,,,,,,,,,,,,,,,,,,,,,,,,,,,,,,,,,,,,,,,,,,1082.7918462000089,1082.7918462000089,0.007276699994690716,0.09791270003188401,1.0,1.6584519000025466,,,,,,,,,,,,,,9216,Moral,2024-10-29_19h06.39.919,MoralCondition_v2,2022.2.5,29.9867518603686,
16,0,16,0,5,0,5,0,,,,,,,,,,,,,,,,,,,,,,,,,,,,,,,,,,,,,,,,,,,,,,,,,,,,1084.4919750000117,1084.4919750000117,0.007024600054137409,0.099149200017564,1.0,5.659902499988675,,,,,,,,,,,,,,9216,Moral,2024-10-29_19h06.39.919,MoralCondition_v2,2022.2.5,29.9867518603686,
16,0,16,0,6,0,6,0,,,,,,,,,,,,,,,,,,,,,,,,,,,,,,,,,,,,,,,,,,,,,,,,,,,,1090.1919407000532,1090.1919407000532,0.00661979999858886,0.09933260001707822,5.0,2.560177300008945,,,,,,,,,,,,,,9216,Moral,2024-10-29_19h06.39.919,MoralCondition_v2,2022.2.5,29.9867518603686,
16,0,16,0,,,,,,,,,,,,,,,,,,,,,,,,,,,,,,,,,,,,,,,,,,,,,,,,,,,,,,,,,,,,,,1092.7919201999903,1092.7919201999903,0.0011940000113099813,0.09852369991131127,6.0,7.264924600021914,,,,,,,,9216,Moral,2024-10-29_19h06.39.919,MoralCondition_v2,2022.2.5,29.9867518603686,
17,0,17,0,0,0,0,0,,,,,,,,,,,,,,,,,,,,,1100.0921279999893,0.00013699999544769526,0.09959210001397878,1106.091916400008,5.999276999966241,1106.2586884000339,1106.2586884000339,0.05223540007136762,0.16596949996892363,5.999243900063448,1112.3586909000296,1112.3586909000296,1112.3586909000296,0.052588900085538626,0.16609250009059906,1118.0585452000378,1118.2586783999577,5.999393600039184,6.099243400036357,1124.2585267999675,11.99924340005964,1124.3918622999918,1124.3918622999918,5.4900068789720535e-05,0.09919240011367947,up,0.6397298999363557,1125.0919654000318,5.279993638396263e-05,0.09797280002385378,,1131.1251950999722,1131.1251950999722,0.026363400043919683,0.13124230003450066,1.0,9.172669699997641,,,,,,,1112.2585301999934,1112.2585301999934,1124.3585064000217,1124.3585064000217,6.0992392000043765,6.099256500019692,12.09928890003357,9216,Moral,2024-10-29_19h06.39.919,MoralCondition_v2,2022.2.5,29.9867518603686,
17,0,17,0,1,0,1,0,,,,,,,,,,,,,,,,,,,,,,,,,,,,,,,,,,,,,,,,,,,,,,,,,,,,1140.325279199984,1140.325279199984,0.006751399952918291,0.09951679990626872,5.0,2.6937436000443995,,,,,,,,,,,,,,9216,Moral,2024-10-29_19h06.39.919,MoralCondition_v2,2022.2.5,29.9867518603686,
17,0,17,0,2,0,2,0,,,,,,,,,,,,,,,,,,,,,,,,,,,,,,,,,,,,,,,,,,,,,,,,,,,,1143.0584049000172,1143.0584049000172,0.007189100026153028,0.09838189999572933,1.0,2.5918799999635667,,,,,,,,,,,,,,9216,Moral,2024-10-29_19h06.39.919,MoralCondition_v2,2022.2.5,29.9867518603686,
17,0,17,0,3,0,3,0,,,,,,,,,,,,,,,,,,,,,,,,,,,,,,,,,,,,,,,,,,,,,,,,,,,,1145.708724200027,1145.708724200027,0.007873399998061359,0.11397760000545532,1.0,1.0736024000216275,,,,,,,,,,,,,,9216,Moral,2024-10-29_19h06.39.919,MoralCondition_v2,2022.2.5,29.9867518603686,
17,0,17,0,4,0,4,0,,,,,,,,,,,,,,,,,,,,,,,,,,,,,,,,,,,,,,,,,,,,,,,,,,,,1146.8083446000237,1146.8083446000237,0.005500700091943145,0.09929680009372532,5.0,1.6949418999720365,,,,,,,,,,,,,,9216,Moral,2024-10-29_19h06.39.919,MoralCondition_v2,2022.2.5,29.9867518603686,
17,0,17,0,5,0,5,0,,,,,,,,,,,,,,,,,,,,,,,,,,,,,,,,,,,,,,,,,,,,,,,,,,,,1148.5417273000348,1148.5417273000348,0.007735099992714822,0.09767450008075684,1.0,1.9573395000770688,,,,,,,,,,,,,,9216,Moral,2024-10-29_19h06.39.919,MoralCondition_v2,2022.2.5,29.9867518603686,
17,0,17,0,6,0,6,0,,,,,,,,,,,,,,,,,,,,,,,,,,,,,,,,,,,,,,,,,,,,,,,,,,,,1150.5418343000347,1150.5418343000347,0.007957299938425422,0.09838019998278469,4.0,1.524216499994509,,,,,,,,,,,,,,9216,Moral,2024-10-29_19h06.39.919,MoralCondition_v2,2022.2.5,29.9867518603686,
17,0,17,0,,,,,,,,,,,,,,,,,,,,,,,,,,,,,,,,,,,,,,,,,,,,,,,,,,,,,,,,,,,,,,1152.1085900999606,1152.1085900999606,0.0007548999274149537,0.09936979995109141,6.0,3.0664164000190794,,,,,,,,9216,Moral,2024-10-29_19h06.39.919,MoralCondition_v2,2022.2.5,29.9867518603686,
18,0,18,0,0,0,0,0,,,,,,,,,,,,,,,,,,,,,1155.2086908000056,0.00036619999445974827,0.09782949998043478,1161.2251121000154,6.014446999994107,1161.3918072000379,1161.3918072000379,0.07530539995059371,0.18132970004808158,6.014288099948317,1167.4917218999472,1167.4917218999472,1167.4917218999472,0.07222259999252856,0.181190500035882,1173.1917610999662,1173.3919447000371,6.014612099970691,6.114371399977244,1179.3917282000184,12.014398099971004,1179.525096599944,1179.525096599944,0.01473640010226518,0.11431850004009902,up,9.938683800050057,1189.525053499965,5.970010533928871e-05,0.09830660000443459,,1195.558604400023,1195.558604400023,0.025806200108490884,0.1313991000643,1.0,7.239677599980496,,,,,,,1167.391777300043,1167.391777300043,1179.491721999948,1179.491721999948,,,,9216,Moral,2024-10-29_19h06.39.919,MoralCondition_v2,2022.2.5,29.9867518603686,
18,0,18,0,1,0,1,0,,,,,,,,,,,,,,,,,,,,,,,,,,,,,,,,,,,,,,,,,,,,,,,,,,,,1202.8251633000327,1202.8251633000327,0.007362699951045215,0.09766889992170036,4.0,1.691371600027196,,,,,,,,,,,,,,9216,Moral,2024-10-29_19h06.39.919,MoralCondition_v2,2022.2.5,29.9867518603686,
18,0,18,0,2,0,2,0,,,,,,,,,,,,,,,,,,,,,,,,,,,,,,,,,,,,,,,,,,,,,,,,,,,,1204.5582474999828,1204.5582474999828,0.007547499961219728,0.09792560001369566,5.0,1.6912974000442773,,,,,,,,,,,,,,9216,Moral,2024-10-29_19h06.39.919,MoralCondition_v2,2022.2.5,29.9867518603686,
18,0,18,0,3,0,3,0,,,,,,,,,,,,,,,,,,,,,,,,,,,,,,,,,,,,,,,,,,,,,,,,,,,,1206.2917904000496,1206.2917904000496,0.0074881999753415585,0.09781950002070516,5.0,0.658021799987182,,,,,,,,,,,,,,9216,Moral,2024-10-29_19h06.39.919,MoralCondition_v2,2022.2.5,29.9867518603686,
18,0,18,0,4,0,4,0,,,,,,,,,,,,,,,,,,,,,,,,,,,,,,,,,,,,,,,,,,,,,,,,,,,,1207.0083099999465,1207.0083099999465,0.008968500071205199,0.11410710006020963,1.0,1.4730673999292776,,,,,,,,,,,,,,9216,Moral,2024-10-29_19h06.39.919,MoralCondition_v2,2022.2.5,29.9867518603686,
18,0,18,0,5,0,5,0,,,,,,,,,,,,,,,,,,,,,,,,,,,,,,,,,,,,,,,,,,,,,,,,,,,,1208.508236899972,1208.508236899972,0.0070408000610768795,0.09909929998684675,1.0,1.1597138999495655,,,,,,,,,,,,,,9216,Moral,2024-10-29_19h06.39.919,MoralCondition_v2,2022.2.5,29.9867518603686,
18,0,18,0,6,0,6,0,,,,,,,,,,,,,,,,,,,,,,,,,,,,,,,,,,,,,,,,,,,,,,,,,,,,1209.7082216000417,1209.7082216000417,0.007767600007355213,0.0981566000264138,1.0,1.7581966000143439,,,,,,,,,,,,,,9216,Moral,2024-10-29_19h06.39.919,MoralCondition_v2,2022.2.5,29.9867518603686,
18,0,18,0,,,,,,,,,,,,,,,,,,,,,,,,,,,,,,,,,,,,,,,,,,,,,,,,,,,,,,,,,,,,,,1211.5082895000232,1211.5082895000232,0.001013800036162138,0.09804780001286417,6.0,4.9981735000619665,,,,,,,,9216,Moral,2024-10-29_19h06.39.919,MoralCondition_v2,2022.2.5,29.9867518603686,
19,0,19,0,0,0,0,0,,,,,,,,,,,,,,,,,,,,,1216.5416588999797,0.0003893999382853508,0.09719449991825968,1222.541678700014,6.030666699982248,1222.7415261999704,1222.7415261999704,0.08683429996017367,0.1972478999523446,6.030547900008969,1228.808314200025,1228.808314200025,1228.808314200025,0.06347890000324696,0.16410709999036044,1234.5082823999692,1234.7416153999511,6.030579000012949,6.130524800042622,1240.74158729997,12.030560999992304,1240.8749212999828,1240.8749212999828,0.030691200052388012,0.13049680006224662,up,0.30032429995480925,1241.208261599997,4.400010220706463e-05,0.09736490005161613,1247.2081098000053,1247.2081098000053,1247.2081098000053,0.008713800110854208,0.09751180000603199,4.0,2.022899299976416,,,,,,,1228.7249357999535,1228.7249357999535,1240.8082567000529,1240.8082567000529,,,,9216,Moral,2024-10-29_19h06.39.919,MoralCondition_v2,2022.2.5,29.9867518603686,
19,0,19,0,1,0,1,0,,,,,,,,,,,,,,,,,,,,,,,,,,,,,,,,,,,,,,,,,,,,,,,,,,,,1249.2918239999563,1249.2918239999563,0.009163399925455451,0.11416200001258403,1.0,1.5725574999814853,,,,,,,,,,,,,,9216,Moral,2024-10-29_19h06.39.919,MoralCondition_v2,2022.2.5,29.9867518603686,
19,0,19,0,2,0,2,0,,,,,,,,,,,,,,,,,,,,,,,,,,,,,,,,,,,,,,,,,,,,,,,,,,,,1250.8917341999477,1250.8917341999477,0.007404900039546192,0.09807339997496456,5.0,1.3917008000425994,,,,,,,,,,,,,,9216,Moral,2024-10-29_19h06.39.919,MoralCondition_v2,2022.2.5,29.9867518603686,
19,0,19,0,3,0,3,0,,,,,,,,,,,,,,,,,,,,,,,,,,,,,,,,,,,,,,,,,,,,,,,,,,,,1252.3249330000253,1252.3249330000253,0.006304000038653612,0.09936890006065369,1.0,1.9273334000026807,,,,,,,,,,,,,,9216,Moral,2024-10-29_19h06.39.919,MoralCondition_v2,2022.2.5,29.9867518603686,
19,0,19,0,4,0,4,0,,,,,,,,,,,,,,,,,,,,,,,,,,,,,,,,,,,,,,,,,,,,,,,,,,,,1254.2918156000087,1254.2918156000087,0.007076299982145429,0.0991530999308452,1.0,1.3266323999268934,,,,,,,,,,,,,,9216,Moral,2024-10-29_19h06.39.919,MoralCondition_v2,2022.2.5,29.9867518603686,
19,0,19,0,5,0,5,0,,,,,,,,,,,,,,,,,,,,,,,,,,,,,,,,,,,,,,,,,,,,,,,,,,,,1255.6582627999596,1255.6582627999596,0.007565299980342388,0.09762339992448688,5.0,1.25786709995009,,,,,,,,,,,,,,9216,Moral,2024-10-29_19h06.39.919,MoralCondition_v2,2022.2.5,29.9867518603686,
19,0,19,0,6,0,6,0,,,,,,,,,,,,,,,,,,,,,,,,,,,,,,,,,,,,,,,,,,,,,,,,,,,,1256.958025699947,1256.958025699947,0.006949800066649914,0.09949120006058365,1.0,1.0932358000427485,,,,,,,,,,,,,,9216,Moral,2024-10-29_19h06.39.919,MoralCondition_v2,2022.2.5,29.9867518603686,
19,0,19,0,,,,,,,,,,,,,,,,,,,,,,,,,,,,,,,,,,,,,,,,,,,,,,,,,,,,,,,,,,,,,,1258.0917586999713,1258.0917586999713,0.0007015999872237444,0.0993159000063315,6.0,2.3662264000158757,,,,,,,,9216,Moral,2024-10-29_19h06.39.919,MoralCondition_v2,2022.2.5,29.9867518603686,
