loop.thisRepN,loop.thisTrialN,loop.thisN,loop.thisIndex,evaluate_all_emotions.thisRepN,evaluate_all_emotions.thisTrialN,evaluate_all_emotions.thisN,evaluate_all_emotions.thisIndex,sync_beep_1.started,p_port.started,p_port.stopped,sync_beep_1.stopped,sync_beep_2.started,sync_beep_2.stopped,sync_beep_3.started,sync_beep_3.stopped,sync_beep_4.started,sync_beep_4.stopped,baseline.started,p_port_2.started,p_port_2.stopped,baseline.stopped,p_port_3.started,p_port_3.stopped,Game_Start_Text.started,p_port_4.started,p_port_4.stopped,key_resp.started,key_resp.keys,key_resp.rt,fixation_cross.started,p_port_5.started,p_port_5.stopped,fixation_cross.stopped,p_port_6.started,player_image_intro.started,player_name_intro.started,p_port_7.started,p_port_7.stopped,p_port_8.started,player_image_offer.started,player_name_offer.started,proposed_split.started,p_port_9.started,p_port_9.stopped,proposed_split.stopped,accept_reject.started,p_port_15.started,p_port_15.stopped,accept_reject.stopped,p_port_10.started,player_image_offer.stopped,player_name_offer.stopped,arrow_instructions.started,offer_choice.started,p_port_11.started,p_port_11.stopped,offer_choice.keys,offer_choice.rt,Instructions_Affinity_Score.started,p_port_12.started,p_port_12.stopped,Emotion_Image.started,AffinityScore.started,p_port_13.started,p_port_13.stopped,AffinityScore.response,AffinityScore.rt,Instruction.started,Moral_Disgust_Score.started,p_port_14.started,p_port_14.stopped,Moral_Disgust_Score.response,Moral_Disgust_Score.rt,Instructions_Affinity_Score.stopped,player_image_intro.stopped,player_name_intro.stopped,p_port_8.stopped,p_port_10.stopped,p_port_6.stopped,participant,session,date,expName,psychopyVersion,frameRate,
,,,,,,,,17.821862460300327,0.0008395002223551273,0.1145180999301374,18.1209146999754,18.43771887002513,18.73750129994005,19.037622469849886,19.337602300103754,19.620945969969036,19.937488600146025,19.937488600146025,0.03108120011165738,0.13128759991377592,34.92080370010808,15.014352499973029,15.097733499947935,35.03765770001337,0.03128399979323149,0.13116239989176393,35.537629399914294,space,2.032431600149721,,,,,,,,,,,,,,,,,,,,,,,,,,,,,,,,,,,,,,,,,,,,,,,,,,,9412,Moral,2024-08-20_18h12.32.876,MoralCondition_v2,2022.2.5,29.987066546045362,
0,0,0,0,0,0,0,0,,,,,,,,,,,,,,,,,,,,,,,37.62093860004097,0.008668700233101845,0.09831649996340275,43.604174700099975,6.014886199962348,43.90427220007405,43.90427220007405,0.1367306001484394,0.28169360011816025,6.015007299836725,49.92093440005556,49.92093440005556,49.92093440005556,0.07245299965143204,0.19853049982339144,55.62079280009493,55.82095290021971,6.031692299991846,6.131617599632591,61.820954899769276,12.0317971999757,61.92095600022003,61.92095600022003,61.95442289998755,61.95442289998755,0.03185439994558692,0.1316390996798873,up,1.4630868998356164,63.45430439990014,3.0199997127056122e-05,0.09822840010747313,69.48757949983701,69.48757949983701,0.03385670017451048,0.13167080003768206,5.0,7.5487901996821165,,,,,,,,,,,,,9412,Moral,2024-08-20_18h12.32.876,MoralCondition_v2,2022.2.5,29.987066546045362,
0,0,0,0,1,0,1,0,,,,,,,,,,,,,,,,,,,,,,,,,,,,,,,,,,,,,,,,,,,,,,,,,,,,,,,77.0877911997959,77.0877911997959,0.009767500218003988,0.11422490002587438,2.0,4.7056470001116395,,,,,,,,,,,,,9412,Moral,2024-08-20_18h12.32.876,MoralCondition_v2,2022.2.5,29.987066546045362,
0,0,0,0,2,0,2,0,,,,,,,,,,,,,,,,,,,,,,,,,,,,,,,,,,,,,,,,,,,,,,,,,,,,,,,81.8207426997833,81.8207426997833,0.009066700004041195,0.0993661000393331,3.0,8.45761219970882,,,,,,,,,,,,,9412,Moral,2024-08-20_18h12.32.876,MoralCondition_v2,2022.2.5,29.987066546045362,
0,0,0,0,3,0,3,0,,,,,,,,,,,,,,,,,,,,,,,,,,,,,,,,,,,,,,,,,,,,,,,,,,,,,,,90.32094539981335,90.32094539981335,0.009211699943989515,0.09901040000841022,1.0,2.0910311001352966,,,,,,,,,,,,,9412,Moral,2024-08-20_18h12.32.876,MoralCondition_v2,2022.2.5,29.987066546045362,
0,0,0,0,4,0,4,0,,,,,,,,,,,,,,,,,,,,,,,,,,,,,,,,,,,,,,,,,,,,,,,,,,,,,,,92.47111839987338,92.47111839987338,0.008675399702042341,0.11429519997909665,3.0,4.106800999958068,,,,,,,,,,,,,9412,Moral,2024-08-20_18h12.32.876,MoralCondition_v2,2022.2.5,29.987066546045362,
0,0,0,0,5,0,5,0,,,,,,,,,,,,,,,,,,,,,,,,,,,,,,,,,,,,,,,,,,,,,,,,,,,,,,,96.62122670002282,96.62122670002282,0.010986500419676304,0.11455970024690032,1.0,3.2050589001737535,,,,,,,,,,,,,9412,Moral,2024-08-20_18h12.32.876,MoralCondition_v2,2022.2.5,29.987066546045362,
0,0,0,0,6,0,6,0,,,,,,,,,,,,,,,,,,,,,,,,,,,,,,,,,,,,,,,,,,,,,,,,,,,,,,,99.87110200012103,99.87110200012103,0.009485199581831694,0.11442909995093942,4.0,2.572445400059223,,,,,,,,,,,,,9412,Moral,2024-08-20_18h12.32.876,MoralCondition_v2,2022.2.5,29.987066546045362,
0,0,0,0,,,,,,,,,,,,,,,,,,,,,,,,,,,,,,,,,,,,,,,,,,,,,,,,,,,,,,,,,,,,,,,,,102.47103960020468,102.47103960020468,0.0007265000604093075,0.09911599988117814,7.0,10.36630990030244,,,,,,,9412,Moral,2024-08-20_18h12.32.876,MoralCondition_v2,2022.2.5,29.987066546045362,
1,0,1,0,0,0,0,0,,,,,,,,,,,,,,,,,,,,,,,112.8712097001262,0.0002807001583278179,0.09760589990764856,118.87103899987414,6.030930900014937,119.1208168999292,119.1208168999292,0.13463460002094507,0.24771309969946742,6.014363399706781,125.15432249987498,125.15432249987498,125.15432249987498,0.07481139991432428,0.18085689982399344,130.85430609993637,131.05432800017297,6.014212899841368,6.114312299992889,137.05433219997212,12.014214099850506,137.15425230003893,137.15425230003893,137.18761399993673,137.18761399993673,0.014288199599832296,0.11417859978973866,up,0.8305812999606133,138.07116020005196,3.550015389919281e-05,0.09870050009340048,144.070911699906,144.070911699906,0.011379800271242857,0.09888119995594025,6.0,6.621579700149596,,,,,,,144.070911699906,,,,,,9412,Moral,2024-08-20_18h12.32.876,MoralCondition_v2,2022.2.5,29.987066546045362,
1,0,1,0,1,0,1,0,,,,,,,,,,,,,,,,,,,,,,,,,,,,,,,,,,,,,,,,,,,,,,,,,,,,,,,150.73748110001907,150.73748110001907,0.007041000295430422,0.09924590028822422,2.0,6.259616099763662,,,,,,,,,,,,,9412,Moral,2024-08-20_18h12.32.876,MoralCondition_v2,2022.2.5,29.987066546045362,
1,0,1,0,2,0,2,0,,,,,,,,,,,,,,,,,,,,,,,,,,,,,,,,,,,,,,,,,,,,,,,,,,,,,,,157.05430880002677,157.05430880002677,0.007646099664270878,0.11413950007408857,1.0,2.7405195999890566,,,,,,,,,,,,,9412,Moral,2024-08-20_18h12.32.876,MoralCondition_v2,2022.2.5,29.987066546045362,
1,0,1,0,3,0,3,0,,,,,,,,,,,,,,,,,,,,,,,,,,,,,,,,,,,,,,,,,,,,,,,,,,,,,,,159.83805319992825,159.83805319992825,0.009086200036108494,0.1139487000182271,3.0,4.939393599983305,,,,,,,,,,,,,9412,Moral,2024-08-20_18h12.32.876,MoralCondition_v2,2022.2.5,29.987066546045362,
1,0,1,0,4,0,4,0,,,,,,,,,,,,,,,,,,,,,,,,,,,,,,,,,,,,,,,,,,,,,,,,,,,,,,,164.80424680002034,164.80424680002034,0.006917700171470642,0.09916500002145767,2.0,6.426453300286084,,,,,,,,,,,,,9412,Moral,2024-08-20_18h12.32.876,MoralCondition_v2,2022.2.5,29.987066546045362,
1,0,1,0,5,0,5,0,,,,,,,,,,,,,,,,,,,,,,,,,,,,,,,,,,,,,,,,,,,,,,,,,,,,,,,171.27119910018519,171.27119910018519,0.007249099668115377,0.09796229982748628,2.0,1.325225899927318,,,,,,,,,,,,,9412,Moral,2024-08-20_18h12.32.876,MoralCondition_v2,2022.2.5,29.987066546045362,
1,0,1,0,6,0,6,0,,,,,,,,,,,,,,,,,,,,,,,,,,,,,,,,,,,,,,,,,,,,,,,,,,,,,,,172.63765429984778,172.63765429984778,0.0069693997502326965,0.09937659977003932,3.0,6.859781800303608,,,,,,,,,,,,,9412,Moral,2024-08-20_18h12.32.876,MoralCondition_v2,2022.2.5,29.987066546045362,
1,0,1,0,,,,,,,,,,,,,,,,,,,,,,,,,,,,,,,,,,,,,,,,,,,,,,,,,,,,,,,,,,,,,,,,,179.5378836998716,179.5378836998716,0.0012326003052294254,0.09783830028027296,7.0,2.897801300045103,,,,,,,9412,Moral,2024-08-20_18h12.32.876,MoralCondition_v2,2022.2.5,29.987066546045362,
2,0,2,0,0,0,0,0,,,,,,,,,,,,,,,,,,,,,,,182.47113340022042,0.00016270019114017487,0.09925589989870787,188.4876774000004,6.01569340005517,188.67109260009602,188.67109260009602,0.09731849981471896,0.1990188998170197,5.999051500111818,194.73780660005286,194.73780660005286,194.73780660005286,0.05148439994081855,0.1658127997070551,200.43774269986898,200.67098770011216,6.032361499965191,6.132628200110048,206.67100880015641,11.999200500082225,206.73777989996597,206.73777989996597,206.77103709988296,206.77103709988296,5.4599717259407043e-05,0.0990486997179687,up,1.5427436996251345,208.37101989984512,2.8300099074840546e-05,0.09871200006455183,214.38774760020897,214.38774760020897,0.01017590006813407,0.11513839988037944,2.0,6.0065387999638915,,,,,,,214.38774760020897,194.73780660005286,194.73780660005286,6.098950199782848,12.099181199911982,,9412,Moral,2024-08-20_18h12.32.876,MoralCondition_v2,2022.2.5,29.987066546045362,
2,0,2,0,1,0,1,0,,,,,,,,,,,,,,,,,,,,,,,,,,,,,,,,,,,,,,,,,,,,,,,,,,,,,,,220.42089480021968,220.42089480021968,0.006800099741667509,0.09924979973584414,2.0,2.226591299753636,,,,,,,,,,,,,9412,Moral,2024-08-20_18h12.32.876,MoralCondition_v2,2022.2.5,29.987066546045362,
2,0,2,0,2,0,2,0,,,,,,,,,,,,,,,,,,,,,,,,,,,,,,,,,,,,,,,,,,,,,,,,,,,,,,,222.68787939986214,222.68787939986214,0.007376499939709902,0.09783919993788004,5.0,9.658495599869639,,,,,,,,,,,,,9412,Moral,2024-08-20_18h12.32.876,MoralCondition_v2,2022.2.5,29.987066546045362,
2,0,2,0,3,0,3,0,,,,,,,,,,,,,,,,,,,,,,,,,,,,,,,,,,,,,,,,,,,,,,,,,,,,,,,232.38768680021167,232.38768680021167,0.007013499736785889,0.09922719979658723,1.0,3.3262788001447916,,,,,,,,,,,,,9412,Moral,2024-08-20_18h12.32.876,MoralCondition_v2,2022.2.5,29.987066546045362,
2,0,2,0,4,0,4,0,,,,,,,,,,,,,,,,,,,,,,,,,,,,,,,,,,,,,,,,,,,,,,,,,,,,,,,235.77124150004238,235.77124150004238,0.009158799890428782,0.11424099979922175,3.0,3.372984499670565,,,,,,,,,,,,,9412,Moral,2024-08-20_18h12.32.876,MoralCondition_v2,2022.2.5,29.987066546045362,
2,0,2,0,5,0,5,0,,,,,,,,,,,,,,,,,,,,,,,,,,,,,,,,,,,,,,,,,,,,,,,,,,,,,,,239.1710719000548,239.1710719000548,0.006862199865281582,0.09913179976865649,1.0,1.4265195997431874,,,,,,,,,,,,,9412,Moral,2024-08-20_18h12.32.876,MoralCondition_v2,2022.2.5,29.987066546045362,
2,0,2,0,6,0,6,0,,,,,,,,,,,,,,,,,,,,,,,,,,,,,,,,,,,,,,,,,,,,,,,,,,,,,,,240.63766139978543,240.63766139978543,0.007097099907696247,0.09907679958269,1.0,2.559883499983698,,,,,,,,,,,,,9412,Moral,2024-08-20_18h12.32.876,MoralCondition_v2,2022.2.5,29.987066546045362,
2,0,2,0,,,,,,,,,,,,,,,,,,,,,,,,,,,,,,,,,,,,,,,,,,,,,,,,,,,,,,,,,,,,,,,,,243.23763780016452,243.23763780016452,0.0018131998367607594,0.09710259968414903,7.0,2.096714500337839,,,,,,,9412,Moral,2024-08-20_18h12.32.876,MoralCondition_v2,2022.2.5,29.987066546045362,
3,0,3,0,0,0,0,0,,,,,,,,,,,,,,,,,,,,,,,245.3710851999931,0.0005271001718938351,0.09685310022905469,251.38771610008553,6.013527000322938,251.55418669991195,251.55418669991195,0.06963980011641979,0.18019280023872852,6.01358800008893,257.6542504997924,257.6542504997924,257.6542504997924,0.07198000000789762,0.1803574999794364,263.3546090000309,263.5543649001047,6.013499899767339,6.113459900021553,269.5543819000013,12.013570200186223,269.6544082001783,269.6544082001783,269.68773679994047,269.68773679994047,0.013711899984627962,0.11342529999092221,down,9.225846400018781,278.9710396002047,5.519995465874672e-05,0.09759419970214367,284.98756959987804,284.98756959987804,0.025286399759352207,0.11426519975066185,5.0,5.95661160023883,,,,,,,,257.5543944002129,257.5543944002129,,,,9412,Moral,2024-08-20_18h12.32.876,MoralCondition_v2,2022.2.5,29.987066546045362,
3,0,3,0,1,0,1,0,,,,,,,,,,,,,,,,,,,,,,,,,,,,,,,,,,,,,,,,,,,,,,,,,,,,,,,291.00465640006587,291.00465640006587,0.007595099974423647,0.11412749998271465,2.0,2.4410648001357913,,,,,,,,,,,,,9412,Moral,2024-08-20_18h12.32.876,MoralCondition_v2,2022.2.5,29.987066546045362,
3,0,3,0,2,0,2,0,,,,,,,,,,,,,,,,,,,,,,,,,,,,,,,,,,,,,,,,,,,,,,,,,,,,,,,293.47101939981803,293.47101939981803,0.006761400029063225,0.0993115003220737,5.0,3.7599918004125357,,,,,,,,,,,,,9412,Moral,2024-08-20_18h12.32.876,MoralCondition_v2,2022.2.5,29.987066546045362,
3,0,3,0,3,0,3,0,,,,,,,,,,,,,,,,,,,,,,,,,,,,,,,,,,,,,,,,,,,,,,,,,,,,,,,297.2709376998246,297.2709376998246,0.007745299953967333,0.0974286999553442,1.0,1.9576189001090825,,,,,,,,,,,,,9412,Moral,2024-08-20_18h12.32.876,MoralCondition_v2,2022.2.5,29.987066546045362,
3,0,3,0,4,0,4,0,,,,,,,,,,,,,,,,,,,,,,,,,,,,,,,,,,,,,,,,,,,,,,,,,,,,,,,299.2711947998032,299.2711947998032,0.006600499618798494,0.09922679979354143,4.0,2.6935033998452127,,,,,,,,,,,,,9412,Moral,2024-08-20_18h12.32.876,MoralCondition_v2,2022.2.5,29.987066546045362,
3,0,3,0,5,0,5,0,,,,,,,,,,,,,,,,,,,,,,,,,,,,,,,,,,,,,,,,,,,,,,,,,,,,,,,302.02122010011226,302.02122010011226,0.008112399838864803,0.11471519991755486,1.0,5.574088799767196,,,,,,,,,,,,,9412,Moral,2024-08-20_18h12.32.876,MoralCondition_v2,2022.2.5,29.987066546045362,
3,0,3,0,6,0,6,0,,,,,,,,,,,,,,,,,,,,,,,,,,,,,,,,,,,,,,,,,,,,,,,,,,,,,,,307.62091870000586,307.62091870000586,0.007337099872529507,0.09766039997339249,4.0,2.191289700102061,,,,,,,,,,,,,9412,Moral,2024-08-20_18h12.32.876,MoralCondition_v2,2022.2.5,29.987066546045362,
3,0,3,0,,,,,,,,,,,,,,,,,,,,,,,,,,,,,,,,,,,,,,,,,,,,,,,,,,,,,,,,,,,,,,,,,309.8545587998815,309.8545587998815,0.00157589977607131,0.09750459995120764,2.0,5.2972554001025856,,,,,,,9412,Moral,2024-08-20_18h12.32.876,MoralCondition_v2,2022.2.5,29.987066546045362,
4,0,4,0,0,0,0,0,,,,,,,,,,,,,,,,,,,,,,,315.1879365001805,0.0003007999621331692,0.0976654002442956,321.1876876000315,6.030803999863565,321.3875056002289,321.3875056002289,0.09015640011057258,0.19746939977630973,6.0307868998497725,327.48764979979023,327.48764979979023,327.48764979979023,0.09634379995986819,0.1975463000126183,333.1877692001872,333.3877149000764,6.030852499883622,6.13079039985314,339.38783980021253,12.030981599818915,339.4877149001695,339.4877149001695,339.5210665999912,339.5210665999912,0.030984099954366684,0.130806399974972,up,0.4407568001188338,340.0210521998815,5.8200210332870483e-05,0.09810660034418106,346.03772309981287,346.03772309981287,0.025824600365012884,0.11461970023810863,5.0,5.089938000310212,,,,,,,,327.3877844000235,327.3877844000235,,,,9412,Moral,2024-08-20_18h12.32.876,MoralCondition_v2,2022.2.5,29.987066546045362,
4,0,4,0,1,0,1,0,,,,,,,,,,,,,,,,,,,,,,,,,,,,,,,,,,,,,,,,,,,,,,,,,,,,,,,351.17108519980684,351.17108519980684,0.007421300280839205,0.0976802003569901,3.0,2.5577941997908056,,,,,,,,,,,,,9412,Moral,2024-08-20_18h12.32.876,MoralCondition_v2,2022.2.5,29.987066546045362,
4,0,4,0,2,0,2,0,,,,,,,,,,,,,,,,,,,,,,,,,,,,,,,,,,,,,,,,,,,,,,,,,,,,,,,353.77122859982774,353.77122859982774,0.00648139975965023,0.09922460000962019,1.0,1.3269829996861517,,,,,,,,,,,,,9412,Moral,2024-08-20_18h12.32.876,MoralCondition_v2,2022.2.5,29.987066546045362,
4,0,4,0,3,0,3,0,,,,,,,,,,,,,,,,,,,,,,,,,,,,,,,,,,,,,,,,,,,,,,,,,,,,,,,355.13772490015253,355.13772490015253,0.007695999927818775,0.09789479989558458,2.0,2.6577668003737926,,,,,,,,,,,,,9412,Moral,2024-08-20_18h12.32.876,MoralCondition_v2,2022.2.5,29.987066546045362,
4,0,4,0,4,0,4,0,,,,,,,,,,,,,,,,,,,,,,,,,,,,,,,,,,,,,,,,,,,,,,,,,,,,,,,357.85459910007194,357.85459910007194,0.007721399888396263,0.114138999953866,1.0,1.1074439999647439,,,,,,,,,,,,,9412,Moral,2024-08-20_18h12.32.876,MoralCondition_v2,2022.2.5,29.987066546045362,
4,0,4,0,5,0,5,0,,,,,,,,,,,,,,,,,,,,,,,,,,,,,,,,,,,,,,,,,,,,,,,,,,,,,,,358.9876252999529,358.9876252999529,0.006713099777698517,0.09934639977291226,1.0,0.9935161001048982,,,,,,,,,,,,,9412,Moral,2024-08-20_18h12.32.876,MoralCondition_v2,2022.2.5,29.987066546045362,
4,0,4,0,6,0,6,0,,,,,,,,,,,,,,,,,,,,,,,,,,,,,,,,,,,,,,,,,,,,,,,,,,,,,,,360.0211451998912,360.0211451998912,0.009064600337296724,0.09790829988196492,1.0,2.4565365999005735,,,,,,,,,,,,,9412,Moral,2024-08-20_18h12.32.876,MoralCondition_v2,2022.2.5,29.987066546045362,
4,0,4,0,,,,,,,,,,,,,,,,,,,,,,,,,,,,,,,,,,,,,,,,,,,,,,,,,,,,,,,,,,,,,,,,,362.5211604000069,362.5211604000069,0.0013357000425457954,0.09843949973583221,7.0,3.831746000330895,,,,,,,9412,Moral,2024-08-20_18h12.32.876,MoralCondition_v2,2022.2.5,29.987066546045362,
5,0,5,0,0,0,0,0,,,,,,,,,,,,,,,,,,,,,,,366.3879609000869,0.00020880019292235374,0.09851799998432398,372.40439169993624,6.015198600012809,372.5710132000968,372.5710132000968,0.07577059976756573,0.18220579996705055,6.015356199815869,378.6708748000674,378.6708748000674,378.6708748000674,0.07468240009620786,0.18190379999578,384.3711910001002,384.57105439994484,6.015242699999362,6.115276399999857,390.5710569000803,12.0152439000085,390.6710475999862,390.6710475999862,390.70442580012605,390.70442580012605,0.015397300012409687,0.11520259967073798,up,0.4814142002724111,391.2210145997815,1.9799917936325073e-05,0.09920889977365732,397.2545444997959,397.2545444997959,0.02620009984821081,0.13258299976587296,5.0,4.97407259978354,,,,,,,,378.5710486001335,378.5710486001335,,,,9412,Moral,2024-08-20_18h12.32.876,MoralCondition_v2,2022.2.5,29.987066546045362,
5,0,5,0,1,0,1,0,,,,,,,,,,,,,,,,,,,,,,,,,,,,,,,,,,,,,,,,,,,,,,,,,,,,,,,402.2544908998534,402.2544908998534,0.008995700161904097,0.09830950014293194,5.0,1.8237716001458466,,,,,,,,,,,,,9412,Moral,2024-08-20_18h12.32.876,MoralCondition_v2,2022.2.5,29.987066546045362,
5,0,5,0,2,0,2,0,,,,,,,,,,,,,,,,,,,,,,,,,,,,,,,,,,,,,,,,,,,,,,,,,,,,,,,404.1209770999849,404.1209770999849,0.007979100104421377,0.09899750025942922,4.0,3.392038300167769,,,,,,,,,,,,,9412,Moral,2024-08-20_18h12.32.876,MoralCondition_v2,2022.2.5,29.987066546045362,
5,0,5,0,3,0,3,0,,,,,,,,,,,,,,,,,,,,,,,,,,,,,,,,,,,,,,,,,,,,,,,,,,,,,,,407.55445449985564,407.55445449985564,0.007189000025391579,0.09802519995719194,2.0,4.4585878001526,,,,,,,,,,,,,9412,Moral,2024-08-20_18h12.32.876,MoralCondition_v2,2022.2.5,29.987066546045362,
5,0,5,0,4,0,4,0,,,,,,,,,,,,,,,,,,,,,,,,,,,,,,,,,,,,,,,,,,,,,,,,,,,,,,,412.05440849997103,412.05440849997103,0.006583999842405319,0.099240199662745,2.0,1.660267099738121,,,,,,,,,,,,,9412,Moral,2024-08-20_18h12.32.876,MoralCondition_v2,2022.2.5,29.987066546045362,
5,0,5,0,5,0,5,0,,,,,,,,,,,,,,,,,,,,,,,,,,,,,,,,,,,,,,,,,,,,,,,,,,,,,,,413.75436979997903,413.75436979997903,0.008567700162529945,0.09909729985520244,2.0,1.6248578997328877,,,,,,,,,,,,,9412,Moral,2024-08-20_18h12.32.876,MoralCondition_v2,2022.2.5,29.987066546045362,
5,0,5,0,6,0,6,0,,,,,,,,,,,,,,,,,,,,,,,,,,,,,,,,,,,,,,,,,,,,,,,,,,,,,,,415.42083350010216,415.42083350010216,0.007747899740934372,0.09805200016126037,1.0,1.3245720001868904,,,,,,,,,,,,,9412,Moral,2024-08-20_18h12.32.876,MoralCondition_v2,2022.2.5,29.987066546045362,
5,0,5,0,,,,,,,,,,,,,,,,,,,,,,,,,,,,,,,,,,,,,,,,,,,,,,,,,,,,,,,,,,,,,,,,,416.78771399986,416.78771399986,0.0013282997533679008,0.09775419998914003,7.0,3.964056400116533,,,,,,,9412,Moral,2024-08-20_18h12.32.876,MoralCondition_v2,2022.2.5,29.987066546045362,
6,0,6,0,0,0,0,0,,,,,,,,,,,,,,,,,,,,,,,420.78791050007567,0.00028460007160902023,0.09772279998287559,426.80436450010166,6.014246500097215,426.9710379000753,426.9710379000753,0.07743659988045692,0.1810052995570004,6.014437199570239,433.07102379994467,433.07102379994467,433.07102379994467,0.07733779959380627,0.18102099979296327,438.7710011000745,438.97087759990245,6.0141162998043,6.114262999501079,444.971103399992,12.014389999676496,445.0711058001034,445.0711058001034,445.10434649977833,445.10434649977833,0.014594399370253086,0.11434069974347949,up,3.4969450002536178,448.6377066001296,4.0699727833271027e-05,0.09778330009430647,454.65418549999595,454.65418549999595,0.025976500008255243,0.11467269994318485,3.0,4.822915700264275,,,,,,,,432.97101109987125,432.97101109987125,,,,9412,Moral,2024-08-20_18h12.32.876,MoralCondition_v2,2022.2.5,29.987066546045362,
6,0,6,0,1,0,1,0,,,,,,,,,,,,,,,,,,,,,,,,,,,,,,,,,,,,,,,,,,,,,,,,,,,,,,,459.5378608000465,459.5378608000465,0.008377599995583296,0.11423060018569231,4.0,3.4401309001259506,,,,,,,,,,,,,9412,Moral,2024-08-20_18h12.32.876,MoralCondition_v2,2022.2.5,29.987066546045362,
6,0,6,0,2,0,2,0,,,,,,,,,,,,,,,,,,,,,,,,,,,,,,,,,,,,,,,,,,,,,,,,,,,,,,,463.00439199991524,463.00439199991524,0.008493900299072266,0.0981443002820015,2.0,2.357159100007266,,,,,,,,,,,,,9412,Moral,2024-08-20_18h12.32.876,MoralCondition_v2,2022.2.5,29.987066546045362,
6,0,6,0,3,0,3,0,,,,,,,,,,,,,,,,,,,,,,,,,,,,,,,,,,,,,,,,,,,,,,,,,,,,,,,465.4042481998913,465.4042481998913,0.008011799771338701,0.0979395997710526,1.0,1.92420390015468,,,,,,,,,,,,,9412,Moral,2024-08-20_18h12.32.876,MoralCondition_v2,2022.2.5,29.987066546045362,
6,0,6,0,4,0,4,0,,,,,,,,,,,,,,,,,,,,,,,,,,,,,,,,,,,,,,,,,,,,,,,,,,,,,,,467.3880654000677,467.3880654000677,0.008376399986445904,0.11400950001552701,5.0,1.9732813998125494,,,,,,,,,,,,,9412,Moral,2024-08-20_18h12.32.876,MoralCondition_v2,2022.2.5,29.987066546045362,
6,0,6,0,5,0,5,0,,,,,,,,,,,,,,,,,,,,,,,,,,,,,,,,,,,,,,,,,,,,,,,,,,,,,,,469.40452879993245,469.40452879993245,0.008365499787032604,0.11420329986140132,5.0,1.8735821000300348,,,,,,,,,,,,,9412,Moral,2024-08-20_18h12.32.876,MoralCondition_v2,2022.2.5,29.987066546045362,
6,0,6,0,6,0,6,0,,,,,,,,,,,,,,,,,,,,,,,,,,,,,,,,,,,,,,,,,,,,,,,,,,,,,,,471.30426520016044,471.30426520016044,0.006874099839478731,0.09920720010995865,2.0,3.1267825001850724,,,,,,,,,,,,,9412,Moral,2024-08-20_18h12.32.876,MoralCondition_v2,2022.2.5,29.987066546045362,
6,0,6,0,,,,,,,,,,,,,,,,,,,,,,,,,,,,,,,,,,,,,,,,,,,,,,,,,,,,,,,,,,,,,,,,,474.47108589997515,474.47108589997515,0.0020798002369701862,0.0974150002002716,3.0,4.36310139996931,,,,,,,9412,Moral,2024-08-20_18h12.32.876,MoralCondition_v2,2022.2.5,29.987066546045362,
7,0,7,0,0,0,0,0,,,,,,,,,,,,,,,,,,,,,,,478.87114100018516,0.0002505001612007618,0.09793440019711852,484.87108850013465,6.0314833000302315,485.071017799899,485.071017799899,0.08847999991849065,0.19811390014365315,6.032221099827439,491.17093290016055,491.17093290016055,491.17093290016055,0.08520739991217852,0.19817139999940991,496.8710993998684,497.07098970003426,6.03138169972226,6.131548299919814,503.0709538999945,12.031336599960923,503.17091599991545,503.17091599991545,503.2042526998557,503.2042526998557,0.031473399605602026,0.131315799895674,up,0.6130499998107553,503.85427869996056,3.279978409409523e-05,0.09817849984392524,509.88754160003737,509.88754160003737,0.02585899969562888,0.13145799981430173,5.0,3.3733100001700222,,,,,,,,491.07111159991473,491.07111159991473,,,,9412,Moral,2024-08-20_18h12.32.876,MoralCondition_v2,2022.2.5,29.987066546045362,
7,0,7,0,1,0,1,0,,,,,,,,,,,,,,,,,,,,,,,,,,,,,,,,,,,,,,,,,,,,,,,,,,,,,,,513.2876666001976,513.2876666001976,0.006627699825912714,0.09934849990531802,1.0,2.9600945999845862,,,,,,,,,,,,,9412,Moral,2024-08-20_18h12.32.876,MoralCondition_v2,2022.2.5,29.987066546045362,
7,0,7,0,2,0,2,0,,,,,,,,,,,,,,,,,,,,,,,,,,,,,,,,,,,,,,,,,,,,,,,,,,,,,,,516.2873916998506,516.2873916998506,0.006679299753159285,0.0991734997369349,1.0,1.726619299966842,,,,,,,,,,,,,9412,Moral,2024-08-20_18h12.32.876,MoralCondition_v2,2022.2.5,29.987066546045362,
7,0,7,0,3,0,3,0,,,,,,,,,,,,,,,,,,,,,,,,,,,,,,,,,,,,,,,,,,,,,,,,,,,,,,,518.0712016997859,518.0712016997859,0.00788960000500083,0.11432569986209273,2.0,1.1076001999899745,,,,,,,,,,,,,9412,Moral,2024-08-20_18h12.32.876,MoralCondition_v2,2022.2.5,29.987066546045362,
7,0,7,0,4,0,4,0,,,,,,,,,,,,,,,,,,,,,,,,,,,,,,,,,,,,,,,,,,,,,,,,,,,,,,,519.2041036998853,519.2041036998853,0.00762399984523654,0.0989671996794641,2.0,2.525645100045949,,,,,,,,,,,,,9412,Moral,2024-08-20_18h12.32.876,MoralCondition_v2,2022.2.5,29.987066546045362,
7,0,7,0,5,0,5,0,,,,,,,,,,,,,,,,,,,,,,,,,,,,,,,,,,,,,,,,,,,,,,,,,,,,,,,521.7709897002205,521.7709897002205,0.007424899842590094,0.09807579964399338,2.0,2.4583397996611893,,,,,,,,,,,,,9412,Moral,2024-08-20_18h12.32.876,MoralCondition_v2,2022.2.5,29.987066546045362,
7,0,7,0,6,0,6,0,,,,,,,,,,,,,,,,,,,,,,,,,,,,,,,,,,,,,,,,,,,,,,,,,,,,,,,524.2708686999977,524.2708686999977,0.006472900044173002,0.0988501999527216,3.0,1.793629199732095,,,,,,,,,,,,,9412,Moral,2024-08-20_18h12.32.876,MoralCondition_v2,2022.2.5,29.987066546045362,
7,0,7,0,,,,,,,,,,,,,,,,,,,,,,,,,,,,,,,,,,,,,,,,,,,,,,,,,,,,,,,,,,,,,,,,,526.1045253002085,526.1045253002085,0.0012894999235868454,0.0985046997666359,7.0,1.965204100124538,,,,,,,9412,Moral,2024-08-20_18h12.32.876,MoralCondition_v2,2022.2.5,29.987066546045362,
8,0,8,0,0,0,0,0,,,,,,,,,,,,,,,,,,,,,,,528.1042120000347,0.0005265004001557827,0.09722930006682873,534.1208807998337,6.014026400167495,534.3040958000347,534.3040958000347,0.09216560004279017,0.1972137000411749,6.030550300143659,540.4042941997759,540.4042941997759,540.4042941997759,0.08956220000982285,0.19747330015525222,546.1042410000227,546.3042031000368,6.030751000158489,6.1304878001101315,552.3043257999234,12.030719100032002,552.4041778999381,552.4041778999381,552.4375601001084,552.4375601001084,0.030704499687999487,0.13054100004956126,up,3.324182900134474,555.804177199956,3.439979627728462e-05,0.09769580001011491,561.8042031000368,561.8042031000368,0.006401199847459793,0.09810449974611402,5.0,2.5259147002361715,,,,,,,561.8042031000368,540.3042092998512,540.3042092998512,,,,9412,Moral,2024-08-20_18h12.32.876,MoralCondition_v2,2022.2.5,29.987066546045362,
8,0,8,0,1,0,1,0,,,,,,,,,,,,,,,,,,,,,,,,,,,,,,,,,,,,,,,,,,,,,,,,,,,,,,,564.3708954998292,564.3708954998292,0.008006100077182055,0.09745020000264049,4.0,3.657283400185406,,,,,,,,,,,,,9412,Moral,2024-08-20_18h12.32.876,MoralCondition_v2,2022.2.5,29.987066546045362,
8,0,8,0,2,0,2,0,,,,,,,,,,,,,,,,,,,,,,,,,,,,,,,,,,,,,,,,,,,,,,,,,,,,,,,568.0708516999148,568.0708516999148,0.0063683995977044106,0.09901119954884052,1.0,3.4270776999183,,,,,,,,,,,,,9412,Moral,2024-08-20_18h12.32.876,MoralCondition_v2,2022.2.5,29.987066546045362,
8,0,8,0,3,0,3,0,,,,,,,,,,,,,,,,,,,,,,,,,,,,,,,,,,,,,,,,,,,,,,,,,,,,,,,571.5375061999075,571.5375061999075,0.006538699846714735,0.09928559977561235,6.0,1.6935091000050306,,,,,,,,,,,,,9412,Moral,2024-08-20_18h12.32.876,MoralCondition_v2,2022.2.5,29.987066546045362,
8,0,8,0,4,0,4,0,,,,,,,,,,,,,,,,,,,,,,,,,,,,,,,,,,,,,,,,,,,,,,,,,,,,,,,573.2876503001899,573.2876503001899,0.008237399626523256,0.11439129989594221,2.0,1.7074456000700593,,,,,,,,,,,,,9412,Moral,2024-08-20_18h12.32.876,MoralCondition_v2,2022.2.5,29.987066546045362,
8,0,8,0,5,0,5,0,,,,,,,,,,,,,,,,,,,,,,,,,,,,,,,,,,,,,,,,,,,,,,,,,,,,,,,575.0208395998925,575.0208395998925,0.006770499981939793,0.0991797000169754,2.0,2.9601469999179244,,,,,,,,,,,,,9412,Moral,2024-08-20_18h12.32.876,MoralCondition_v2,2022.2.5,29.987066546045362,
8,0,8,0,6,0,6,0,,,,,,,,,,,,,,,,,,,,,,,,,,,,,,,,,,,,,,,,,,,,,,,,,,,,,,,578.0208116997965,578.0208116997965,0.0076917000114917755,0.09773969976231456,5.0,4.757768800016493,,,,,,,,,,,,,9412,Moral,2024-08-20_18h12.32.876,MoralCondition_v2,2022.2.5,29.987066546045362,
8,0,8,0,,,,,,,,,,,,,,,,,,,,,,,,,,,,,,,,,,,,,,,,,,,,,,,,,,,,,,,,,,,,,,,,,582.8208480998874,582.8208480998874,0.0007116999477148056,0.09912579972296953,2.0,5.366574800107628,,,,,,,9412,Moral,2024-08-20_18h12.32.876,MoralCondition_v2,2022.2.5,29.987066546045362,
9,0,9,0,0,0,0,0,,,,,,,,,,,,,,,,,,,,,,,588.2209013998508,0.00035140011459589005,0.09747540019452572,594.2375063998625,6.013999099843204,594.4042726000771,594.4042726000771,0.07031039986759424,0.18085910007357597,6.013971299864352,600.5042465999722,600.5042465999722,600.5042465999722,0.06873920001089573,0.18086700001731515,606.2041031001136,606.4040962001309,6.014021500013769,6.113980299793184,612.404080899898,12.013996599707752,612.5040791998617,612.5040791998617,612.5374229000881,612.5374229000881,0.014153599739074707,0.11395469959825277,up,0.4164820001460612,613.0040567000397,3.54996882379055e-05,0.09803139977157116,619.0206908001564,619.0206908001564,0.02463010000064969,0.11454339977353811,1.0,2.2911139000207186,,,,,,,,600.4042488001287,600.4042488001287,,,,9412,Moral,2024-08-20_18h12.32.876,MoralCondition_v2,2022.2.5,29.987066546045362,
9,0,9,0,1,0,1,0,,,,,,,,,,,,,,,,,,,,,,,,,,,,,,,,,,,,,,,,,,,,,,,,,,,,,,,621.35399639979,621.35399639979,0.007437099702656269,0.09916189964860678,1.0,0.8595714000985026,,,,,,,,,,,,,9412,Moral,2024-08-20_18h12.32.876,MoralCondition_v2,2022.2.5,29.987066546045362,
9,0,9,0,2,0,2,0,,,,,,,,,,,,,,,,,,,,,,,,,,,,,,,,,,,,,,,,,,,,,,,,,,,,,,,622.2707560998388,622.2707560998388,0.007775099948048592,0.11417900025844574,3.0,2.6406620000489056,,,,,,,,,,,,,9412,Moral,2024-08-20_18h12.32.876,MoralCondition_v2,2022.2.5,29.987066546045362,
9,0,9,0,3,0,3,0,,,,,,,,,,,,,,,,,,,,,,,,,,,,,,,,,,,,,,,,,,,,,,,,,,,,,,,624.9373073000461,624.9373073000461,0.0077840001322329044,0.09793499996885657,5.0,1.7578668999485672,,,,,,,,,,,,,9412,Moral,2024-08-20_18h12.32.876,MoralCondition_v2,2022.2.5,29.987066546045362,
9,0,9,0,4,0,4,0,,,,,,,,,,,,,,,,,,,,,,,,,,,,,,,,,,,,,,,,,,,,,,,,,,,,,,,626.7372348001227,626.7372348001227,0.0065449997782707214,0.09922269964590669,2.0,4.060247399844229,,,,,,,,,,,,,9412,Moral,2024-08-20_18h12.32.876,MoralCondition_v2,2022.2.5,29.987066546045362,
9,0,9,0,5,0,5,0,,,,,,,,,,,,,,,,,,,,,,,,,,,,,,,,,,,,,,,,,,,,,,,,,,,,,,,630.8376155002043,630.8376155002043,0.007409200072288513,0.09816430043429136,2.0,2.0585298002697527,,,,,,,,,,,,,9412,Moral,2024-08-20_18h12.32.876,MoralCondition_v2,2022.2.5,29.987066546045362,
9,0,9,0,6,0,6,0,,,,,,,,,,,,,,,,,,,,,,,,,,,,,,,,,,,,,,,,,,,,,,,,,,,,,,,632.9372820002027,632.9372820002027,0.007102500181645155,0.09917449997738004,2.0,2.3598791998811066,,,,,,,,,,,,,9412,Moral,2024-08-20_18h12.32.876,MoralCondition_v2,2022.2.5,29.987066546045362,
9,0,9,0,,,,,,,,,,,,,,,,,,,,,,,,,,,,,,,,,,,,,,,,,,,,,,,,,,,,,,,,,,,,,,,,,635.3373921997845,635.3373921997845,0.0015938002616167068,0.09784820023924112,7.0,1.4638672000728548,,,,,,,9412,Moral,2024-08-20_18h12.32.876,MoralCondition_v2,2022.2.5,29.987066546045362,
10,0,10,0,0,0,0,0,,,,,,,,,,,,,,,,,,,,,,,636.8374163000844,0.00034580007195472717,0.09775400022044778,642.8373222998343,6.031003000214696,643.0374218998477,643.0374218998477,0.08569419989362359,0.19784929975867271,6.030953600071371,649.1374534000643,649.1374534000643,649.1374534000643,0.08547469973564148,0.19784379983320832,654.8372816001065,655.0372750000097,6.0309399999678135,6.131054199766368,661.037269399967,12.030981899704784,661.1373013001867,661.1373013001867,661.1705581001006,661.1705581001006,0.03114349953830242,0.13101679971441627,down,2.0390084995888174,663.2540190001018,3.929995000362396e-05,0.09781849989667535,669.2874469999224,669.2874469999224,0.026131699793040752,0.13133609993383288,1.0,5.406167900189757,,,,,,,,649.0373169002123,649.0373169002123,,,,9412,Moral,2024-08-20_18h12.32.876,MoralCondition_v2,2022.2.5,29.987066546045362,
10,0,10,0,1,0,1,0,,,,,,,,,,,,,,,,,,,,,,,,,,,,,,,,,,,,,,,,,,,,,,,,,,,,,,,674.7374688000418,674.7374688000418,0.008634199853986502,0.11463580001145601,6.0,2.77385489968583,,,,,,,,,,,,,9412,Moral,2024-08-20_18h12.32.876,MoralCondition_v2,2022.2.5,29.987066546045362,
10,0,10,0,2,0,2,0,,,,,,,,,,,,,,,,,,,,,,,,,,,,,,,,,,,,,,,,,,,,,,,,,,,,,,,677.5372433001176,677.5372433001176,0.006733499933034182,0.09920579986646771,5.0,4.293657199945301,,,,,,,,,,,,,9412,Moral,2024-08-20_18h12.32.876,MoralCondition_v2,2022.2.5,29.987066546045362,
10,0,10,0,3,0,3,0,,,,,,,,,,,,,,,,,,,,,,,,,,,,,,,,,,,,,,,,,,,,,,,,,,,,,,,681.8874317998998,681.8874317998998,0.008317600004374981,0.1143617001362145,3.0,2.9403621000237763,,,,,,,,,,,,,9412,Moral,2024-08-20_18h12.32.876,MoralCondition_v2,2022.2.5,29.987066546045362,
10,0,10,0,4,0,4,0,,,,,,,,,,,,,,,,,,,,,,,,,,,,,,,,,,,,,,,,,,,,,,,,,,,,,,,684.853925799951,684.853925799951,0.0075206998735666275,0.09807399986311793,1.0,2.158187000080943,,,,,,,,,,,,,9412,Moral,2024-08-20_18h12.32.876,MoralCondition_v2,2022.2.5,29.987066546045362,
10,0,10,0,5,0,5,0,,,,,,,,,,,,,,,,,,,,,,,,,,,,,,,,,,,,,,,,,,,,,,,,,,,,,,,687.0540347001515,687.0540347001515,0.007781199645251036,0.09735469985753298,1.0,2.0904490002430975,,,,,,,,,,,,,9412,Moral,2024-08-20_18h12.32.876,MoralCondition_v2,2022.2.5,29.987066546045362,
10,0,10,0,6,0,6,0,,,,,,,,,,,,,,,,,,,,,,,,,,,,,,,,,,,,,,,,,,,,,,,,,,,,,,,689.1874322998337,689.1874322998337,0.007552700117230415,0.09774779994040728,1.0,1.5580078000202775,,,,,,,,,,,,,9412,Moral,2024-08-20_18h12.32.876,MoralCondition_v2,2022.2.5,29.987066546045362,
10,0,10,0,,,,,,,,,,,,,,,,,,,,,,,,,,,,,,,,,,,,,,,,,,,,,,,,,,,,,,,,,,,,,,,,,690.7875040997751,690.7875040997751,0.0013935999013483524,0.09721479984000325,2.0,4.097425700165331,,,,,,,9412,Moral,2024-08-20_18h12.32.876,MoralCondition_v2,2022.2.5,29.987066546045362,
11,0,11,0,0,0,0,0,,,,,,,,,,,,,,,,,,,,,,,694.9206786002032,0.00034369993954896927,0.09806470014154911,700.9372219000943,6.01464070007205,701.1039736000821,701.1039736000821,0.07140409993007779,0.18147660000249743,6.014613999985158,707.2039291998371,707.2039291998371,707.2039291998371,0.0710452999919653,0.18155269976705313,712.9038232001476,713.1038069999777,6.014665599912405,6.1148052997887135,719.1038056001998,12.01466349978,719.2037901999429,719.2037901999429,719.2370473002084,719.2370473002084,0.014784999657422304,0.11437699990347028,up,1.4924261001870036,720.787154099904,4.829978570342064e-05,0.09792539989575744,726.787459500134,726.787459500134,0.008995899930596352,0.09777779970318079,1.0,3.3567122002132237,,,,,,,726.787459500134,707.1038227002136,707.1038227002136,,,,9412,Moral,2024-08-20_18h12.32.876,MoralCondition_v2,2022.2.5,29.987066546045362,
11,0,11,0,1,0,1,0,,,,,,,,,,,,,,,,,,,,,,,,,,,,,,,,,,,,,,,,,,,,,,,,,,,,,,,730.187193099875,730.187193099875,0.00760939996689558,0.09675929974764585,4.0,4.023508499842137,,,,,,,,,,,,,9412,Moral,2024-08-20_18h12.32.876,MoralCondition_v2,2022.2.5,29.987066546045362,
11,0,11,0,2,0,2,0,,,,,,,,,,,,,,,,,,,,,,,,,,,,,,,,,,,,,,,,,,,,,,,,,,,,,,,734.2537332000211,734.2537332000211,0.007520399987697601,0.09790389984846115,4.0,2.1246783998794854,,,,,,,,,,,,,9412,Moral,2024-08-20_18h12.32.876,MoralCondition_v2,2022.2.5,29.987066546045362,
11,0,11,0,3,0,3,0,,,,,,,,,,,,,,,,,,,,,,,,,,,,,,,,,,,,,,,,,,,,,,,,,,,,,,,736.4205836001784,736.4205836001784,0.006331899669021368,0.09945929981768131,2.0,2.794266500044614,,,,,,,,,,,,,9412,Moral,2024-08-20_18h12.32.876,MoralCondition_v2,2022.2.5,29.987066546045362,
11,0,11,0,4,0,4,0,,,,,,,,,,,,,,,,,,,,,,,,,,,,,,,,,,,,,,,,,,,,,,,,,,,,,,,739.2707321997732,739.2707321997732,0.00827829958871007,0.11418899986892939,2.0,2.2068270999006927,,,,,,,,,,,,,9412,Moral,2024-08-20_18h12.32.876,MoralCondition_v2,2022.2.5,29.987066546045362,
11,0,11,0,5,0,5,0,,,,,,,,,,,,,,,,,,,,,,,,,,,,,,,,,,,,,,,,,,,,,,,,,,,,,,,741.5038886000402,741.5038886000402,0.007258299738168716,0.09923189971596003,5.0,5.793229300063103,,,,,,,,,,,,,9412,Moral,2024-08-20_18h12.32.876,MoralCondition_v2,2022.2.5,29.987066546045362,
11,0,11,0,6,0,6,0,,,,,,,,,,,,,,,,,,,,,,,,,,,,,,,,,,,,,,,,,,,,,,,,,,,,,,,747.3539749998599,747.3539749998599,0.008456300012767315,0.11454529967159033,2.0,3.040392199996859,,,,,,,,,,,,,9412,Moral,2024-08-20_18h12.32.876,MoralCondition_v2,2022.2.5,29.987066546045362,
11,0,11,0,,,,,,,,,,,,,,,,,,,,,,,,,,,,,,,,,,,,,,,,,,,,,,,,,,,,,,,,,,,,,,,,,750.4204841000028,750.4204841000028,0.001362999901175499,0.0977905998006463,7.0,2.697684200014919,,,,,,,9412,Moral,2024-08-20_18h12.32.876,MoralCondition_v2,2022.2.5,29.987066546045362,
12,0,12,0,0,0,0,0,,,,,,,,,,,,,,,,,,,,,,,753.1540887998417,0.0003076000139117241,0.09823210025206208,759.1703571998514,6.01470459997654,759.3373207999393,759.3373207999393,0.07649540016427636,0.18141310010105371,6.014705399982631,765.437102700118,765.437102700118,765.437102700118,0.07303979992866516,0.18170889979228377,771.1370711000636,771.3369955001399,6.014720200095326,6.114685999695212,777.3371748998761,12.014898099936545,777.4370102998801,777.4370102998801,777.4704599999823,777.4704599999823,0.014900299720466137,0.11467159958556294,up,0.6914539998397231,778.2036871998571,2.9200222343206406e-05,0.0986255002208054,784.2206365000457,784.2206365000457,0.010110300034284592,0.11517499992623925,5.0,5.639790799934417,,,,,,,784.2206365000457,765.3202101001516,765.3202101001516,,,,9412,Moral,2024-08-20_18h12.32.876,MoralCondition_v2,2022.2.5,29.987066546045362,
12,0,12,0,1,0,1,0,,,,,,,,,,,,,,,,,,,,,,,,,,,,,,,,,,,,,,,,,,,,,,,,,,,,,,,789.8872535000555,789.8872535000555,0.006642799824476242,0.09895050013437867,5.0,1.6934019001200795,,,,,,,,,,,,,9412,Moral,2024-08-20_18h12.32.876,MoralCondition_v2,2022.2.5,29.987066546045362,
12,0,12,0,2,0,2,0,,,,,,,,,,,,,,,,,,,,,,,,,,,,,,,,,,,,,,,,,,,,,,,,,,,,,,,791.6203912999481,791.6203912999481,0.007047200109809637,0.09926389995962381,2.0,2.4929075995460153,,,,,,,,,,,,,9412,Moral,2024-08-20_18h12.32.876,MoralCondition_v2,2022.2.5,29.987066546045362,
12,0,12,0,3,0,3,0,,,,,,,,,,,,,,,,,,,,,,,,,,,,,,,,,,,,,,,,,,,,,,,,,,,,,,,794.1537309000269,794.1537309000269,0.007499100174754858,0.09770449995994568,2.0,1.3578029000200331,,,,,,,,,,,,,9412,Moral,2024-08-20_18h12.32.876,MoralCondition_v2,2022.2.5,29.987066546045362,
12,0,12,0,4,0,4,0,,,,,,,,,,,,,,,,,,,,,,,,,,,,,,,,,,,,,,,,,,,,,,,,,,,,,,,795.5704832999036,795.5704832999036,0.007695200387388468,0.11440080031752586,2.0,1.3078123000450432,,,,,,,,,,,,,9412,Moral,2024-08-20_18h12.32.876,MoralCondition_v2,2022.2.5,29.987066546045362,
12,0,12,0,5,0,5,0,,,,,,,,,,,,,,,,,,,,,,,,,,,,,,,,,,,,,,,,,,,,,,,,,,,,,,,796.9034673999995,796.9034673999995,0.0075530000030994415,0.09784139972180128,3.0,2.7246434995904565,,,,,,,,,,,,,9412,Moral,2024-08-20_18h12.32.876,MoralCondition_v2,2022.2.5,29.987066546045362,
12,0,12,0,6,0,6,0,,,,,,,,,,,,,,,,,,,,,,,,,,,,,,,,,,,,,,,,,,,,,,,,,,,,,,,799.6701495000161,799.6701495000161,0.006639400031417608,0.09921450028195977,1.0,1.126882900018245,,,,,,,,,,,,,9412,Moral,2024-08-20_18h12.32.876,MoralCondition_v2,2022.2.5,29.987066546045362,
12,0,12,0,,,,,,,,,,,,,,,,,,,,,,,,,,,,,,,,,,,,,,,,,,,,,,,,,,,,,,,,,,,,,,,,,800.8369205999188,800.8369205999188,0.0012897998094558716,0.0977476998232305,7.0,2.1643297001719475,,,,,,,9412,Moral,2024-08-20_18h12.32.876,MoralCondition_v2,2022.2.5,29.987066546045362,
13,0,13,0,0,0,0,0,,,,,,,,,,,,,,,,,,,,,,,803.037191499956,0.00043160002678632736,0.09729130007326603,809.0201012999751,6.01382050011307,809.203470100183,809.203470100183,0.050884599797427654,0.16395159997045994,6.030637999996543,815.3367996001616,815.3367996001616,815.3367996001616,0.0856067999266088,0.19747389992699027,821.0369298998266,821.2368923998438,6.030649999622256,6.130864599719644,827.2368919001892,12.030642599798739,827.336908900179,827.336908900179,827.3702238998376,827.3702238998376,0.030830399598926306,0.13059089938178658,down,4.0715014999732375,831.5035656997934,4.4899992644786835e-05,0.09792059985920787,837.5532949999906,837.5532949999906,0.006964100059121847,0.14811960002407432,5.0,3.0919424002058804,,,,,,,837.5532949999906,815.2037141001783,815.2037141001783,,,6.097260999958962,9412,Moral,2024-08-20_18h12.32.876,MoralCondition_v2,2022.2.5,29.987066546045362,
13,0,13,0,1,0,1,0,,,,,,,,,,,,,,,,,,,,,,,,,,,,,,,,,,,,,,,,,,,,,,,,,,,,,,,840.6368510997854,840.6368510997854,0.0063115996308624744,0.09930289955809712,1.0,1.6273350003175437,,,,,,,,,,,,,9412,Moral,2024-08-20_18h12.32.876,MoralCondition_v2,2022.2.5,29.987066546045362,
13,0,13,0,2,0,2,0,,,,,,,,,,,,,,,,,,,,,,,,,,,,,,,,,,,,,,,,,,,,,,,,,,,,,,,842.3036715998314,842.3036715998314,0.006511799991130829,0.09896000009030104,4.0,2.4268170003779233,,,,,,,,,,,,,9412,Moral,2024-08-20_18h12.32.876,MoralCondition_v2,2022.2.5,29.987066546045362,
13,0,13,0,3,0,3,0,,,,,,,,,,,,,,,,,,,,,,,,,,,,,,,,,,,,,,,,,,,,,,,,,,,,,,,844.7871726001613,844.7871726001613,0.008957299869507551,0.11432750010862947,5.0,1.4729916001670063,,,,,,,,,,,,,9412,Moral,2024-08-20_18h12.32.876,MoralCondition_v2,2022.2.5,29.987066546045362,
13,0,13,0,4,0,4,0,,,,,,,,,,,,,,,,,,,,,,,,,,,,,,,,,,,,,,,,,,,,,,,,,,,,,,,846.2870221999474,846.2870221999474,0.006575899664312601,0.0991980996914208,2.0,1.4933994999155402,,,,,,,,,,,,,9412,Moral,2024-08-20_18h12.32.876,MoralCondition_v2,2022.2.5,29.987066546045362,
13,0,13,0,5,0,5,0,,,,,,,,,,,,,,,,,,,,,,,,,,,,,,,,,,,,,,,,,,,,,,,,,,,,,,,847.8202027999796,847.8202027999796,0.007214500103145838,0.0990744000300765,2.0,0.6929552000947297,,,,,,,,,,,,,9412,Moral,2024-08-20_18h12.32.876,MoralCondition_v2,2022.2.5,29.987066546045362,
13,0,13,0,6,0,6,0,,,,,,,,,,,,,,,,,,,,,,,,,,,,,,,,,,,,,,,,,,,,,,,,,,,,,,,848.5536631997675,848.5536631997675,0.0077229999005794525,0.0975004998035729,6.0,2.2572066001594067,,,,,,,,,,,,,9412,Moral,2024-08-20_18h12.32.876,MoralCondition_v2,2022.2.5,29.987066546045362,
13,0,13,0,,,,,,,,,,,,,,,,,,,,,,,,,,,,,,,,,,,,,,,,,,,,,,,,,,,,,,,,,,,,,,,,,850.853512799833,850.853512799833,0.001332900021225214,0.0989648001268506,2.0,4.132299900054932,,,,,,,9412,Moral,2024-08-20_18h12.32.876,MoralCondition_v2,2022.2.5,29.987066546045362,
14,0,14,0,0,0,0,0,,,,,,,,,,,,,,,,,,,,,,,855.0203491998836,0.00013250019401311874,0.09918999997898936,861.0368025000207,6.015775099862367,861.2035822998732,861.2035822998732,0.07823350001126528,0.18276239978149533,6.015788299962878,867.3036985001527,867.3036985001527,867.3036985001527,0.07679679989814758,0.18239039974287152,873.0034520998597,873.2035194998607,6.015901899896562,6.115763899870217,879.203421600163,12.015804499853402,879.3034489997663,879.3034489997663,879.3367555998266,879.3367555998266,0.015985599718987942,0.11575019964948297,down,0.46486329985782504,879.8534447997808,5.029980093240738e-05,0.09796250006183982,885.8533927998506,885.8533927998506,0.00892949989065528,0.09799169981852174,6.0,2.3566720001399517,,,,,,,885.8533927998506,867.203453999944,867.203453999944,,,,9412,Moral,2024-08-20_18h12.32.876,MoralCondition_v2,2022.2.5,29.987066546045362,
14,0,14,0,1,0,1,0,,,,,,,,,,,,,,,,,,,,,,,,,,,,,,,,,,,,,,,,,,,,,,,,,,,,,,,888.2534290999174,888.2534290999174,0.0072966995649039745,0.09810199961066246,5.0,1.2250165999867022,,,,,,,,,,,,,9412,Moral,2024-08-20_18h12.32.876,MoralCondition_v2,2022.2.5,29.987066546045362,
14,0,14,0,2,0,2,0,,,,,,,,,,,,,,,,,,,,,,,,,,,,,,,,,,,,,,,,,,,,,,,,,,,,,,,889.5200672000647,889.5200672000647,0.00816550012677908,0.09828460030257702,4.0,2.257499699946493,,,,,,,,,,,,,9412,Moral,2024-08-20_18h12.32.876,MoralCondition_v2,2022.2.5,29.987066546045362,
14,0,14,0,3,0,3,0,,,,,,,,,,,,,,,,,,,,,,,,,,,,,,,,,,,,,,,,,,,,,,,,,,,,,,,891.8369897999801,891.8369897999801,0.008335199672728777,0.1145032998174429,5.0,3.773737299721688,,,,,,,,,,,,,9412,Moral,2024-08-20_18h12.32.876,MoralCondition_v2,2022.2.5,29.987066546045362,
14,0,14,0,4,0,4,0,,,,,,,,,,,,,,,,,,,,,,,,,,,,,,,,,,,,,,,,,,,,,,,,,,,,,,,895.6367334001698,895.6367334001698,0.006917900405824184,0.09913260024040937,1.0,2.959971900098026,,,,,,,,,,,,,9412,Moral,2024-08-20_18h12.32.876,MoralCondition_v2,2022.2.5,29.987066546045362,
14,0,14,0,5,0,5,0,,,,,,,,,,,,,,,,,,,,,,,,,,,,,,,,,,,,,,,,,,,,,,,,,,,,,,,898.653567600064,898.653567600064,0.008338499814271927,0.114268499892205,1.0,0.7402121997438371,,,,,,,,,,,,,9412,Moral,2024-08-20_18h12.32.876,MoralCondition_v2,2022.2.5,29.987066546045362,
14,0,14,0,6,0,6,0,,,,,,,,,,,,,,,,,,,,,,,,,,,,,,,,,,,,,,,,,,,,,,,,,,,,,,,899.4201601999812,899.4201601999812,0.006682700011879206,0.09834290016442537,2.0,2.5592277999967337,,,,,,,,,,,,,9412,Moral,2024-08-20_18h12.32.876,MoralCondition_v2,2022.2.5,29.987066546045362,
14,0,14,0,,,,,,,,,,,,,,,,,,,,,,,,,,,,,,,,,,,,,,,,,,,,,,,,,,,,,,,,,,,,,,,,,902.020324899815,902.020324899815,0.0014947997406125069,0.09719619993120432,2.0,5.163599400315434,,,,,,,9412,Moral,2024-08-20_18h12.32.876,MoralCondition_v2,2022.2.5,29.987066546045362,
15,0,15,0,0,0,0,0,,,,,,,,,,,,,,,,,,,,,,,907.2202770998701,0.0003450000658631325,0.097643599845469,913.2366852001287,6.01428660005331,913.4034715997986,913.4034715997986,0.07452769996598363,0.18106439989060163,6.014145799912512,919.5035171001218,919.5035171001218,919.5035171001218,0.07051849970594049,0.18097229953855276,925.2035387000069,925.4034675997682,6.014304199721664,6.114083799533546,931.4032931001857,12.014129999559373,931.5033165002242,931.5033165002242,931.536651799921,931.536651799921,0.014298599679023027,0.1141530997119844,down,2.8646995001472533,934.4532967000268,4.269974306225777e-05,0.09782359981909394,940.4533080998808,940.4533080998808,0.010364399757236242,0.09797080000862479,1.0,4.155326399952173,,,,,,,940.4533080998808,919.4033221998252,919.4033221998252,,,,9412,Moral,2024-08-20_18h12.32.876,MoralCondition_v2,2022.2.5,29.987066546045362,
15,0,15,0,1,0,1,0,,,,,,,,,,,,,,,,,,,,,,,,,,,,,,,,,,,,,,,,,,,,,,,,,,,,,,,944.6533137001097,944.6533137001097,0.007442799862474203,0.09781359974294901,5.0,2.8581010000780225,,,,,,,,,,,,,9412,Moral,2024-08-20_18h12.32.876,MoralCondition_v2,2022.2.5,29.987066546045362,
15,0,15,0,2,0,2,0,,,,,,,,,,,,,,,,,,,,,,,,,,,,,,,,,,,,,,,,,,,,,,,,,,,,,,,947.5533052999526,947.5533052999526,0.007574300281703472,0.0978799001313746,4.0,4.558054399676621,,,,,,,,,,,,,9412,Moral,2024-08-20_18h12.32.876,MoralCondition_v2,2022.2.5,29.987066546045362,
15,0,15,0,3,0,3,0,,,,,,,,,,,,,,,,,,,,,,,,,,,,,,,,,,,,,,,,,,,,,,,,,,,,,,,952.1531295999885,952.1531295999885,0.007552099879831076,0.09784290008246899,5.0,1.791585700120777,,,,,,,,,,,,,9412,Moral,2024-08-20_18h12.32.876,MoralCondition_v2,2022.2.5,29.987066546045362,
15,0,15,0,4,0,4,0,,,,,,,,,,,,,,,,,,,,,,,,,,,,,,,,,,,,,,,,,,,,,,,,,,,,,,,953.9864222002216,953.9864222002216,0.0068026999942958355,0.09872369980439544,6.0,2.192864099983126,,,,,,,,,,,,,9412,Moral,2024-08-20_18h12.32.876,MoralCondition_v2,2022.2.5,29.987066546045362,
15,0,15,0,5,0,5,0,,,,,,,,,,,,,,,,,,,,,,,,,,,,,,,,,,,,,,,,,,,,,,,,,,,,,,,956.2204125002027,956.2204125002027,0.007139600347727537,0.09725910006090999,2.0,3.158037600107491,,,,,,,,,,,,,9412,Moral,2024-08-20_18h12.32.876,MoralCondition_v2,2022.2.5,29.987066546045362,
15,0,15,0,6,0,6,0,,,,,,,,,,,,,,,,,,,,,,,,,,,,,,,,,,,,,,,,,,,,,,,,,,,,,,,959.4365713000298,959.4365713000298,0.00991469994187355,0.11439340002834797,1.0,1.3053259002044797,,,,,,,,,,,,,9412,Moral,2024-08-20_18h12.32.876,MoralCondition_v2,2022.2.5,29.987066546045362,
15,0,15,0,,,,,,,,,,,,,,,,,,,,,,,,,,,,,,,,,,,,,,,,,,,,,,,,,,,,,,,,,,,,,,,,,960.769996299874,960.769996299874,0.0007070000283420086,0.09903929987922311,2.0,2.3659763000905514,,,,,,,9412,Moral,2024-08-20_18h12.32.876,MoralCondition_v2,2022.2.5,29.987066546045362,
16,0,16,0,0,0,0,0,,,,,,,,,,,,,,,,,,,,,,,963.1701680999249,0.00013560010120272636,0.09952190006151795,969.1698946999386,5.999335899949074,969.3367082998157,969.3367082998157,0.05065099988132715,0.16590330004692078,5.999155899975449,975.4365555997938,975.4365555997938,975.4365555997938,0.054948799777776,0.16586099984124303,981.1364799002185,981.3364833001979,5.999182099942118,6.099357099737972,987.3366131000221,11.999323799740523,987.4364748001099,987.4364748001099,987.4698251998052,987.4698251998052,-7.400289177894592e-06,0.09913729969412088,up,0.587506499607116,988.1031614998356,4.0899962186813354e-05,0.11441670032218099,994.1033481000923,994.1033481000923,0.0064894999377429485,0.09799050027504563,6.0,11.659067600034177,,,,,,,994.1033481000923,975.3367308001034,975.3367308001034,6.0994243999011815,12.09917419962585,6.099096700083464,9412,Moral,2024-08-20_18h12.32.876,MoralCondition_v2,2022.2.5,29.987066546045362,
16,0,16,0,1,0,1,0,,,,,,,,,,,,,,,,,,,,,,,,,,,,,,,,,,,,,,,,,,,,,,,,,,,,,,,1005.80325740017,1005.80325740017,0.007016300223767757,0.09918450005352497,2.0,2.7931042998097837,,,,,,,,,,,,,9412,Moral,2024-08-20_18h12.32.876,MoralCondition_v2,2022.2.5,29.987066546045362,
16,0,16,0,2,0,2,0,,,,,,,,,,,,,,,,,,,,,,,,,,,,,,,,,,,,,,,,,,,,,,,,,,,,,,,1008.6362260999158,1008.6362260999158,0.007319000083953142,0.09796940023079515,4.0,2.991897900123149,,,,,,,,,,,,,9412,Moral,2024-08-20_18h12.32.876,MoralCondition_v2,2022.2.5,29.987066546045362,
16,0,16,0,3,0,3,0,,,,,,,,,,,,,,,,,,,,,,,,,,,,,,,,,,,,,,,,,,,,,,,,,,,,,,,1011.669617800042,1011.669617800042,0.006513000000268221,0.09914990002289414,1.0,1.2271702997386456,,,,,,,,,,,,,9412,Moral,2024-08-20_18h12.32.876,MoralCondition_v2,2022.2.5,29.987066546045362,
16,0,16,0,4,0,4,0,,,,,,,,,,,,,,,,,,,,,,,,,,,,,,,,,,,,,,,,,,,,,,,,,,,,,,,1012.9533514999785,1012.9533514999785,0.007978599984198809,0.11430929973721504,1.0,0.7071404000744224,,,,,,,,,,,,,9412,Moral,2024-08-20_18h12.32.876,MoralCondition_v2,2022.2.5,29.987066546045362,
16,0,16,0,5,0,5,0,,,,,,,,,,,,,,,,,,,,,,,,,,,,,,,,,,,,,,,,,,,,,,,,,,,,,,,1013.6863114000298,1013.6863114000298,0.007981800008565187,0.0978362001478672,1.0,1.491121799685061,,,,,,,,,,,,,9412,Moral,2024-08-20_18h12.32.876,MoralCondition_v2,2022.2.5,29.987066546045362,
16,0,16,0,6,0,6,0,,,,,,,,,,,,,,,,,,,,,,,,,,,,,,,,,,,,,,,,,,,,,,,,,,,,,,,1015.2197048999369,1015.2197048999369,0.007991600316017866,0.09752160031348467,1.0,2.9905400997959077,,,,,,,,,,,,,9412,Moral,2024-08-20_18h12.32.876,MoralCondition_v2,2022.2.5,29.987066546045362,
16,0,16,0,,,,,,,,,,,,,,,,,,,,,,,,,,,,,,,,,,,,,,,,,,,,,,,,,,,,,,,,,,,,,,,,,1018.2531352001242,1018.2531352001242,0.0017413999885320663,0.09780539991334081,7.0,1.9637271999381483,,,,,,,9412,Moral,2024-08-20_18h12.32.876,MoralCondition_v2,2022.2.5,29.987066546045362,
17,0,17,0,0,0,0,0,,,,,,,,,,,,,,,,,,,,,,,1020.2532436000183,0.0003120000474154949,0.09769470011815429,1026.2697347002104,6.014287900179625,1026.4364765998907,1026.4364765998907,0.06818909989669919,0.18103029998019338,6.014283000025898,1032.536402599886,1032.536402599886,1032.536402599886,0.07917629973962903,0.18082959996536374,1038.2363991998136,1038.4362849001773,6.014249799773097,6.114236100111157,1044.4363127001561,12.014282600022852,1044.5195626001805,1044.5195626001805,1044.5696197999641,1044.5696197999641,0.014458199962973595,0.1309144999831915,up,9.352130400016904,1053.9696042998694,4.329998046159744e-05,0.09813050040975213,1059.9870116999373,1059.9870116999373,0.009469100274145603,0.11464100005105138,2.0,5.439422899857163,,,,,,,1059.9870116999373,1032.4362881998532,1032.4362881998532,,,,9412,Moral,2024-08-20_18h12.32.876,MoralCondition_v2,2022.2.5,29.987066546045362,
17,0,17,0,1,0,1,0,,,,,,,,,,,,,,,,,,,,,,,,,,,,,,,,,,,,,,,,,,,,,,,,,,,,,,,1065.4528128998354,1065.4528128998354,0.0070731001906096935,0.09807860013097525,6.0,3.425734299700707,,,,,,,,,,,,,9412,Moral,2024-08-20_18h12.32.876,MoralCondition_v2,2022.2.5,29.987066546045362,
17,0,17,0,2,0,2,0,,,,,,,,,,,,,,,,,,,,,,,,,,,,,,,,,,,,,,,,,,,,,,,,,,,,,,,1068.9195679998957,1068.9195679998957,0.006666699890047312,0.09896250022575259,5.0,2.593374699819833,,,,,,,,,,,,,9412,Moral,2024-08-20_18h12.32.876,MoralCondition_v2,2022.2.5,29.987066546045362,
17,0,17,0,3,0,3,0,,,,,,,,,,,,,,,,,,,,,,,,,,,,,,,,,,,,,,,,,,,,,,,,,,,,,,,1071.5529323997907,1071.5529323997907,0.0062861996702849865,0.09881410002708435,5.0,2.960176599677652,,,,,,,,,,,,,9412,Moral,2024-08-20_18h12.32.876,MoralCondition_v2,2022.2.5,29.987066546045362,
17,0,17,0,4,0,4,0,,,,,,,,,,,,,,,,,,,,,,,,,,,,,,,,,,,,,,,,,,,,,,,,,,,,,,,1074.569732700009,1074.569732700009,0.008105599787086248,0.11441229982301593,2.0,7.607178799808025,,,,,,,,,,,,,9412,Moral,2024-08-20_18h12.32.876,MoralCondition_v2,2022.2.5,29.987066546045362,
17,0,17,0,5,0,5,0,,,,,,,,,,,,,,,,,,,,,,,,,,,,,,,,,,,,,,,,,,,,,,,,,,,,,,,1082.2030027001165,1082.2030027001165,0.006660700310021639,0.09926349995657802,1.0,2.060482599772513,,,,,,,,,,,,,9412,Moral,2024-08-20_18h12.32.876,MoralCondition_v2,2022.2.5,29.987066546045362,
17,0,17,0,6,0,6,0,,,,,,,,,,,,,,,,,,,,,,,,,,,,,,,,,,,,,,,,,,,,,,,,,,,,,,,1084.3030301001854,1084.3030301001854,0.006581900175660849,0.09919370012357831,1.0,1.193739800248295,,,,,,,,,,,,,9412,Moral,2024-08-20_18h12.32.876,MoralCondition_v2,2022.2.5,29.987066546045362,
17,0,17,0,,,,,,,,,,,,,,,,,,,,,,,,,,,,,,,,,,,,,,,,,,,,,,,,,,,,,,,,,,,,,,,,,1085.5360705000348,1085.5360705000348,0.0012595001608133316,0.09799499996006489,2.0,2.298005399759859,,,,,,,9412,Moral,2024-08-20_18h12.32.876,MoralCondition_v2,2022.2.5,29.987066546045362,
18,0,18,0,0,0,0,0,,,,,,,,,,,,,,,,,,,,,,,1087.86982979998,0.00014190003275871277,0.09928780002519488,1093.8695747000165,5.99925920041278,1094.036225600168,1094.036225600168,0.052634000312536955,0.16611360013484955,5.99922230001539,1100.136074199807,1100.136074199807,1100.136074199807,0.05410159984603524,0.1658537001349032,1105.8361439001746,1106.0361170000397,5.999242499936372,6.099344199988991,1112.036083499901,11.999219399876893,1112.1361023001373,1112.1361023001373,1112.1694399998523,1112.1694399998523,5.6199729442596436e-05,0.09921999974176288,up,0.3601850001141429,1112.569442700129,4.499964416027069e-05,0.09786630002781749,1118.5866065998562,1118.5866065998562,0.025523100048303604,0.11448680004104972,6.0,8.223173100035638,,,,,,,,1100.0361228999682,1100.0361228999682,6.099249100312591,12.09922630013898,6.099059900268912,9412,Moral,2024-08-20_18h12.32.876,MoralCondition_v2,2022.2.5,29.987066546045362,
18,0,18,0,1,0,1,0,,,,,,,,,,,,,,,,,,,,,,,,,,,,,,,,,,,,,,,,,,,,,,,,,,,,,,,1126.8696023998782,1126.8696023998782,0.008020599838346243,0.11402420001104474,5.0,1.5737345996312797,,,,,,,,,,,,,9412,Moral,2024-08-20_18h12.32.876,MoralCondition_v2,2022.2.5,29.987066546045362,
18,0,18,0,2,0,2,0,,,,,,,,,,,,,,,,,,,,,,,,,,,,,,,,,,,,,,,,,,,,,,,,,,,,,,,1128.4692990002222,1128.4692990002222,0.005982600152492523,0.09924730006605387,1.0,1.7944128001108766,,,,,,,,,,,,,9412,Moral,2024-08-20_18h12.32.876,MoralCondition_v2,2022.2.5,29.987066546045362,
18,0,18,0,3,0,3,0,,,,,,,,,,,,,,,,,,,,,,,,,,,,,,,,,,,,,,,,,,,,,,,,,,,,,,,1130.302688700147,1130.302688700147,0.007980000227689743,0.09938570018857718,5.0,2.2256216001696885,,,,,,,,,,,,,9412,Moral,2024-08-20_18h12.32.876,MoralCondition_v2,2022.2.5,29.987066546045362,
18,0,18,0,4,0,4,0,,,,,,,,,,,,,,,,,,,,,,,,,,,,,,,,,,,,,,,,,,,,,,,,,,,,,,,1132.5692174998112,1132.5692174998112,0.0066177998669445515,0.09903929987922311,2.0,1.4935001996345818,,,,,,,,,,,,,9412,Moral,2024-08-20_18h12.32.876,MoralCondition_v2,2022.2.5,29.987066546045362,
18,0,18,0,5,0,5,0,,,,,,,,,,,,,,,,,,,,,,,,,,,,,,,,,,,,,,,,,,,,,,,,,,,,,,,1134.1025618999265,1134.1025618999265,0.0068731000646948814,0.09920499986037612,2.0,0.526821100153029,,,,,,,,,,,,,9412,Moral,2024-08-20_18h12.32.876,MoralCondition_v2,2022.2.5,29.987066546045362,
18,0,18,0,6,0,6,0,,,,,,,,,,,,,,,,,,,,,,,,,,,,,,,,,,,,,,,,,,,,,,,,,,,,,,,1134.6694469000213,1134.6694469000213,0.008274899795651436,0.0978139997459948,4.0,1.2573897000402212,,,,,,,,,,,,,9412,Moral,2024-08-20_18h12.32.876,MoralCondition_v2,2022.2.5,29.987066546045362,
18,0,18,0,,,,,,,,,,,,,,,,,,,,,,,,,,,,,,,,,,,,,,,,,,,,,,,,,,,,,,,,,,,,,,,,,1135.9694981002249,1135.9694981002249,0.0007063001394271851,0.09945960016921163,1.0,1.733057000208646,,,,,,,9412,Moral,2024-08-20_18h12.32.876,MoralCondition_v2,2022.2.5,29.987066546045362,
19,0,19,0,0,0,0,0,,,,,,,,,,,,,,,,,,,,,,,1137.736253700219,0.0002639000304043293,0.09794740006327629,1143.7526882998645,6.0146099999547005,1143.985706300009,1143.985706300009,0.1460823998786509,0.2481406000442803,6.014603500254452,1150.019384500105,1150.019384500105,1150.019384500105,0.0682018999941647,0.1812598998658359,1155.7192987999879,1155.9192723999731,6.014688599854708,6.1145779001526535,1161.9194519999437,12.01478759991005,1162.017146800179,1162.017146800179,1162.0337689002044,1162.0337689002044,0.012556899804621935,0.11238930001854897,up,0.45572609966620803,1162.5359311001375,5.110027268528938e-05,0.09797850018367171,1168.5699922000058,1168.5699922000058,0.026707500219345093,0.13145780004560947,5.0,3.572280799970031,,,,,,,,,,,,,9412,Moral,2024-08-20_18h12.32.876,MoralCondition_v2,2022.2.5,29.987066546045362,
19,0,19,0,1,0,1,0,,,,,,,,,,,,,,,,,,,,,,,,,,,,,,,,,,,,,,,,,,,,,,,,,,,,,,,1172.1691664000973,1172.1691664000973,0.0067877997644245625,0.0990096996538341,6.0,1.3272627000696957,,,,,,,,,,,,,9412,Moral,2024-08-20_18h12.32.876,MoralCondition_v2,2022.2.5,29.987066546045362,
19,0,19,0,2,0,2,0,,,,,,,,,,,,,,,,,,,,,,,,,,,,,,,,,,,,,,,,,,,,,,,,,,,,,,,1173.5358158000745,1173.5358158000745,0.006580699700862169,0.0987436999566853,2.0,2.2266997997649014,,,,,,,,,,,,,9412,Moral,2024-08-20_18h12.32.876,MoralCondition_v2,2022.2.5,29.987066546045362,
19,0,19,0,3,0,3,0,,,,,,,,,,,,,,,,,,,,,,,,,,,,,,,,,,,,,,,,,,,,,,,,,,,,,,,1175.8192516001873,1175.8192516001873,0.008829899597913027,0.11394519964233041,2.0,0.7394111002795398,,,,,,,,,,,,,9412,Moral,2024-08-20_18h12.32.876,MoralCondition_v2,2022.2.5,29.987066546045362,
19,0,19,0,4,0,4,0,,,,,,,,,,,,,,,,,,,,,,,,,,,,,,,,,,,,,,,,,,,,,,,,,,,,,,,1176.5858840001747,1176.5858840001747,0.007568600121885538,0.09786379989236593,1.0,2.4911228995770216,,,,,,,,,,,,,9412,Moral,2024-08-20_18h12.32.876,MoralCondition_v2,2022.2.5,29.987066546045362,
19,0,19,0,5,0,5,0,,,,,,,,,,,,,,,,,,,,,,,,,,,,,,,,,,,,,,,,,,,,,,,,,,,,,,,1179.119347400032,1179.119347400032,0.008574699983000755,0.09750179992988706,2.0,3.258049299940467,,,,,,,,,,,,,9412,Moral,2024-08-20_18h12.32.876,MoralCondition_v2,2022.2.5,29.987066546045362,
19,0,19,0,6,0,6,0,,,,,,,,,,,,,,,,,,,,,,,,,,,,,,,,,,,,,,,,,,,,,,,,,,,,,,,1182.4191867001355,1182.4191867001355,0.006940599996596575,0.09889939986169338,1.0,0.959391700103879,,,,,,,,,,,,,9412,Moral,2024-08-20_18h12.32.876,MoralCondition_v2,2022.2.5,29.987066546045362,
19,0,19,0,,,,,,,,,,,,,,,,,,,,,,,,,,,,,,,,,,,,,,,,,,,,,,,,,,,,,,,,,,,,,,,,,1183.4193524997681,1183.4193524997681,0.0015853000804781914,0.09765660017728806,7.0,1.997496200259775,,,,,,,9412,Moral,2024-08-20_18h12.32.876,MoralCondition_v2,2022.2.5,29.987066546045362,
