loop.thisRepN,loop.thisTrialN,loop.thisN,loop.thisIndex,evaluate_all_emotions.thisRepN,evaluate_all_emotions.thisTrialN,evaluate_all_emotions.thisN,evaluate_all_emotions.thisIndex,sync_beep_1.started,p_port.started,p_port.stopped,sync_beep_1.stopped,sync_beep_2.started,sync_beep_2.stopped,sync_beep_3.started,sync_beep_3.stopped,sync_beep_4.started,sync_beep_4.stopped,baseline.started,p_port_2.started,p_port_2.stopped,baseline.stopped,p_port_3.started,Game_Start_Text.started,p_port_4.started,p_port_4.stopped,key_resp.started,key_resp.keys,key_resp.rt,fixation_cross.started,p_port_5.started,p_port_5.stopped,fixation_cross.stopped,p_port_6.started,player_image_intro.started,player_name_intro.started,p_port_7.started,p_port_7.stopped,p_port_8.started,player_image_offer.started,player_name_offer.started,proposed_split.started,p_port_9.started,p_port_9.stopped,proposed_split.stopped,accept_reject.started,p_port_15.started,p_port_15.stopped,accept_reject.stopped,p_port_10.started,arrow_instructions.started,offer_choice.started,p_port_11.started,p_port_11.stopped,offer_choice.keys,offer_choice.rt,Instructions_Affinity_Score.started,p_port_12.started,p_port_12.stopped,Instructions_Affinity_Score.stopped,Emotion_Image.started,AffinityScore.started,p_port_13.started,p_port_13.stopped,AffinityScore.response,AffinityScore.rt,Instruction.started,Moral_Disgust_Score.started,p_port_14.started,p_port_14.stopped,Moral_Disgust_Score.response,Moral_Disgust_Score.rt,player_image_offer.stopped,player_name_offer.stopped,p_port_6.stopped,player_image_intro.stopped,player_name_intro.stopped,p_port_8.stopped,p_port_10.stopped,participant,session,date,expName,psychopyVersion,frameRate,
,,,,,,,,18.585011307150126,0.0007462017238140106,0.09950900077819824,18.900989400222898,19.150614240951835,19.450670501217246,19.76742294039577,20.067297101020813,20.350738741271197,20.650571700185537,20.650571700185537,-0.00043839961290359497,0.09985930100083351,35.667384300380945,15.016449701040983,35.80080780014396,0.016478201374411583,0.11612110212445259,36.267346100881696,space,1.4119260981678963,,,,,,,,,,,,,,,,,,,,,,,,,,,,,,,,,,,,,,,,,,,,,,,,,,,9462,Moral,2024-07-09_18h42.26.091,MoralCondition_v2,2022.2.5,30.000776966666695,
0,0,0,0,0,0,0,0,,,,,,,,,,,,,,,,,,,,,,37.734111400321126,0.0013154000043869019,0.098574198782444,43.75066629983485,6.014972498640418,43.967321099713445,43.967321099713445,0.10113210044801235,0.23166210018098354,6.0316620990633965,50.067499900236726,50.067499900236726,50.067499900236726,0.09782670065760612,0.23162540048360825,55.76732570119202,55.93425440043211,5.999190600588918,6.09829879924655,61.9340204000473,12.03172709979117,62.05055190064013,62.05055190064013,0.03163599967956543,0.13178560137748718,up,2.093767298385501,64.20085570029914,5.7499855756759644e-05,0.09759340062737465,70.21725459955633,70.21725459955633,70.21725459955633,0.004789900034666061,0.11419619992375374,3.0,8.62716150097549,,,,,,,,,,,,,,9462,Moral,2024-07-09_18h42.26.091,MoralCondition_v2,2022.2.5,30.000776966666695,
0,0,0,0,1,0,1,0,,,,,,,,,,,,,,,,,,,,,,,,,,,,,,,,,,,,,,,,,,,,,,,,,,,,,78.8672714997083,78.8672714997083,0.006700299680233002,0.0988306999206543,3.0,1.4266325011849403,,,,,,,,,,,,,,9462,Moral,2024-07-09_18h42.26.091,MoralCondition_v2,2022.2.5,30.000776966666695,
0,0,0,0,2,0,2,0,,,,,,,,,,,,,,,,,,,,,,,,,,,,,,,,,,,,,,,,,,,,,,,,,,,,,80.35079549998045,80.35079549998045,0.01002660021185875,0.11412580125033855,2.0,2.071788800880313,,,,,,,,,,,,,,9462,Moral,2024-07-09_18h42.26.091,MoralCondition_v2,2022.2.5,30.000776966666695,
0,0,0,0,3,0,3,0,,,,,,,,,,,,,,,,,,,,,,,,,,,,,,,,,,,,,,,,,,,,,,,,,,,,,82.45081230066717,82.45081230066717,0.009208600968122482,0.09695659950375557,1.0,1.9889122992753983,,,,,,,,,,,,,,9462,Moral,2024-07-09_18h42.26.091,MoralCondition_v2,2022.2.5,30.000776966666695,
0,0,0,0,4,0,4,0,,,,,,,,,,,,,,,,,,,,,,,,,,,,,,,,,,,,,,,,,,,,,,,,,,,,,84.48403530009091,84.48403530009091,0.006610101088881493,0.09918530099093914,4.0,2.5934557989239693,,,,,,,,,,,,,,9462,Moral,2024-07-09_18h42.26.091,MoralCondition_v2,2022.2.5,30.000776966666695,
0,0,0,0,5,0,5,0,,,,,,,,,,,,,,,,,,,,,,,,,,,,,,,,,,,,,,,,,,,,,,,,,,,,,87.13400710001588,87.13400710001588,0.012949399650096893,0.11442800052464008,2.0,2.6359474007040262,,,,,,,,,,,,,,9462,Moral,2024-07-09_18h42.26.091,MoralCondition_v2,2022.2.5,30.000776966666695,
0,0,0,0,6,0,6,0,,,,,,,,,,,,,,,,,,,,,,,,,,,,,,,,,,,,,,,,,,,,,,,,,,,,,89.81735660135746,89.81735660135746,0.011844199150800705,0.1136917993426323,2.0,1.4360666014254093,,,,,,,,,,,,,,9462,Moral,2024-07-09_18h42.26.091,MoralCondition_v2,2022.2.5,30.000776966666695,
0,0,0,0,,,,,,,,,,,,,,,,,,,,,,,,,,,,,,,,,,,,,,,,,,,,,,,,,,,,,,,,,,,,,,,91.28399530053139,91.28399530053139,0.0016095004975795746,0.09805100038647652,4.0,10.497161900624633,,,,,,,,9462,Moral,2024-07-09_18h42.26.091,MoralCondition_v2,2022.2.5,30.000776966666695,
1,0,1,0,0,0,0,0,,,,,,,,,,,,,,,,,,,,,,101.81754299998283,0.000390099361538887,0.09805809892714024,107.81725290045142,6.031465100124478,108.08364900015295,108.08364900015295,0.15311869978904724,0.2648847997188568,6.031354200094938,114.11730720102787,114.11730720102787,114.11730720102787,0.0907405000180006,0.19801069982349873,119.8173936009407,120.01738619990647,6.031556600704789,6.131407700479031,126.01705880090594,12.031228000298142,126.15051840059459,126.15051840059459,0.031519100069999695,0.1313645001500845,up,1.2403780985623598,127.45055610127747,4.779919981956482e-05,0.0975301992148161,,133.46706520020962,133.46706520020962,0.024525798857212067,0.114521699026227,4.0,4.857614999637008,,,,,,,126.11717280000448,126.11717280000448,,,,,,9462,Moral,2024-07-09_18h42.26.091,MoralCondition_v2,2022.2.5,30.000776966666695,
1,0,1,0,1,0,1,0,,,,,,,,,,,,,,,,,,,,,,,,,,,,,,,,,,,,,,,,,,,,,,,,,,,,,138.38419810123742,138.38419810123742,0.007735399529337883,0.11439199931919575,4.0,4.241040701046586,,,,,,,,,,,,,,9462,Moral,2024-07-09_18h42.26.091,MoralCondition_v2,2022.2.5,30.000776966666695,
1,0,1,0,2,0,2,0,,,,,,,,,,,,,,,,,,,,,,,,,,,,,,,,,,,,,,,,,,,,,,,,,,,,,142.65070510096848,142.65070510096848,0.007170498371124268,0.0977918989956379,4.0,3.25834740139544,,,,,,,,,,,,,,9462,Moral,2024-07-09_18h42.26.091,MoralCondition_v2,2022.2.5,30.000776966666695,
1,0,1,0,3,0,3,0,,,,,,,,,,,,,,,,,,,,,,,,,,,,,,,,,,,,,,,,,,,,,,,,,,,,,145.95050260052085,145.95050260052085,0.007158000022172928,0.09845600090920925,4.0,1.0255894996225834,,,,,,,,,,,,,,9462,Moral,2024-07-09_18h42.26.091,MoralCondition_v2,2022.2.5,30.000776966666695,
1,0,1,0,4,0,4,0,,,,,,,,,,,,,,,,,,,,,,,,,,,,,,,,,,,,,,,,,,,,,,,,,,,,,147.0171096008271,147.0171096008271,0.006605999544262886,0.0994148999452591,4.0,1.4271912015974522,,,,,,,,,,,,,,9462,Moral,2024-07-09_18h42.26.091,MoralCondition_v2,2022.2.5,30.000776966666695,
1,0,1,0,5,0,5,0,,,,,,,,,,,,,,,,,,,,,,,,,,,,,,,,,,,,,,,,,,,,,,,,,,,,,148.48377840034664,148.48377840034664,0.006333701312541962,0.09924590028822422,4.0,1.560725199058652,,,,,,,,,,,,,,9462,Moral,2024-07-09_18h42.26.091,MoralCondition_v2,2022.2.5,30.000776966666695,
1,0,1,0,6,0,6,0,,,,,,,,,,,,,,,,,,,,,,,,,,,,,,,,,,,,,,,,,,,,,,,,,,,,,150.10068830102682,150.10068830102682,0.007656000554561615,0.11436410062015057,4.0,1.1745951995253563,,,,,,,,,,,,,,9462,Moral,2024-07-09_18h42.26.091,MoralCondition_v2,2022.2.5,30.000776966666695,
1,0,1,0,,,,,,,,,,,,,,,,,,,,,,,,,,,,,,,,,,,,,,,,,,,,,,,,,,,,,,,,,,,,,,,151.30047040060163,151.30047040060163,0.0008252989500761032,0.09900679998099804,4.0,2.1661876998841763,,,,,,,,9462,Moral,2024-07-09_18h42.26.091,MoralCondition_v2,2022.2.5,30.000776966666695,
2,0,2,0,0,0,0,0,,,,,,,,,,,,,,,,,,,,,,153.50073369964957,0.00016780011355876923,0.09935380145907402,159.50046280026436,5.999331900849938,159.66744329966605,159.66744329966605,0.05891210027039051,0.1661980003118515,5.999330502003431,165.76714619994164,165.76714619994164,165.76714619994164,0.05755860172212124,0.16614120081067085,171.46711600013077,171.66711859963834,5.999364402145147,6.0992738008499146,177.66719030030072,11.99944250099361,177.80040660127997,177.80040660127997,0.00012360140681266785,0.0990770012140274,up,1.4318914990872145,179.28375050053,4.490092396736145e-05,0.09800880029797554,185.28413799963892,185.28413799963892,185.28413799963892,0.006975801661610603,0.09809350036084652,2.0,2.9252767004072666,,,,,,,177.7670953013003,177.7670953013003,6.099347300827503,165.66709260083735,165.66709260083735,6.099365800619125,12.099344002082944,9462,Moral,2024-07-09_18h42.26.091,MoralCondition_v2,2022.2.5,30.000776966666695,
2,0,2,0,1,0,1,0,,,,,,,,,,,,,,,,,,,,,,,,,,,,,,,,,,,,,,,,,,,,,,,,,,,,,188.25053070113063,188.25053070113063,0.0073729995638132095,0.09810229949653149,3.0,2.391533998772502,,,,,,,,,,,,,,9462,Moral,2024-07-09_18h42.26.091,MoralCondition_v2,2022.2.5,30.000776966666695,
2,0,2,0,2,0,2,0,,,,,,,,,,,,,,,,,,,,,,,,,,,,,,,,,,,,,,,,,,,,,,,,,,,,,190.70068650133908,190.70068650133908,0.008380100131034851,0.11529939994215965,3.0,1.274260999634862,,,,,,,,,,,,,,9462,Moral,2024-07-09_18h42.26.091,MoralCondition_v2,2022.2.5,30.000776966666695,
2,0,2,0,3,0,3,0,,,,,,,,,,,,,,,,,,,,,,,,,,,,,,,,,,,,,,,,,,,,,,,,,,,,,192.00056019984186,192.00056019984186,0.006816700100898743,0.09900790080428123,4.0,1.5931087993085384,,,,,,,,,,,,,,9462,Moral,2024-07-09_18h42.26.091,MoralCondition_v2,2022.2.5,30.000776966666695,
2,0,2,0,4,0,4,0,,,,,,,,,,,,,,,,,,,,,,,,,,,,,,,,,,,,,,,,,,,,,,,,,,,,,193.6336524002254,193.6336524002254,0.0067976005375385284,0.09795599989593029,4.0,1.159060699865222,,,,,,,,,,,,,,9462,Moral,2024-07-09_18h42.26.091,MoralCondition_v2,2022.2.5,30.000776966666695,
2,0,2,0,5,0,5,0,,,,,,,,,,,,,,,,,,,,,,,,,,,,,,,,,,,,,,,,,,,,,,,,,,,,,194.83382030017674,194.83382030017674,0.006408398970961571,0.09899109974503517,4.0,1.3268331997096539,,,,,,,,,,,,,,9462,Moral,2024-07-09_18h42.26.091,MoralCondition_v2,2022.2.5,30.000776966666695,
2,0,2,0,6,0,6,0,,,,,,,,,,,,,,,,,,,,,,,,,,,,,,,,,,,,,,,,,,,,,,,,,,,,,196.20029750093818,196.20029750093818,0.00609469972550869,0.09876050055027008,4.0,0.8935962989926338,,,,,,,,,,,,,,9462,Moral,2024-07-09_18h42.26.091,MoralCondition_v2,2022.2.5,30.000776966666695,
2,0,2,0,,,,,,,,,,,,,,,,,,,,,,,,,,,,,,,,,,,,,,,,,,,,,,,,,,,,,,,,,,,,,,,197.13377240113914,197.13377240113914,0.001606399193406105,0.09772250056266785,4.0,1.4643227998167276,,,,,,,,9462,Moral,2024-07-09_18h42.26.091,MoralCondition_v2,2022.2.5,30.000776966666695,
3,0,3,0,0,0,0,0,,,,,,,,,,,,,,,,,,,,,,198.6338509004563,0.00013600103557109833,0.09907790087163448,204.6503651998937,6.015743700787425,204.81681970134377,204.81681970134377,0.0701460000127554,0.18230010010302067,6.015669200569391,210.91705130040646,210.91705130040646,210.91705130040646,0.0716733019798994,0.18265290185809135,216.61725720018148,216.81713140010834,6.015875801444054,6.11564770154655,222.8170037008822,12.015741400420666,222.95032159984112,222.95032159984112,0.015674401074647903,0.1157074011862278,up,1.7693142984062433,224.78363570012152,5.519948899745941e-05,0.09771119989454746,230.8004197999835,230.8004197999835,230.8004197999835,0.010972000658512115,0.11455100029706955,4.0,1.3710586987435818,,,,,,,222.90019060112536,222.90019060112536,,210.81702649965882,210.81702649965882,,,9462,Moral,2024-07-09_18h42.26.091,MoralCondition_v2,2022.2.5,30.000776966666695,
3,0,3,0,1,0,1,0,,,,,,,,,,,,,,,,,,,,,,,,,,,,,,,,,,,,,,,,,,,,,,,,,,,,,232.20009149983525,232.20009149983525,0.007465699687600136,0.09756040014326572,3.0,2.424345700070262,,,,,,,,,,,,,,9462,Moral,2024-07-09_18h42.26.091,MoralCondition_v2,2022.2.5,30.000776966666695,
3,0,3,0,2,0,2,0,,,,,,,,,,,,,,,,,,,,,,,,,,,,,,,,,,,,,,,,,,,,,,,,,,,,,234.66689299978316,234.66689299978316,0.007323898375034332,0.09917379915714264,2.0,1.8262000996619463,,,,,,,,,,,,,,9462,Moral,2024-07-09_18h42.26.091,MoralCondition_v2,2022.2.5,30.000776966666695,
3,0,3,0,3,0,3,0,,,,,,,,,,,,,,,,,,,,,,,,,,,,,,,,,,,,,,,,,,,,,,,,,,,,,236.53349490091205,236.53349490091205,0.007920200005173683,0.0978167001157999,3.0,2.2907055988907814,,,,,,,,,,,,,,9462,Moral,2024-07-09_18h42.26.091,MoralCondition_v2,2022.2.5,30.000776966666695,
3,0,3,0,4,0,4,0,,,,,,,,,,,,,,,,,,,,,,,,,,,,,,,,,,,,,,,,,,,,,,,,,,,,,238.86714550107718,238.86714550107718,0.007050100713968277,0.09789640083909035,4.0,1.758705798536539,,,,,,,,,,,,,,9462,Moral,2024-07-09_18h42.26.091,MoralCondition_v2,2022.2.5,30.000776966666695,
3,0,3,0,5,0,5,0,,,,,,,,,,,,,,,,,,,,,,,,,,,,,,,,,,,,,,,,,,,,,,,,,,,,,240.66711090132594,240.66711090132594,0.006656000390648842,0.0988750010728836,4.0,1.4933895990252495,,,,,,,,,,,,,,9462,Moral,2024-07-09_18h42.26.091,MoralCondition_v2,2022.2.5,30.000776966666695,
3,0,3,0,6,0,6,0,,,,,,,,,,,,,,,,,,,,,,,,,,,,,,,,,,,,,,,,,,,,,,,,,,,,,242.20014039985836,242.20014039985836,0.006975499913096428,0.09725259989500046,4.0,3.1913523003458977,,,,,,,,,,,,,,9462,Moral,2024-07-09_18h42.26.091,MoralCondition_v2,2022.2.5,30.000776966666695,
3,0,3,0,,,,,,,,,,,,,,,,,,,,,,,,,,,,,,,,,,,,,,,,,,,,,,,,,,,,,,,,,,,,,,,245.43371500074863,245.43371500074863,0.0013625994324684143,0.09780989959836006,4.0,4.66422369889915,,,,,,,,9462,Moral,2024-07-09_18h42.26.091,MoralCondition_v2,2022.2.5,30.000776966666695,
4,0,4,0,0,0,0,0,,,,,,,,,,,,,,,,,,,,,,250.1339114997536,0.0002790987491607666,0.09809069894254208,256.1336059011519,6.031621798872948,256.3166995998472,256.3166995998472,0.06937339901924133,0.18156260065734386,6.014825500547886,262.417203200981,262.417203200981,262.417203200981,0.06849060021340847,0.18149490095674992,268.1169134005904,268.3171165008098,6.015156699344516,6.114844400435686,274.31684490107,12.014861701056361,274.45015919953585,274.45015919953585,0.015011699870228767,0.1148030012845993,up,2.349047699943185,276.83350060135126,4.070065915584564e-05,0.09753840044140816,,282.8500360995531,282.8500360995531,0.024019300937652588,0.11407880112528801,4.0,4.5244779009372,,,,,,,274.41681730002165,274.41681730002165,,262.3168512005359,262.3168512005359,,,9462,Moral,2024-07-09_18h42.26.091,MoralCondition_v2,2022.2.5,30.000776966666695,
4,0,4,0,1,0,1,0,,,,,,,,,,,,,,,,,,,,,,,,,,,,,,,,,,,,,,,,,,,,,,,,,,,,,287.41697739996016,287.41697739996016,0.007310200482606888,0.09775649942457676,4.0,2.3915630001574755,,,,,,,,,,,,,,9462,Moral,2024-07-09_18h42.26.091,MoralCondition_v2,2022.2.5,30.000776966666695,
4,0,4,0,2,0,2,0,,,,,,,,,,,,,,,,,,,,,,,,,,,,,,,,,,,,,,,,,,,,,,,,,,,,,289.866774700582,289.866774700582,0.009192900732159615,0.11583149991929531,2.0,3.840864000841975,,,,,,,,,,,,,,9462,Moral,2024-07-09_18h42.26.091,MoralCondition_v2,2022.2.5,30.000776966666695,
4,0,4,0,3,0,3,0,,,,,,,,,,,,,,,,,,,,,,,,,,,,,,,,,,,,,,,,,,,,,,,,,,,,,293.7503193002194,293.7503193002194,0.007939599454402924,0.11414819955825806,3.0,1.5738159008324146,,,,,,,,,,,,,,9462,Moral,2024-07-09_18h42.26.091,MoralCondition_v2,2022.2.5,30.000776966666695,
4,0,4,0,4,0,4,0,,,,,,,,,,,,,,,,,,,,,,,,,,,,,,,,,,,,,,,,,,,,,,,,,,,,,295.35026399977505,295.35026399977505,0.007275000214576721,0.09787530079483986,3.0,1.9584344998002052,,,,,,,,,,,,,,9462,Moral,2024-07-09_18h42.26.091,MoralCondition_v2,2022.2.5,30.000776966666695,
4,0,4,0,5,0,5,0,,,,,,,,,,,,,,,,,,,,,,,,,,,,,,,,,,,,,,,,,,,,,,,,,,,,,297.3671164996922,297.3671164996922,0.009178001433610916,0.11577250063419342,4.0,1.707514999434352,,,,,,,,,,,,,,9462,Moral,2024-07-09_18h42.26.091,MoralCondition_v2,2022.2.5,30.000776966666695,
4,0,4,0,6,0,6,0,,,,,,,,,,,,,,,,,,,,,,,,,,,,,,,,,,,,,,,,,,,,,,,,,,,,,299.11699640005827,299.11699640005827,0.007805399596691132,0.11426950059831142,3.0,2.4408685006201267,,,,,,,,,,,,,,9462,Moral,2024-07-09_18h42.26.091,MoralCondition_v2,2022.2.5,30.000776966666695,
4,0,4,0,,,,,,,,,,,,,,,,,,,,,,,,,,,,,,,,,,,,,,,,,,,,,,,,,,,,,,,,,,,,,,,301.5833408012986,301.5833408012986,0.0012280996888875961,0.09776370041072369,4.0,2.130976799875498,,,,,,,,9462,Moral,2024-07-09_18h42.26.091,MoralCondition_v2,2022.2.5,30.000776966666695,
5,0,5,0,0,0,0,0,,,,,,,,,,,,,,,,,,,,,,303.75026960112154,0.00013059936463832855,0.0995934996753931,309.75010040029883,5.999170999974012,309.91662120074034,309.91662120074034,0.05495360121130943,0.16591970063745975,5.999173600226641,316.0168948005885,316.0168948005885,316.0168948005885,0.05340300127863884,0.16591590084135532,321.71670760028064,321.91672370024025,5.999201700091362,6.099151100963354,327.91666890121996,11.999150801450014,328.0500617995858,328.0500617995858,-2.4098902940750122e-05,0.09936770051717758,up,1.341440899297595,329.4333379995078,2.400018274784088e-05,0.09867540001869202,335.4333104006946,335.4333104006946,335.4333104006946,0.010085199028253555,0.09867380000650883,4.0,1.8562173005193472,,,,,,,328.01668430119753,328.01668430119753,6.099142499268055,315.9166870005429,315.9166870005429,6.099184300750494,12.09917340055108,9462,Moral,2024-07-09_18h42.26.091,MoralCondition_v2,2022.2.5,30.000776966666695,
5,0,5,0,1,0,1,0,,,,,,,,,,,,,,,,,,,,,,,,,,,,,,,,,,,,,,,,,,,,,,,,,,,,,337.3500047009438,337.3500047009438,0.008003398776054382,0.11424389854073524,3.0,1.7403929997235537,,,,,,,,,,,,,,9462,Moral,2024-07-09_18h42.26.091,MoralCondition_v2,2022.2.5,30.000776966666695,
5,0,5,0,2,0,2,0,,,,,,,,,,,,,,,,,,,,,,,,,,,,,,,,,,,,,,,,,,,,,,,,,,,,,339.13357360102236,339.13357360102236,0.008297199383378029,0.11412169970571995,3.0,1.7404368985444307,,,,,,,,,,,,,,9462,Moral,2024-07-09_18h42.26.091,MoralCondition_v2,2022.2.5,30.000776966666695,
5,0,5,0,3,0,3,0,,,,,,,,,,,,,,,,,,,,,,,,,,,,,,,,,,,,,,,,,,,,,,,,,,,,,340.899816500023,340.899816500023,0.007496099919080734,0.09779549948871136,4.0,1.491372898221016,,,,,,,,,,,,,,9462,Moral,2024-07-09_18h42.26.091,MoralCondition_v2,2022.2.5,30.000776966666695,
5,0,5,0,4,0,4,0,,,,,,,,,,,,,,,,,,,,,,,,,,,,,,,,,,,,,,,,,,,,,,,,,,,,,342.4331746008247,342.4331746008247,0.006517000496387482,0.09919810108840466,2.0,1.726910701021552,,,,,,,,,,,,,,9462,Moral,2024-07-09_18h42.26.091,MoralCondition_v2,2022.2.5,30.000776966666695,
5,0,5,0,5,0,5,0,,,,,,,,,,,,,,,,,,,,,,,,,,,,,,,,,,,,,,,,,,,,,,,,,,,,,344.216850200668,344.216850200668,0.00841980054974556,0.11485549993813038,4.0,2.6073327995836735,,,,,,,,,,,,,,9462,Moral,2024-07-09_18h42.26.091,MoralCondition_v2,2022.2.5,30.000776966666695,
5,0,5,0,6,0,6,0,,,,,,,,,,,,,,,,,,,,,,,,,,,,,,,,,,,,,,,,,,,,,,,,,,,,,346.8500776011497,346.8500776011497,0.007706999778747559,0.09924389980733395,3.0,2.0257281996309757,,,,,,,,,,,,,,9462,Moral,2024-07-09_18h42.26.091,MoralCondition_v2,2022.2.5,30.000776966666695,
5,0,5,0,,,,,,,,,,,,,,,,,,,,,,,,,,,,,,,,,,,,,,,,,,,,,,,,,,,,,,,,,,,,,,,348.9169364012778,348.9169364012778,0.0006939992308616638,0.09926540032029152,4.0,1.8331321999430656,,,,,,,,9462,Moral,2024-07-09_18h42.26.091,MoralCondition_v2,2022.2.5,30.000776966666695,
6,0,6,0,0,0,0,0,,,,,,,,,,,,,,,,,,,,,,350.7835598997772,0.0002635996788740158,0.09796629846096039,356.79990770109,6.0145005993545055,356.9834628999233,356.9834628999233,0.08120659925043583,0.19787359982728958,6.031226899474859,363.0668938010931,363.0668938010931,363.0668938010931,0.08498659916222095,0.18134699948132038,368.76654520072043,368.9665173012763,6.0143897999078035,6.114441100507975,374.9665462002158,12.014500800520182,375.1000580005348,375.1000580005348,0.014690600335597992,0.11443640105426311,up,1.171697000041604,376.3332167007029,5.2599236369132996e-05,0.0974345002323389,,382.3497026003897,382.3497026003897,0.023935599252581596,0.11415630020201206,4.0,2.2248953003436327,,,,,,,375.06653309985995,375.06653309985995,,362.98323100060225,362.98323100060225,,,9462,Moral,2024-07-09_18h42.26.091,MoralCondition_v2,2022.2.5,30.000776966666695,
6,0,6,0,1,0,1,0,,,,,,,,,,,,,,,,,,,,,,,,,,,,,,,,,,,,,,,,,,,,,,,,,,,,,384.6164682004601,384.6164682004601,0.007808500900864601,0.09920939989387989,3.0,1.6922832001000643,,,,,,,,,,,,,,9462,Moral,2024-07-09_18h42.26.091,MoralCondition_v2,2022.2.5,30.000776966666695,
6,0,6,0,2,0,2,0,,,,,,,,,,,,,,,,,,,,,,,,,,,,,,,,,,,,,,,,,,,,,,,,,,,,,386.3499874006957,386.3499874006957,0.0068039000034332275,0.09953160025179386,4.0,2.4932342004030943,,,,,,,,,,,,,,9462,Moral,2024-07-09_18h42.26.091,MoralCondition_v2,2022.2.5,30.000776966666695,
6,0,6,0,3,0,3,0,,,,,,,,,,,,,,,,,,,,,,,,,,,,,,,,,,,,,,,,,,,,,,,,,,,,,388.8832240011543,388.8832240011543,0.007400300353765488,0.09779730066657066,2.0,1.758151100948453,,,,,,,,,,,,,,9462,Moral,2024-07-09_18h42.26.091,MoralCondition_v2,2022.2.5,30.000776966666695,
6,0,6,0,4,0,4,0,,,,,,,,,,,,,,,,,,,,,,,,,,,,,,,,,,,,,,,,,,,,,,,,,,,,,390.68322999961674,390.68322999961674,0.007487401366233826,0.0977570004761219,3.0,2.424642900004983,,,,,,,,,,,,,,9462,Moral,2024-07-09_18h42.26.091,MoralCondition_v2,2022.2.5,30.000776966666695,
6,0,6,0,5,0,5,0,,,,,,,,,,,,,,,,,,,,,,,,,,,,,,,,,,,,,,,,,,,,,,,,,,,,,393.1498461011797,393.1498461011797,0.007429499179124832,0.09798870049417019,3.0,2.0581999998539686,,,,,,,,,,,,,,9462,Moral,2024-07-09_18h42.26.091,MoralCondition_v2,2022.2.5,30.000776966666695,
6,0,6,0,6,0,6,0,,,,,,,,,,,,,,,,,,,,,,,,,,,,,,,,,,,,,,,,,,,,,,,,,,,,,395.26639600098133,395.26639600098133,0.008461600169539452,0.11460839956998825,4.0,1.77394749969244,,,,,,,,,,,,,,9462,Moral,2024-07-09_18h42.26.091,MoralCondition_v2,2022.2.5,30.000776966666695,
6,0,6,0,,,,,,,,,,,,,,,,,,,,,,,,,,,,,,,,,,,,,,,,,,,,,,,,,,,,,,,,,,,,,,,397.06653979979455,397.06653979979455,0.0007089003920555115,0.09928980097174644,4.0,1.1994065009057522,,,,,,,,9462,Moral,2024-07-09_18h42.26.091,MoralCondition_v2,2022.2.5,30.000776966666695,
7,0,7,0,0,0,0,0,,,,,,,,,,,,,,,,,,,,,,398.29969320073724,0.00013410113751888275,0.09929130040109158,404.31638500094414,6.015919100493193,404.4832715000957,404.4832715000957,0.0724164005368948,0.18284800089895725,6.015926901251078,410.5831302013248,410.5831302013248,410.5831302013248,0.07095320150256157,0.18272980116307735,416.2830577008426,416.4829687997699,6.015949301421642,6.115868601948023,422.4829831998795,12.01587400212884,422.6164119001478,422.6164119001478,0.01613040268421173,0.11601170152425766,up,0.9029438979923725,423.56647950038314,3.5000964999198914e-05,0.0989410001784563,,429.58289880119264,429.58289880119264,0.02561130002140999,0.11537710018455982,4.0,2.4576024003326893,,,,,,,422.5829940009862,422.5829940009862,,410.4830163009465,410.4830163009465,,,9462,Moral,2024-07-09_18h42.26.091,MoralCondition_v2,2022.2.5,30.000776966666695,
7,0,7,0,1,0,1,0,,,,,,,,,,,,,,,,,,,,,,,,,,,,,,,,,,,,,,,,,,,,,,,,,,,,,432.099892700091,432.099892700091,0.008570099249482155,0.11468680016696453,3.0,1.9071127008646727,,,,,,,,,,,,,,9462,Moral,2024-07-09_18h42.26.091,MoralCondition_v2,2022.2.5,30.000776966666695,
7,0,7,0,2,0,2,0,,,,,,,,,,,,,,,,,,,,,,,,,,,,,,,,,,,,,,,,,,,,,,,,,,,,,434.0328826010227,434.0328826010227,0.006800699979066849,0.09887129999697208,4.0,1.5264427997171879,,,,,,,,,,,,,,9462,Moral,2024-07-09_18h42.26.091,MoralCondition_v2,2022.2.5,30.000776966666695,
7,0,7,0,3,0,3,0,,,,,,,,,,,,,,,,,,,,,,,,,,,,,,,,,,,,,,,,,,,,,,,,,,,,,435.5996115002781,435.5996115002781,0.0073834992945194244,0.09834539890289307,3.0,1.7251139990985394,,,,,,,,,,,,,,9462,Moral,2024-07-09_18h42.26.091,MoralCondition_v2,2022.2.5,30.000776966666695,
7,0,7,0,4,0,4,0,,,,,,,,,,,,,,,,,,,,,,,,,,,,,,,,,,,,,,,,,,,,,,,,,,,,,437.36630210094154,437.36630210094154,0.005221100524067879,0.09920290112495422,2.0,1.5616995003074408,,,,,,,,,,,,,,9462,Moral,2024-07-09_18h42.26.091,MoralCondition_v2,2022.2.5,30.000776966666695,
7,0,7,0,5,0,5,0,,,,,,,,,,,,,,,,,,,,,,,,,,,,,,,,,,,,,,,,,,,,,,,,,,,,,438.96621780097485,438.96621780097485,0.00731000117957592,0.09830689989030361,3.0,1.825331399217248,,,,,,,,,,,,,,9462,Moral,2024-07-09_18h42.26.091,MoralCondition_v2,2022.2.5,30.000776966666695,
7,0,7,0,6,0,6,0,,,,,,,,,,,,,,,,,,,,,,,,,,,,,,,,,,,,,,,,,,,,,,,,,,,,,440.83303460106254,440.83303460106254,0.008579099550843239,0.09761190041899681,4.0,1.5898914001882076,,,,,,,,,,,,,,9462,Moral,2024-07-09_18h42.26.091,MoralCondition_v2,2022.2.5,30.000776966666695,
7,0,7,0,,,,,,,,,,,,,,,,,,,,,,,,,,,,,,,,,,,,,,,,,,,,,,,,,,,,,,,,,,,,,,,442.46636370010674,442.46636370010674,0.0006808005273342133,0.09926700033247471,4.0,1.1995610017329454,,,,,,,,9462,Moral,2024-07-09_18h42.26.091,MoralCondition_v2,2022.2.5,30.000776966666695,
8,0,8,0,0,0,0,0,,,,,,,,,,,,,,,,,,,,,,443.6998421996832,0.00025849975645542145,0.09788209944963455,449.69949970021844,6.03110939823091,449.8995974995196,449.8995974995196,0.0857538990676403,0.19799179956316948,6.031039100140333,455.98294940032065,455.98294940032065,455.98294940032065,0.0870980005711317,0.181156100705266,461.68303189985454,461.88298480026424,6.014582399278879,6.114471800625324,467.8828205000609,12.014405800029635,468.01616880111396,468.01616880111396,0.01463020034134388,0.11436039954423904,up,0.7268732991069555,468.79947520047426,5.070120096206665e-05,0.09784220159053802,,474.83303510025144,474.83303510025144,0.02446570061147213,0.13095160014927387,4.0,3.6079690996557474,,,,,,,467.9828146006912,467.9828146006912,,455.89950080029666,455.89950080029666,,,9462,Moral,2024-07-09_18h42.26.091,MoralCondition_v2,2022.2.5,30.000776966666695,
8,0,8,0,1,0,1,0,,,,,,,,,,,,,,,,,,,,,,,,,,,,,,,,,,,,,,,,,,,,,,,,,,,,,478.46623570099473,478.46623570099473,0.00523499958217144,0.09929729998111725,3.0,2.578168800100684,,,,,,,,,,,,,,9462,Moral,2024-07-09_18h42.26.091,MoralCondition_v2,2022.2.5,30.000776966666695,
8,0,8,0,2,0,2,0,,,,,,,,,,,,,,,,,,,,,,,,,,,,,,,,,,,,,,,,,,,,,,,,,,,,,481.0827516000718,481.0827516000718,0.006387799978256226,0.09925960004329681,4.0,2.560808500275016,,,,,,,,,,,,,,9462,Moral,2024-07-09_18h42.26.091,MoralCondition_v2,2022.2.5,30.000776966666695,
8,0,8,0,3,0,3,0,,,,,,,,,,,,,,,,,,,,,,,,,,,,,,,,,,,,,,,,,,,,,,,,,,,,,483.6827333010733,483.6827333010733,0.007506700232625008,0.09781569987535477,3.0,2.3251894991844893,,,,,,,,,,,,,,9462,Moral,2024-07-09_18h42.26.091,MoralCondition_v2,2022.2.5,30.000776966666695,
8,0,8,0,4,0,4,0,,,,,,,,,,,,,,,,,,,,,,,,,,,,,,,,,,,,,,,,,,,,,,,,,,,,,486.06614230014384,486.06614230014384,0.013348398730158806,0.11564029939472675,4.0,1.603701500222087,,,,,,,,,,,,,,9462,Moral,2024-07-09_18h42.26.091,MoralCondition_v2,2022.2.5,30.000776966666695,
8,0,8,0,5,0,5,0,,,,,,,,,,,,,,,,,,,,,,,,,,,,,,,,,,,,,,,,,,,,,,,,,,,,,487.6992993000895,487.6992993000895,0.006702098995447159,0.09911729954183102,4.0,1.0937807988375425,,,,,,,,,,,,,,9462,Moral,2024-07-09_18h42.26.091,MoralCondition_v2,2022.2.5,30.000776966666695,
8,0,8,0,6,0,6,0,,,,,,,,,,,,,,,,,,,,,,,,,,,,,,,,,,,,,,,,,,,,,,,,,,,,,488.8327584005892,488.8327584005892,0.00655989907681942,0.09932049922645092,3.0,2.6604716014117002,,,,,,,,,,,,,,9462,Moral,2024-07-09_18h42.26.091,MoralCondition_v2,2022.2.5,30.000776966666695,
8,0,8,0,,,,,,,,,,,,,,,,,,,,,,,,,,,,,,,,,,,,,,,,,,,,,,,,,,,,,,,,,,,,,,,491.5329401008785,491.5329401008785,0.0008206013590097427,0.09903229959309101,4.0,2.1326464004814625,,,,,,,,9462,Moral,2024-07-09_18h42.26.091,MoralCondition_v2,2022.2.5,30.000776966666695,
9,0,9,0,0,0,0,0,,,,,,,,,,,,,,,,,,,,,,493.69957200065255,0.00037059932947158813,0.09696769900619984,499.71601640060544,6.013746999204159,499.88276880048215,499.88276880048215,0.06809530034661293,0.18057999946177006,6.013606199994683,505.98293510079384,505.98293510079384,505.98293510079384,0.06590699963271618,0.18052110075950623,511.68263830058277,511.88264719955623,6.013620000332594,6.113647600635886,517.8826142009348,12.013584200292826,518.015927599743,518.015927599743,0.0137409009039402,0.11348900012671947,up,2.7038704995065928,520.7659329008311,5.990080535411835e-05,0.0976868998259306,526.7825803998858,526.7825803998858,526.7825803998858,0.011601800099015236,0.11447090096771717,4.0,3.4703933000564575,,,,,,,517.9826173000038,517.9826173000038,,505.88270270079374,505.88270270079374,,,9462,Moral,2024-07-09_18h42.26.091,MoralCondition_v2,2022.2.5,30.000776966666695,
9,0,9,0,1,0,1,0,,,,,,,,,,,,,,,,,,,,,,,,,,,,,,,,,,,,,,,,,,,,,,,,,,,,,530.2824610006064,530.2824610006064,0.0071570985019207,0.09808529913425446,4.0,1.425169600173831,,,,,,,,,,,,,,9462,Moral,2024-07-09_18h42.26.091,MoralCondition_v2,2022.2.5,30.000776966666695,
9,0,9,0,2,0,2,0,,,,,,,,,,,,,,,,,,,,,,,,,,,,,,,,,,,,,,,,,,,,,,,,,,,,,531.7492264006287,531.7492264006287,0.006944699212908745,0.09932849928736687,3.0,1.5266717001795769,,,,,,,,,,,,,,9462,Moral,2024-07-09_18h42.26.091,MoralCondition_v2,2022.2.5,30.000776966666695,
9,0,9,0,3,0,3,0,,,,,,,,,,,,,,,,,,,,,,,,,,,,,,,,,,,,,,,,,,,,,,,,,,,,,533.332996699959,533.332996699959,0.008724499493837357,0.11440529860556126,4.0,1.4730685986578465,,,,,,,,,,,,,,9462,Moral,2024-07-09_18h42.26.091,MoralCondition_v2,2022.2.5,30.000776966666695,
9,0,9,0,4,0,4,0,,,,,,,,,,,,,,,,,,,,,,,,,,,,,,,,,,,,,,,,,,,,,,,,,,,,,534.8324379995465,534.8324379995465,0.007677899673581123,0.09759839996695518,3.0,2.057634498924017,,,,,,,,,,,,,,9462,Moral,2024-07-09_18h42.26.091,MoralCondition_v2,2022.2.5,30.000776966666695,
9,0,9,0,5,0,5,0,,,,,,,,,,,,,,,,,,,,,,,,,,,,,,,,,,,,,,,,,,,,,,,,,,,,,536.9325559996068,536.9325559996068,0.007167099043726921,0.09755509905517101,4.0,1.7249478995800018,,,,,,,,,,,,,,9462,Moral,2024-07-09_18h42.26.091,MoralCondition_v2,2022.2.5,30.000776966666695,
9,0,9,0,6,0,6,0,,,,,,,,,,,,,,,,,,,,,,,,,,,,,,,,,,,,,,,,,,,,,,,,,,,,,538.6991523001343,538.6991523001343,0.00664680078625679,0.09909260086715221,4.0,1.7936432994902134,,,,,,,,,,,,,,9462,Moral,2024-07-09_18h42.26.091,MoralCondition_v2,2022.2.5,30.000776966666695,
9,0,9,0,,,,,,,,,,,,,,,,,,,,,,,,,,,,,,,,,,,,,,,,,,,,,,,,,,,,,,,,,,,,,,,540.5324230007827,540.5324230007827,0.0011601001024246216,0.0980433002114296,4.0,0.9982516001909971,,,,,,,,9462,Moral,2024-07-09_18h42.26.091,MoralCondition_v2,2022.2.5,30.000776966666695,
10,0,10,0,0,0,0,0,,,,,,,,,,,,,,,,,,,,,,541.5658761002123,0.0003394000232219696,0.09706370159983635,547.5657799001783,6.030403301119804,547.7491686996073,547.7491686996073,0.07464570179581642,0.18041150085628033,6.013668101280928,553.8324248995632,553.8324248995632,553.8324248995632,0.06372040137648582,0.16388490237295628,559.5324363000691,559.7657450996339,6.03040150180459,6.130324801430106,565.7657242007554,12.030339201912284,565.8990286011249,565.8990286011249,0.030525101348757744,0.1303110010921955,up,0.7886326983571053,566.7324491012841,4.109926521778107e-05,0.09842989966273308,572.7492584995925,572.7492584995925,572.7492584995925,0.011160999536514282,0.11494269967079163,4.0,1.8713381011039019,,,,,,,565.8324030004442,565.8324030004442,,553.7490360997617,553.7490360997617,,,9462,Moral,2024-07-09_18h42.26.091,MoralCondition_v2,2022.2.5,30.000776966666695,
10,0,10,0,1,0,1,0,,,,,,,,,,,,,,,,,,,,,,,,,,,,,,,,,,,,,,,,,,,,,,,,,,,,,574.666075700894,574.666075700894,0.00840120017528534,0.11369689926505089,4.0,1.3730143997818232,,,,,,,,,,,,,,9462,Moral,2024-07-09_18h42.26.091,MoralCondition_v2,2022.2.5,30.000776966666695,
10,0,10,0,2,0,2,0,,,,,,,,,,,,,,,,,,,,,,,,,,,,,,,,,,,,,,,,,,,,,,,,,,,,,576.0655367001891,576.0655367001891,0.007647199556231499,0.0975101999938488,3.0,1.7910471986979246,,,,,,,,,,,,,,9462,Moral,2024-07-09_18h42.26.091,MoralCondition_v2,2022.2.5,30.000776966666695,
10,0,10,0,3,0,3,0,,,,,,,,,,,,,,,,,,,,,,,,,,,,,,,,,,,,,,,,,,,,,,,,,,,,,577.899228900671,577.899228900671,0.006384300068020821,0.09908789955079556,3.0,1.3271023984998465,,,,,,,,,,,,,,9462,Moral,2024-07-09_18h42.26.091,MoralCondition_v2,2022.2.5,30.000776966666695,
10,0,10,0,4,0,4,0,,,,,,,,,,,,,,,,,,,,,,,,,,,,,,,,,,,,,,,,,,,,,,,,,,,,,579.2655909005553,579.2655909005553,0.006883200258016586,0.09779660031199455,3.0,1.2252434995025396,,,,,,,,,,,,,,9462,Moral,2024-07-09_18h42.26.091,MoralCondition_v2,2022.2.5,30.000776966666695,
10,0,10,0,5,0,5,0,,,,,,,,,,,,,,,,,,,,,,,,,,,,,,,,,,,,,,,,,,,,,,,,,,,,,580.532230200246,580.532230200246,0.006458200514316559,0.09908949956297874,2.0,1.7603293992578983,,,,,,,,,,,,,,9462,Moral,2024-07-09_18h42.26.091,MoralCondition_v2,2022.2.5,30.000776966666695,
10,0,10,0,6,0,6,0,,,,,,,,,,,,,,,,,,,,,,,,,,,,,,,,,,,,,,,,,,,,,,,,,,,,,582.3322628997266,582.3322628997266,0.007685499265789986,0.09794550016522408,4.0,2.2917855996638536,,,,,,,,,,,,,,9462,Moral,2024-07-09_18h42.26.091,MoralCondition_v2,2022.2.5,30.000776966666695,
10,0,10,0,,,,,,,,,,,,,,,,,,,,,,,,,,,,,,,,,,,,,,,,,,,,,,,,,,,,,,,,,,,,,,,584.6654637008905,584.6654637008905,0.002168700098991394,0.09750499948859215,4.0,1.2300247997045517,,,,,,,,9462,Moral,2024-07-09_18h42.26.091,MoralCondition_v2,2022.2.5,30.000776966666695,
11,0,11,0,0,0,0,0,,,,,,,,,,,,,,,,,,,,,,585.9322792999446,0.00013319961726665497,0.09937069937586784,591.9323031995445,5.999150400981307,592.0991683006287,592.0991683006287,0.058662500232458115,0.16611210070550442,5.999285800382495,598.1993173006922,598.1993173006922,598.1993173006922,0.05839820019900799,0.16596930101513863,603.8987480010837,604.0988950002939,5.9991717003285885,6.099118800833821,610.098992601037,11.999276401475072,610.2324011009187,610.2324011009187,-0.00043479911983013153,0.09918920136988163,up,1.9670025985687971,612.23218630068,5.069933831691742e-05,0.09709909930825233,,618.2653681002557,618.2653681002557,0.025802399963140488,0.13056680001318455,2.0,4.872188899666071,,,,,,,610.1819839011878,610.1819839011878,6.099184999242425,598.0989037007093,598.0989037007093,6.09919230081141,12.098908999934793,9462,Moral,2024-07-09_18h42.26.091,MoralCondition_v2,2022.2.5,30.000776966666695,
11,0,11,0,1,0,1,0,,,,,,,,,,,,,,,,,,,,,,,,,,,,,,,,,,,,,,,,,,,,,,,,,,,,,623.1656935010105,623.1656935010105,0.00705459900200367,0.09915249980986118,3.0,1.6599006988108158,,,,,,,,,,,,,,9462,Moral,2024-07-09_18h42.26.091,MoralCondition_v2,2022.2.5,30.000776966666695,
11,0,11,0,2,0,2,0,,,,,,,,,,,,,,,,,,,,,,,,,,,,,,,,,,,,,,,,,,,,,,,,,,,,,624.8655581995845,624.8655581995845,0.0072345007210969925,0.09794430062174797,4.0,1.6251641009002924,,,,,,,,,,,,,,9462,Moral,2024-07-09_18h42.26.091,MoralCondition_v2,2022.2.5,30.000776966666695,
11,0,11,0,3,0,3,0,,,,,,,,,,,,,,,,,,,,,,,,,,,,,,,,,,,,,,,,,,,,,,,,,,,,,626.5321407001466,626.5321407001466,0.006729798391461372,0.09941189922392368,3.0,1.7936786990612745,,,,,,,,,,,,,,9462,Moral,2024-07-09_18h42.26.091,MoralCondition_v2,2022.2.5,30.000776966666695,
11,0,11,0,4,0,4,0,,,,,,,,,,,,,,,,,,,,,,,,,,,,,,,,,,,,,,,,,,,,,,,,,,,,,628.3653910998255,628.3653910998255,0.00653500109910965,0.09953089989721775,3.0,1.0937763992697,,,,,,,,,,,,,,9462,Moral,2024-07-09_18h42.26.091,MoralCondition_v2,2022.2.5,30.000776966666695,
11,0,11,0,5,0,5,0,,,,,,,,,,,,,,,,,,,,,,,,,,,,,,,,,,,,,,,,,,,,,,,,,,,,,629.4986864011735,629.4986864011735,0.007065599784255028,0.09806779958307743,4.0,1.658882999792695,,,,,,,,,,,,,,9462,Moral,2024-07-09_18h42.26.091,MoralCondition_v2,2022.2.5,30.000776966666695,
11,0,11,0,6,0,6,0,,,,,,,,,,,,,,,,,,,,,,,,,,,,,,,,,,,,,,,,,,,,,,,,,,,,,631.1988411005586,631.1988411005586,0.007701201364398003,0.09747380018234253,4.0,0.8911228999495506,,,,,,,,,,,,,,9462,Moral,2024-07-09_18h42.26.091,MoralCondition_v2,2022.2.5,30.000776966666695,
11,0,11,0,,,,,,,,,,,,,,,,,,,,,,,,,,,,,,,,,,,,,,,,,,,,,,,,,,,,,,,,,,,,,,,632.132264001295,632.132264001295,0.0013833008706569672,0.09736729972064495,4.0,1.0305156987160444,,,,,,,,9462,Moral,2024-07-09_18h42.26.091,MoralCondition_v2,2022.2.5,30.000776966666695,
12,0,12,0,0,0,0,0,,,,,,,,,,,,,,,,,,,,,,633.1991103999317,0.0001324005424976349,0.09905160032212734,639.2154069002718,6.0156962014734745,639.3822438009083,639.3822438009083,0.0724663008004427,0.1826178003102541,6.015635401010513,645.4822279009968,645.4822279009968,645.4822279009968,0.07176940143108368,0.18251070193946362,651.1820091996342,651.3819915000349,6.015678500756621,6.115651400759816,657.3819663003087,12.015654601156712,657.5152915008366,657.5152915008366,0.015795402228832245,0.11572740226984024,up,1.6278499998152256,659.1819937005639,4.419870674610138e-05,0.09790429845452309,,665.1984819006175,665.1984819006175,0.02527719922363758,0.11442120000720024,3.0,4.123474400490522,,,,,,,657.481956301257,657.481956301257,,645.3820203002542,645.3820203002542,,,9462,Moral,2024-07-09_18h42.26.091,MoralCondition_v2,2022.2.5,30.000776966666695,
12,0,12,0,1,0,1,0,,,,,,,,,,,,,,,,,,,,,,,,,,,,,,,,,,,,,,,,,,,,,,,,,,,,,669.3653177004308,669.3653177004308,0.007862599566578865,0.09753029979765415,3.0,1.4241063985973597,,,,,,,,,,,,,,9462,Moral,2024-07-09_18h42.26.091,MoralCondition_v2,2022.2.5,30.000776966666695,
12,0,12,0,2,0,2,0,,,,,,,,,,,,,,,,,,,,,,,,,,,,,,,,,,,,,,,,,,,,,,,,,,,,,670.8318521007895,670.8318521007895,0.006283998489379883,0.09915979951620102,3.0,1.0273894984275103,,,,,,,,,,,,,,9462,Moral,2024-07-09_18h42.26.091,MoralCondition_v2,2022.2.5,30.000776966666695,
12,0,12,0,3,0,3,0,,,,,,,,,,,,,,,,,,,,,,,,,,,,,,,,,,,,,,,,,,,,,,,,,,,,,671.8988974001259,671.8988974001259,0.006305700168013573,0.09901070035994053,3.0,2.7439569998532534,,,,,,,,,,,,,,9462,Moral,2024-07-09_18h42.26.091,MoralCondition_v2,2022.2.5,30.000776966666695,
12,0,12,0,4,0,4,0,,,,,,,,,,,,,,,,,,,,,,,,,,,,,,,,,,,,,,,,,,,,,,,,,,,,,674.6817215010524,674.6817215010524,0.00542290136218071,0.09928150102496147,3.0,2.2281982004642487,,,,,,,,,,,,,,9462,Moral,2024-07-09_18h42.26.091,MoralCondition_v2,2022.2.5,30.000776966666695,
12,0,12,0,5,0,5,0,,,,,,,,,,,,,,,,,,,,,,,,,,,,,,,,,,,,,,,,,,,,,,,,,,,,,676.9484912008047,676.9484912008047,0.007337801158428192,0.09821600094437599,4.0,1.491941699758172,,,,,,,,,,,,,,9462,Moral,2024-07-09_18h42.26.091,MoralCondition_v2,2022.2.5,30.000776966666695,
12,0,12,0,6,0,6,0,,,,,,,,,,,,,,,,,,,,,,,,,,,,,,,,,,,,,,,,,,,,,,,,,,,,,678.4988593999296,678.4988593999296,0.008143000304698944,0.11426199972629547,4.0,1.0074627995491028,,,,,,,,,,,,,,9462,Moral,2024-07-09_18h42.26.091,MoralCondition_v2,2022.2.5,30.000776966666695,
12,0,12,0,,,,,,,,,,,,,,,,,,,,,,,,,,,,,,,,,,,,,,,,,,,,,,,,,,,,,,,,,,,,,,,679.5321414005011,679.5321414005011,0.0016938000917434692,0.09796470031142235,4.0,1.0986950006335974,,,,,,,,9462,Moral,2024-07-09_18h42.26.091,MoralCondition_v2,2022.2.5,30.000776966666695,
13,0,13,0,0,0,0,0,,,,,,,,,,,,,,,,,,,,,,680.6655436009169,0.00027209892868995667,0.09822160005569458,686.6652228999883,6.031618099659681,686.8482940997928,686.8482940997928,0.08066770061850548,0.181666299700737,6.014826299622655,692.9317045006901,692.9317045006901,692.9317045006901,0.06624620035290718,0.16482550092041492,698.6317836996168,698.8654989004135,6.031893899664283,6.131531599909067,704.8650927003473,12.03146949969232,704.9984355010092,704.9984355010092,0.03147900104522705,0.1316522005945444,up,0.7133567985147238,705.765104200691,4.2300671339035034e-05,0.0979114007204771,711.7653753999621,711.7653753999621,711.7653753999621,0.008677201345562935,0.0979883000254631,4.0,3.457151999697089,,,,,,,704.931726500392,704.931726500392,,692.848417300731,692.848417300731,,,9462,Moral,2024-07-09_18h42.26.091,MoralCondition_v2,2022.2.5,30.000776966666695,
13,0,13,0,1,0,1,0,,,,,,,,,,,,,,,,,,,,,,,,,,,,,,,,,,,,,,,,,,,,,,,,,,,,,715.2651441004127,715.2651441004127,0.0066388994455337524,0.09913929924368858,3.0,2.026911299675703,,,,,,,,,,,,,,9462,Moral,2024-07-09_18h42.26.091,MoralCondition_v2,2022.2.5,30.000776966666695,
13,0,13,0,2,0,2,0,,,,,,,,,,,,,,,,,,,,,,,,,,,,,,,,,,,,,,,,,,,,,,,,,,,,,717.3318860009313,717.3318860009313,0.0069749001413583755,0.09913459978997707,4.0,1.8597569987177849,,,,,,,,,,,,,,9462,Moral,2024-07-09_18h42.26.091,MoralCondition_v2,2022.2.5,30.000776966666695,
13,0,13,0,3,0,3,0,,,,,,,,,,,,,,,,,,,,,,,,,,,,,,,,,,,,,,,,,,,,,,,,,,,,,719.2320189997554,719.2320189997554,0.0065703000873327255,0.0986384991556406,4.0,1.2596281003206968,,,,,,,,,,,,,,9462,Moral,2024-07-09_18h42.26.091,MoralCondition_v2,2022.2.5,30.000776966666695,
13,0,13,0,4,0,4,0,,,,,,,,,,,,,,,,,,,,,,,,,,,,,,,,,,,,,,,,,,,,,,,,,,,,,720.5317716002464,720.5317716002464,0.007464101538062096,0.09801720082759857,4.0,0.9246864002197981,,,,,,,,,,,,,,9462,Moral,2024-07-09_18h42.26.091,MoralCondition_v2,2022.2.5,30.000776966666695,
13,0,13,0,5,0,5,0,,,,,,,,,,,,,,,,,,,,,,,,,,,,,,,,,,,,,,,,,,,,,,,,,,,,,721.5150565002114,721.5150565002114,0.007672000676393509,0.11403360031545162,4.0,0.8743353001773357,,,,,,,,,,,,,,9462,Moral,2024-07-09_18h42.26.091,MoralCondition_v2,2022.2.5,30.000776966666695,
13,0,13,0,6,0,6,0,,,,,,,,,,,,,,,,,,,,,,,,,,,,,,,,,,,,,,,,,,,,,,,,,,,,,722.4148310013115,722.4148310013115,0.0065790992230176926,0.098913399502635,3.0,1.2934220992028713,,,,,,,,,,,,,,9462,Moral,2024-07-09_18h42.26.091,MoralCondition_v2,2022.2.5,30.000776966666695,
13,0,13,0,,,,,,,,,,,,,,,,,,,,,,,,,,,,,,,,,,,,,,,,,,,,,,,,,,,,,,,,,,,,,,,723.7484613005072,723.7484613005072,0.0013089999556541443,0.09779400005936623,4.0,1.4309433996677399,,,,,,,,9462,Moral,2024-07-09_18h42.26.091,MoralCondition_v2,2022.2.5,30.000776966666695,
14,0,14,0,0,0,0,0,,,,,,,,,,,,,,,,,,,,,,725.2153570000082,0.00019009970128536224,0.09873810037970543,731.2315491009504,6.015331698581576,731.3984184004366,731.3984184004366,0.06918069906532764,0.18224439956247807,6.015293899923563,737.4984009005129,737.4984009005129,737.4984009005129,0.07093360088765621,0.18218760006129742,743.198189901188,743.3982877004892,6.015327900648117,6.11520279943943,749.3983923010528,12.015444099903107,749.5315710995346,749.5315710995346,0.015211401507258415,0.11536550149321556,up,0.7395984996110201,750.3149023000151,4.060007631778717e-05,0.09807749837636948,756.3146449998021,756.3146449998021,756.3146449998021,0.00787469930946827,0.09793179854750633,3.0,2.3244364988058805,,,,,,,749.4814096000046,749.4814096000046,,737.3983434997499,737.3983434997499,,,9462,Moral,2024-07-09_18h42.26.091,MoralCondition_v2,2022.2.5,30.000776966666695,
14,0,14,0,1,0,1,0,,,,,,,,,,,,,,,,,,,,,,,,,,,,,,,,,,,,,,,,,,,,,,,,,,,,,758.6814625002444,758.6814625002444,0.006853299215435982,0.09922580048441887,4.0,3.0268208999186754,,,,,,,,,,,,,,9462,Moral,2024-07-09_18h42.26.091,MoralCondition_v2,2022.2.5,30.000776966666695,
14,0,14,0,2,0,2,0,,,,,,,,,,,,,,,,,,,,,,,,,,,,,,,,,,,,,,,,,,,,,,,,,,,,,761.7480682004243,761.7480682004243,0.006968699395656586,0.09935569949448109,4.0,1.093435799703002,,,,,,,,,,,,,,9462,Moral,2024-07-09_18h42.26.091,MoralCondition_v2,2022.2.5,30.000776966666695,
14,0,14,0,3,0,3,0,,,,,,,,,,,,,,,,,,,,,,,,,,,,,,,,,,,,,,,,,,,,,,,,,,,,,762.8815921004862,762.8815921004862,0.007093299180269241,0.09788589924573898,3.0,1.358212299644947,,,,,,,,,,,,,,9462,Moral,2024-07-09_18h42.26.091,MoralCondition_v2,2022.2.5,30.000776966666695,
14,0,14,0,4,0,4,0,,,,,,,,,,,,,,,,,,,,,,,,,,,,,,,,,,,,,,,,,,,,,,,,,,,,,764.2984536010772,764.2984536010772,0.007611500099301338,0.11404740065336227,3.0,1.0742347985506058,,,,,,,,,,,,,,9462,Moral,2024-07-09_18h42.26.091,MoralCondition_v2,2022.2.5,30.000776966666695,
14,0,14,0,5,0,5,0,,,,,,,,,,,,,,,,,,,,,,,,,,,,,,,,,,,,,,,,,,,,,,,,,,,,,765.3983527012169,765.3983527012169,0.007561400532722473,0.09744139946997166,4.0,1.4913657996803522,,,,,,,,,,,,,,9462,Moral,2024-07-09_18h42.26.091,MoralCondition_v2,2022.2.5,30.000776966666695,
14,0,14,0,6,0,6,0,,,,,,,,,,,,,,,,,,,,,,,,,,,,,,,,,,,,,,,,,,,,,,,,,,,,,766.9315224010497,766.9315224010497,0.006466800346970558,0.09907610155642033,2.0,1.3606426995247602,,,,,,,,,,,,,,9462,Moral,2024-07-09_18h42.26.091,MoralCondition_v2,2022.2.5,30.000776966666695,
14,0,14,0,,,,,,,,,,,,,,,,,,,,,,,,,,,,,,,,,,,,,,,,,,,,,,,,,,,,,,,,,,,,,,,768.3313487004489,768.3313487004489,0.001417599618434906,0.09838970005512238,4.0,1.8645556010305882,,,,,,,,9462,Moral,2024-07-09_18h42.26.091,MoralCondition_v2,2022.2.5,30.000776966666695,
15,0,15,0,0,0,0,0,,,,,,,,,,,,,,,,,,,,,,770.2318377010524,0.0002668015658855438,0.09759470075368881,776.2314408011734,6.030933201313019,776.4977656006813,776.4977656006813,0.16095320135354996,0.2641858011484146,6.030858401209116,782.5313891004771,782.5313891004771,782.5313891004771,0.09408370219171047,0.19778310135006905,788.2313248012215,788.4315071012825,6.030992802232504,6.130779601633549,794.4313609004021,12.030869401991367,794.5311111006886,794.5311111006886,0.013877801597118378,0.09741970151662827,up,1.2522893995046616,795.8479904010892,5.070120096206665e-05,0.09816010110080242,,801.8814796004444,801.8814796004444,0.025059599429368973,0.131657799705863,4.0,3.540962701663375,,,,,,,794.5143659003079,794.5143659003079,,,,,,9462,Moral,2024-07-09_18h42.26.091,MoralCondition_v2,2022.2.5,30.000776966666695,
15,0,15,0,1,0,1,0,,,,,,,,,,,,,,,,,,,,,,,,,,,,,,,,,,,,,,,,,,,,,,,,,,,,,805.4480856005102,805.4480856005102,0.006996000185608864,0.0977948997169733,4.0,0.8250922001898289,,,,,,,,,,,,,,9462,Moral,2024-07-09_18h42.26.091,MoralCondition_v2,2022.2.5,30.000776966666695,
15,0,15,0,2,0,2,0,,,,,,,,,,,,,,,,,,,,,,,,,,,,,,,,,,,,,,,,,,,,,,,,,,,,,806.3315872997046,806.3315872997046,0.008766401559114456,0.11448490060865879,3.0,1.639742199331522,,,,,,,,,,,,,,9462,Moral,2024-07-09_18h42.26.091,MoralCondition_v2,2022.2.5,30.000776966666695,
15,0,15,0,3,0,3,0,,,,,,,,,,,,,,,,,,,,,,,,,,,,,,,,,,,,,,,,,,,,,,,,,,,,,807.9978280011564,807.9978280011564,0.007687600329518318,0.09779890067875385,3.0,1.1580561995506287,,,,,,,,,,,,,,9462,Moral,2024-07-09_18h42.26.091,MoralCondition_v2,2022.2.5,30.000776966666695,
15,0,15,0,4,0,4,0,,,,,,,,,,,,,,,,,,,,,,,,,,,,,,,,,,,,,,,,,,,,,,,,,,,,,809.1978514008224,809.1978514008224,0.006581399589776993,0.09940179996192455,4.0,2.0606515016406775,,,,,,,,,,,,,,9462,Moral,2024-07-09_18h42.26.091,MoralCondition_v2,2022.2.5,30.000776966666695,
15,0,15,0,5,0,5,0,,,,,,,,,,,,,,,,,,,,,,,,,,,,,,,,,,,,,,,,,,,,,,,,,,,,,811.297970701009,811.297970701009,0.0070592984557151794,0.0982469990849495,4.0,1.1587006002664566,,,,,,,,,,,,,,9462,Moral,2024-07-09_18h42.26.091,MoralCondition_v2,2022.2.5,30.000776966666695,
15,0,15,0,6,0,6,0,,,,,,,,,,,,,,,,,,,,,,,,,,,,,,,,,,,,,,,,,,,,,,,,,,,,,812.4981718007475,812.4981718007475,0.007158901542425156,0.09801920130848885,4.0,1.3260121010243893,,,,,,,,,,,,,,9462,Moral,2024-07-09_18h42.26.091,MoralCondition_v2,2022.2.5,30.000776966666695,
15,0,15,0,,,,,,,,,,,,,,,,,,,,,,,,,,,,,,,,,,,,,,,,,,,,,,,,,,,,,,,,,,,,,,,813.8646543007344,813.8646543007344,0.0017245002090930939,0.09725780040025711,4.0,1.2299627009779215,,,,,,,,9462,Moral,2024-07-09_18h42.26.091,MoralCondition_v2,2022.2.5,30.000776966666695,
16,0,16,0,0,0,0,0,,,,,,,,,,,,,,,,,,,,,,815.131637500599,0.0002964995801448822,0.09765969961881638,821.1312314011157,6.030988799408078,821.297923700884,821.297923700884,0.06500210054218769,0.16459999978542328,6.030730599537492,827.4311661999673,827.4311661999673,827.4311661999673,0.0868597999215126,0.19780400022864342,833.1311872005463,833.3311462011188,6.03091249987483,6.1308971010148525,839.3309853002429,12.030678000301123,839.4645964000374,839.4645964000374,0.031128400936722755,0.1309398002922535,up,2.678575599566102,842.1811539996415,6.869994103908539e-05,0.09776310063898563,848.1810418013483,848.1810418013483,848.1810418013483,0.008658800274133682,0.09737420082092285,2.0,2.8566114995628595,,,,,,,839.4311426002532,839.4311426002532,,827.2978771012276,827.2978771012276,,,9462,Moral,2024-07-09_18h42.26.091,MoralCondition_v2,2022.2.5,30.000776966666695,
16,0,16,0,1,0,1,0,,,,,,,,,,,,,,,,,,,,,,,,,,,,,,,,,,,,,,,,,,,,,,,,,,,,,851.0979676004499,851.0979676004499,0.008550001308321953,0.11452170088887215,3.0,4.973486600443721,,,,,,,,,,,,,,9462,Moral,2024-07-09_18h42.26.091,MoralCondition_v2,2022.2.5,30.000776966666695,
16,0,16,0,2,0,2,0,,,,,,,,,,,,,,,,,,,,,,,,,,,,,,,,,,,,,,,,,,,,,,,,,,,,,856.097873499617,856.097873499617,0.006536100059747696,0.09932689927518368,3.0,0.6936603002250195,,,,,,,,,,,,,,9462,Moral,2024-07-09_18h42.26.091,MoralCondition_v2,2022.2.5,30.000776966666695,
16,0,16,0,3,0,3,0,,,,,,,,,,,,,,,,,,,,,,,,,,,,,,,,,,,,,,,,,,,,,,,,,,,,,856.8309717010707,856.8309717010707,0.008095799013972282,0.09761359915137291,3.0,1.0905181001871824,,,,,,,,,,,,,,9462,Moral,2024-07-09_18h42.26.091,MoralCondition_v2,2022.2.5,30.000776966666695,
16,0,16,0,4,0,4,0,,,,,,,,,,,,,,,,,,,,,,,,,,,,,,,,,,,,,,,,,,,,,,,,,,,,,857.9813008010387,857.9813008010387,0.008497800678014755,0.11476590111851692,3.0,0.8402452003210783,,,,,,,,,,,,,,9462,Moral,2024-07-09_18h42.26.091,MoralCondition_v2,2022.2.5,30.000776966666695,
16,0,16,0,5,0,5,0,,,,,,,,,,,,,,,,,,,,,,,,,,,,,,,,,,,,,,,,,,,,,,,,,,,,,858.8649947997183,858.8649947997183,0.008084600791335106,0.11413360014557838,4.0,1.240259101614356,,,,,,,,,,,,,,9462,Moral,2024-07-09_18h42.26.091,MoralCondition_v2,2022.2.5,30.000776966666695,
16,0,16,0,6,0,6,0,,,,,,,,,,,,,,,,,,,,,,,,,,,,,,,,,,,,,,,,,,,,,,,,,,,,,860.1311144009233,860.1311144009233,0.006408700719475746,0.09930730052292347,4.0,1.0271509997546673,,,,,,,,,,,,,,9462,Moral,2024-07-09_18h42.26.091,MoralCondition_v2,2022.2.5,30.000776966666695,
16,0,16,0,,,,,,,,,,,,,,,,,,,,,,,,,,,,,,,,,,,,,,,,,,,,,,,,,,,,,,,,,,,,,,,861.1979611013085,861.1979611013085,0.0006699990481138229,0.09945069998502731,4.0,1.6664202995598316,,,,,,,,9462,Moral,2024-07-09_18h42.26.091,MoralCondition_v2,2022.2.5,30.000776966666695,
17,0,17,0,0,0,0,0,,,,,,,,,,,,,,,,,,,,,,862.8980077002198,0.00028670020401477814,0.09771469980478287,868.9143388997763,6.01411009952426,869.0812518000603,869.0812518000603,0.0695859007537365,0.18105130083858967,6.014091100543737,875.1809884011745,875.1809884011745,875.1809884011745,0.07291830144822598,0.1809399016201496,880.8809606004506,881.0809943005443,6.014123901724815,6.114236701279879,887.0811775010079,12.014299200847745,887.2145156003535,887.2145156003535,0.014471001923084259,0.11385960131883621,up,3.5852792989462614,890.8477934002876,5.059875547885895e-05,0.09740549884736538,,896.8645355012268,896.8645355012268,0.02521440014243126,0.11423659883439541,3.0,3.1233973000198603,,,,,,,887.1811635997146,887.1811635997146,,875.0812159013003,875.0812159013003,,,9462,Moral,2024-07-09_18h42.26.091,MoralCondition_v2,2022.2.5,30.000776966666695,
17,0,17,0,1,0,1,0,,,,,,,,,,,,,,,,,,,,,,,,,,,,,,,,,,,,,,,,,,,,,,,,,,,,,900.0307700000703,900.0307700000703,0.007224800065159798,0.09804549999535084,4.0,1.3583960011601448,,,,,,,,,,,,,,9462,Moral,2024-07-09_18h42.26.091,MoralCondition_v2,2022.2.5,30.000776966666695,
17,0,17,0,2,0,2,0,,,,,,,,,,,,,,,,,,,,,,,,,,,,,,,,,,,,,,,,,,,,,,,,,,,,,901.4309000000358,901.4309000000358,0.00696600042283535,0.09912290051579475,4.0,1.1598573010414839,,,,,,,,,,,,,,9462,Moral,2024-07-09_18h42.26.091,MoralCondition_v2,2022.2.5,30.000776966666695,
17,0,17,0,3,0,3,0,,,,,,,,,,,,,,,,,,,,,,,,,,,,,,,,,,,,,,,,,,,,,,,,,,,,,902.6309508010745,902.6309508010745,0.00714460015296936,0.09807820059359074,4.0,0.8589284010231495,,,,,,,,,,,,,,9462,Moral,2024-07-09_18h42.26.091,MoralCondition_v2,2022.2.5,30.000776966666695,
17,0,17,0,4,0,4,0,,,,,,,,,,,,,,,,,,,,,,,,,,,,,,,,,,,,,,,,,,,,,,,,,,,,,903.5309491995722,903.5309491995722,0.008197400718927383,0.09858880005776882,4.0,1.9581416007131338,,,,,,,,,,,,,,9462,Moral,2024-07-09_18h42.26.091,MoralCondition_v2,2022.2.5,30.000776966666695,
17,0,17,0,5,0,5,0,,,,,,,,,,,,,,,,,,,,,,,,,,,,,,,,,,,,,,,,,,,,,,,,,,,,,905.547776600346,905.547776600346,0.008561801165342331,0.11415040120482445,3.0,1.706650000065565,,,,,,,,,,,,,,9462,Moral,2024-07-09_18h42.26.091,MoralCondition_v2,2022.2.5,30.000776966666695,
17,0,17,0,6,0,6,0,,,,,,,,,,,,,,,,,,,,,,,,,,,,,,,,,,,,,,,,,,,,,,,,,,,,,907.2977090012282,907.2977090012282,0.00947909988462925,0.11608069948852062,3.0,1.7075554989278316,,,,,,,,,,,,,,9462,Moral,2024-07-09_18h42.26.091,MoralCondition_v2,2022.2.5,30.000776966666695,
17,0,17,0,,,,,,,,,,,,,,,,,,,,,,,,,,,,,,,,,,,,,,,,,,,,,,,,,,,,,,,,,,,,,,,909.0311332009733,909.0311332009733,0.001324700191617012,0.09842289984226227,4.0,1.4643084984272718,,,,,,,,9462,Moral,2024-07-09_18h42.26.091,MoralCondition_v2,2022.2.5,30.000776966666695,
18,0,18,0,0,0,0,0,,,,,,,,,,,,,,,,,,,,,,910.5311348997056,0.000266101211309433,0.0979239009320736,916.5309683009982,6.031257301568985,916.714074101299,916.714074101299,0.07175540179014206,0.18109040148556232,6.0145587008446455,922.8141141012311,922.8141141012311,922.8141141012311,0.07295230217278004,0.18120280094444752,928.5140930004418,928.7141194995493,6.014410901814699,6.114337000995874,934.7140171006322,12.014316501095891,934.8474174998701,934.8474174998701,0.014526201412081718,0.11438210122287273,up,1.4003868978470564,936.2807064000517,4.879944026470184e-05,0.0971101988106966,942.2808245997876,942.2808245997876,942.2808245997876,0.007947498932480812,0.09700069949030876,3.0,3.390236299484968,,,,,,,934.8140326011926,934.8140326011926,,922.7141099013388,922.7141099013388,,,9462,Moral,2024-07-09_18h42.26.091,MoralCondition_v2,2022.2.5,30.000776966666695,
18,0,18,0,1,0,1,0,,,,,,,,,,,,,,,,,,,,,,,,,,,,,,,,,,,,,,,,,,,,,,,,,,,,,945.7138750012964,945.7138750012964,0.0064118001610040665,0.09866189956665039,4.0,2.126282399520278,,,,,,,,,,,,,,9462,Moral,2024-07-09_18h42.26.091,MoralCondition_v2,2022.2.5,30.000776966666695,
18,0,18,0,2,0,2,0,,,,,,,,,,,,,,,,,,,,,,,,,,,,,,,,,,,,,,,,,,,,,,,,,,,,,947.8805206008255,947.8805206008255,0.007560199126601219,0.09754609875380993,3.0,1.4576875995844603,,,,,,,,,,,,,,9462,Moral,2024-07-09_18h42.26.091,MoralCondition_v2,2022.2.5,30.000776966666695,
18,0,18,0,3,0,3,0,,,,,,,,,,,,,,,,,,,,,,,,,,,,,,,,,,,,,,,,,,,,,,,,,,,,,949.3807491995394,949.3807491995394,0.007445100694894791,0.09779809974133968,4.0,1.5249688997864723,,,,,,,,,,,,,,9462,Moral,2024-07-09_18h42.26.091,MoralCondition_v2,2022.2.5,30.000776966666695,
18,0,18,0,4,0,4,0,,,,,,,,,,,,,,,,,,,,,,,,,,,,,,,,,,,,,,,,,,,,,,,,,,,,,950.9472276009619,950.9472276009619,0.0072435010224580765,0.09823879972100258,4.0,1.058543799445033,,,,,,,,,,,,,,9462,Moral,2024-07-09_18h42.26.091,MoralCondition_v2,2022.2.5,30.000776966666695,
18,0,18,0,5,0,5,0,,,,,,,,,,,,,,,,,,,,,,,,,,,,,,,,,,,,,,,,,,,,,,,,,,,,,952.0642144996673,952.0642144996673,0.007914599031209946,0.11437979899346828,3.0,2.1413952987641096,,,,,,,,,,,,,,9462,Moral,2024-07-09_18h42.26.091,MoralCondition_v2,2022.2.5,30.000776966666695,
18,0,18,0,6,0,6,0,,,,,,,,,,,,,,,,,,,,,,,,,,,,,,,,,,,,,,,,,,,,,,,,,,,,,954.2307619005442,954.2307619005442,0.008030299097299576,0.09904589876532555,4.0,1.5586996991187334,,,,,,,,,,,,,,9462,Moral,2024-07-09_18h42.26.091,MoralCondition_v2,2022.2.5,30.000776966666695,
18,0,18,0,,,,,,,,,,,,,,,,,,,,,,,,,,,,,,,,,,,,,,,,,,,,,,,,,,,,,,,,,,,,,,,955.8307825997472,955.8307825997472,0.0013566017150878906,0.0974625013768673,4.0,0.8972557988017797,,,,,,,,9462,Moral,2024-07-09_18h42.26.091,MoralCondition_v2,2022.2.5,30.000776966666695,
19,0,19,0,0,0,0,0,,,,,,,,,,,,,,,,,,,,,,956.764066901058,0.00028800033032894135,0.09750480018556118,962.780585700646,6.014289900660515,962.9303527995944,962.9303527995944,0.0657345000654459,0.16417870111763477,6.030810600146651,969.0640070997179,969.0640070997179,969.0640070997179,0.08598330058157444,0.19748050160706043,974.7639247998595,974.9638650007546,6.030805101618171,6.130742700770497,980.9638665001839,12.03082700073719,981.0971953012049,981.0971953012049,0.030973201617598534,0.1307793017476797,up,0.5579195991158485,981.6971992999315,3.7400051951408386e-05,0.09763279929757118,,987.7136751003563,987.7136751003563,0.025156300514936447,0.11416300013661385,3.0,3.2567972000688314,,,,,,,981.0638376008719,981.0638376008719,,968.9305391013622,968.9305391013622,,,9462,Moral,2024-07-09_18h42.26.091,MoralCondition_v2,2022.2.5,30.000776966666695,
19,0,19,0,1,0,1,0,,,,,,,,,,,,,,,,,,,,,,,,,,,,,,,,,,,,,,,,,,,,,,,,,,,,,991.030747000128,991.030747000128,0.00762300007045269,0.11381389945745468,2.0,1.7074504997581244,,,,,,,,,,,,,,9462,Moral,2024-07-09_18h42.26.091,MoralCondition_v2,2022.2.5,30.000776966666695,
19,0,19,0,2,0,2,0,,,,,,,,,,,,,,,,,,,,,,,,,,,,,,,,,,,,,,,,,,,,,,,,,,,,,992.7639739997685,992.7639739997685,0.0063637010753154755,0.09931520000100136,4.0,1.5605556014925241,,,,,,,,,,,,,,9462,Moral,2024-07-09_18h42.26.091,MoralCondition_v2,2022.2.5,30.000776966666695,
19,0,19,0,3,0,3,0,,,,,,,,,,,,,,,,,,,,,,,,,,,,,,,,,,,,,,,,,,,,,,,,,,,,,994.3639084007591,994.3639084007591,0.006654901430010796,0.09897680021822453,4.0,1.2599819991737604,,,,,,,,,,,,,,9462,Moral,2024-07-09_18h42.26.091,MoralCondition_v2,2022.2.5,30.000776966666695,
19,0,19,0,4,0,4,0,,,,,,,,,,,,,,,,,,,,,,,,,,,,,,,,,,,,,,,,,,,,,,,,,,,,,995.6638222001493,995.6638222001493,0.006566599011421204,0.09840689972043037,3.0,1.2929289992898703,,,,,,,,,,,,,,9462,Moral,2024-07-09_18h42.26.091,MoralCondition_v2,2022.2.5,30.000776966666695,
19,0,19,0,5,0,5,0,,,,,,,,,,,,,,,,,,,,,,,,,,,,,,,,,,,,,,,,,,,,,,,,,,,,,996.9970798995346,996.9970798995346,0.007587401196360588,0.0977277010679245,3.0,1.3577289003878832,,,,,,,,,,,,,,9462,Moral,2024-07-09_18h42.26.091,MoralCondition_v2,2022.2.5,30.000776966666695,
19,0,19,0,6,0,6,0,,,,,,,,,,,,,,,,,,,,,,,,,,,,,,,,,,,,,,,,,,,,,,,,,,,,,998.3968999013305,998.3968999013305,0.008050600066781044,0.0978459995239973,3.0,0.9578817002475262,,,,,,,,,,,,,,9462,Moral,2024-07-09_18h42.26.091,MoralCondition_v2,2022.2.5,30.000776966666695,
19,0,19,0,,,,,,,,,,,,,,,,,,,,,,,,,,,,,,,,,,,,,,,,,,,,,,,,,,,,,,,,,,,,,,,999.3970267996192,999.3970267996192,0.0006827004253864288,0.09910110011696815,4.0,2.46651660092175,,,,,,,,9462,Moral,2024-07-09_18h42.26.091,MoralCondition_v2,2022.2.5,30.000776966666695,
