loop.thisRepN,loop.thisTrialN,loop.thisN,loop.thisIndex,evaluate_all_emotions.thisRepN,evaluate_all_emotions.thisTrialN,evaluate_all_emotions.thisN,evaluate_all_emotions.thisIndex,sync_beep_1.started,p_port.started,p_port.stopped,sync_beep_1.stopped,sync_beep_2.started,sync_beep_2.stopped,sync_beep_3.started,sync_beep_3.stopped,sync_beep_4.started,sync_beep_4.stopped,baseline.started,p_port_2.started,p_port_2.stopped,baseline.stopped,p_port_3.started,Game_Start_Text.started,p_port_4.started,p_port_4.stopped,key_resp.started,key_resp.keys,key_resp.rt,fixation_cross.started,p_port_5.started,p_port_5.stopped,fixation_cross.stopped,p_port_6.started,player_image_intro.started,player_name_intro.started,p_port_7.started,p_port_7.stopped,p_port_8.started,player_image_offer.started,player_name_offer.started,proposed_split.started,p_port_9.started,p_port_9.stopped,proposed_split.stopped,accept_reject.started,p_port_15.started,p_port_15.stopped,accept_reject.stopped,p_port_10.started,arrow_instructions.started,offer_choice.started,p_port_11.started,p_port_11.stopped,offer_choice.keys,offer_choice.rt,Instructions_Affinity_Score.started,p_port_12.started,p_port_12.stopped,Instructions_Affinity_Score.stopped,Emotion_Image.started,AffinityScore.started,p_port_13.started,p_port_13.stopped,AffinityScore.response,AffinityScore.rt,Instruction.started,Moral_Disgust_Score.started,p_port_14.started,p_port_14.stopped,Moral_Disgust_Score.response,Moral_Disgust_Score.rt,player_image_intro.stopped,player_name_intro.stopped,player_image_offer.stopped,player_name_offer.stopped,participant,session,date,expName,psychopyVersion,frameRate,
,,,,,,,,32.018272498389706,0.0008030999451875687,0.10717849992215633,32.33283009985462,32.61614129994996,32.91602780018002,33.2329443001654,33.532912199851125,33.81612650002353,34.14949969993904,34.14949969993904,0.006337599828839302,0.10729479975998402,49.166152799967676,15.024051799904555,49.26618860010058,0.024113899562507868,0.12396599957719445,49.71619019983336,space,2.5576816997490823,,,,,,,,,,,,,,,,,,,,,,,,,,,,,,,,,,,,,,,,,,,,,,,,9560,Moral,2025-02-10_14h32.14.468,MoralCondition_v2,2022.2.5,29.99688031466091,
0,0,0,0,0,0,0,0,,,,,,,,,,,,,,,,,,,,,,52.31620329990983,0.001233699731528759,0.09853659989312291,58.31614140002057,6.031873599626124,58.54947220021859,58.54947220021859,0.09615839971229434,0.23183629987761378,6.031867299694568,64.63275119988248,64.63275119988248,64.63275119988248,0.09049769956618547,0.2152468995191157,70.333003600128,70.49947459995747,6.01518389955163,6.11516539985314,76.4994772002101,12.015224499627948,76.63284139987081,76.63284139987081,0.015457499772310257,0.11519919941201806,up,1.5451899995096028,78.21611399995163,4.750024527311325e-05,0.09761090017855167,84.23301720013842,84.23301720013842,84.23301720013842,0.010486300103366375,0.11435810010880232,2.0,6.021355799864978,,,,,,,,,,,9560,Moral,2025-02-10_14h32.14.468,MoralCondition_v2,2022.2.5,29.99688031466091,
0,0,0,0,1,0,1,0,,,,,,,,,,,,,,,,,,,,,,,,,,,,,,,,,,,,,,,,,,,,,,,,,,,,,90.29981649992988,90.29981649992988,0.00772510003298521,0.11371099995449185,6.0,4.807196100242436,,,,,,,,,,,9560,Moral,2025-02-10_14h32.14.468,MoralCondition_v2,2022.2.5,29.99688031466091,
0,0,0,0,2,0,2,0,,,,,,,,,,,,,,,,,,,,,,,,,,,,,,,,,,,,,,,,,,,,,,,,,,,,,95.1326064998284,95.1326064998284,0.009709599893540144,0.09934499999508262,3.0,3.090759100392461,,,,,,,,,,,9560,Moral,2025-02-10_14h32.14.468,MoralCondition_v2,2022.2.5,29.99688031466091,
0,0,0,0,3,0,3,0,,,,,,,,,,,,,,,,,,,,,,,,,,,,,,,,,,,,,,,,,,,,,,,,,,,,,98.28268699999899,98.28268699999899,0.00808680010959506,0.11427519982680678,3.0,2.907168200239539,,,,,,,,,,,9560,Moral,2025-02-10_14h32.14.468,MoralCondition_v2,2022.2.5,29.99688031466091,
0,0,0,0,4,0,4,0,,,,,,,,,,,,,,,,,,,,,,,,,,,,,,,,,,,,,,,,,,,,,,,,,,,,,101.23270379984751,101.23270379984751,0.010586900170892477,0.1138671999797225,3.0,4.1043799999170005,,,,,,,,,,,9560,Moral,2025-02-10_14h32.14.468,MoralCondition_v2,2022.2.5,29.99688031466091,
0,0,0,0,5,0,5,0,,,,,,,,,,,,,,,,,,,,,,,,,,,,,,,,,,,,,,,,,,,,,,,,,,,,,105.36596840014681,105.36596840014681,0.007588900160044432,0.09760779980570078,2.0,3.857568900100887,,,,,,,,,,,9560,Moral,2025-02-10_14h32.14.468,MoralCondition_v2,2022.2.5,29.99688031466091,
0,0,0,0,6,0,6,0,,,,,,,,,,,,,,,,,,,,,,,,,,,,,,,,,,,,,,,,,,,,,,,,,,,,,109.2659511002712,109.2659511002712,0.007632500026375055,0.09776639984920621,2.0,1.8247306998819113,,,,,,,,,,,9560,Moral,2025-02-10_14h32.14.468,MoralCondition_v2,2022.2.5,29.99688031466091,
0,0,0,0,,,,,,,,,,,,,,,,,,,,,,,,,,,,,,,,,,,,,,,,,,,,,,,,,,,,,,,,,,,,,,,111.13277640007436,111.13277640007436,0.0012841001152992249,0.0978947002440691,6.0,6.197526399977505,,,,,9560,Moral,2025-02-10_14h32.14.468,MoralCondition_v2,2022.2.5,29.99688031466091,
1,0,1,0,0,0,0,0,,,,,,,,,,,,,,,,,,,,,,117.36625260021538,0.0002934001386165619,0.0978888999670744,123.3660345999524,6.030750399921089,123.56601459998637,123.56601459998637,0.08840329991653562,0.19755719974637032,6.030728599987924,129.632550700102,129.632550700102,129.632550700102,0.06839819997549057,0.16404119972139597,135.33287939988077,135.566031599883,6.030734299682081,6.130810299888253,141.5660270000808,12.030729899648577,141.6993495002389,141.6993495002389,0.030814699828624725,0.13041949970647693,down,0.8457987001165748,142.59929700009525,8.219992741942406e-05,0.11473899986594915,,148.6327331000939,148.6327331000939,0.02798659959807992,0.13146529998630285,3.0,5.838135899975896,,,,,,,129.5493417000398,129.5493417000398,141.6328006000258,141.6328006000258,9560,Moral,2025-02-10_14h32.14.468,MoralCondition_v2,2022.2.5,29.99688031466091,
1,0,1,0,1,0,1,0,,,,,,,,,,,,,,,,,,,,,,,,,,,,,,,,,,,,,,,,,,,,,,,,,,,,,154.4992533000186,154.4992533000186,0.006664999760687351,0.09909829962998629,3.0,1.8273293999955058,,,,,,,,,,,9560,Moral,2025-02-10_14h32.14.468,MoralCondition_v2,2022.2.5,29.99688031466091,
1,0,1,0,2,0,2,0,,,,,,,,,,,,,,,,,,,,,,,,,,,,,,,,,,,,,,,,,,,,,,,,,,,,,156.36617710022256,156.36617710022256,0.00732870027422905,0.09769390011206269,3.0,1.4914914001710713,,,,,,,,,,,9560,Moral,2025-02-10_14h32.14.468,MoralCondition_v2,2022.2.5,29.99688031466091,
1,0,1,0,3,0,3,0,,,,,,,,,,,,,,,,,,,,,,,,,,,,,,,,,,,,,,,,,,,,,,,,,,,,,157.89922360004857,157.89922360004857,0.006975600030273199,0.0989605002105236,6.0,4.326727200299501,,,,,,,,,,,9560,Moral,2025-02-10_14h32.14.468,MoralCondition_v2,2022.2.5,29.99688031466091,
1,0,1,0,4,0,4,0,,,,,,,,,,,,,,,,,,,,,,,,,,,,,,,,,,,,,,,,,,,,,,,,,,,,,162.26587999984622,162.26587999984622,0.0077424002811312675,0.09803730016574264,6.0,2.3578691999427974,,,,,,,,,,,9560,Moral,2025-02-10_14h32.14.468,MoralCondition_v2,2022.2.5,29.99688031466091,
1,0,1,0,5,0,5,0,,,,,,,,,,,,,,,,,,,,,,,,,,,,,,,,,,,,,,,,,,,,,,,,,,,,,164.66603509988636,164.66603509988636,0.006743900012224913,0.09930669981986284,1.0,2.9268343998119235,,,,,,,,,,,9560,Moral,2025-02-10_14h32.14.468,MoralCondition_v2,2022.2.5,29.99688031466091,
1,0,1,0,6,0,6,0,,,,,,,,,,,,,,,,,,,,,,,,,,,,,,,,,,,,,,,,,,,,,,,,,,,,,167.63256380008534,167.63256380008534,0.006737999618053436,0.09910339955240488,6.0,3.293539199978113,,,,,,,,,,,9560,Moral,2025-02-10_14h32.14.468,MoralCondition_v2,2022.2.5,29.99688031466091,
1,0,1,0,,,,,,,,,,,,,,,,,,,,,,,,,,,,,,,,,,,,,,,,,,,,,,,,,,,,,,,,,,,,,,,170.9659057999961,170.9659057999961,0.0007589999586343765,0.09910390013828874,2.0,4.79940150026232,,,,,9560,Moral,2025-02-10_14h32.14.468,MoralCondition_v2,2022.2.5,29.99688031466091,
2,0,2,0,0,0,0,0,,,,,,,,,,,,,,,,,,,,,,175.7994721001014,0.00040110014379024506,0.09770820010453463,181.81589540001005,6.014474399853498,181.98264720011503,181.98264720011503,0.07600719993934035,0.18121179984882474,6.014310699887574,188.0827619000338,188.0827619000338,188.0827619000338,0.07245289999991655,0.1811978998593986,193.78253749990836,193.98262639995664,6.014421499799937,6.1141835995949805,199.98253310006112,12.014317099936306,200.115820299834,200.115820299834,0.014258199837058783,0.13095019990578294,up,1.9017312000505626,202.06585530005395,3.9999838918447495e-05,0.09784380020573735,,208.08247230015695,208.08247230015695,0.025667999871075153,0.11457879981026053,3.0,4.4232445997186005,,,,,,,187.98254080023617,187.98254080023617,200.0657659000717,200.0657659000717,9560,Moral,2025-02-10_14h32.14.468,MoralCondition_v2,2022.2.5,29.99688031466091,
2,0,2,0,1,0,1,0,,,,,,,,,,,,,,,,,,,,,,,,,,,,,,,,,,,,,,,,,,,,,,,,,,,,,212.54933470021933,212.54933470021933,0.006660799961537123,0.09910849994048476,6.0,1.8272716999053955,,,,,,,,,,,9560,Moral,2025-02-10_14h32.14.468,MoralCondition_v2,2022.2.5,29.99688031466091,
2,0,2,0,2,0,2,0,,,,,,,,,,,,,,,,,,,,,,,,,,,,,,,,,,,,,,,,,,,,,,,,,,,,,214.41568229999393,214.41568229999393,0.0075611998327076435,0.09795099962502718,3.0,2.7582803000696003,,,,,,,,,,,9560,Moral,2025-02-10_14h32.14.468,MoralCondition_v2,2022.2.5,29.99688031466091,
2,0,2,0,3,0,3,0,,,,,,,,,,,,,,,,,,,,,,,,,,,,,,,,,,,,,,,,,,,,,,,,,,,,,217.21567700011656,217.21567700011656,0.007312299683690071,0.09834969975054264,2.0,1.7252332996577024,,,,,,,,,,,9560,Moral,2025-02-10_14h32.14.468,MoralCondition_v2,2022.2.5,29.99688031466091,
2,0,2,0,4,0,4,0,,,,,,,,,,,,,,,,,,,,,,,,,,,,,,,,,,,,,,,,,,,,,,,,,,,,,218.98249209998176,218.98249209998176,0.007941000163555145,0.09863860020413995,4.0,1.958074300084263,,,,,,,,,,,9560,Moral,2025-02-10_14h32.14.468,MoralCondition_v2,2022.2.5,29.99688031466091,
2,0,2,0,5,0,5,0,,,,,,,,,,,,,,,,,,,,,,,,,,,,,,,,,,,,,,,,,,,,,,,,,,,,,220.9823723998852,220.9823723998852,0.007429900113493204,0.09759450005367398,3.0,2.5912663000635803,,,,,,,,,,,9560,Moral,2025-02-10_14h32.14.468,MoralCondition_v2,2022.2.5,29.99688031466091,
2,0,2,0,6,0,6,0,,,,,,,,,,,,,,,,,,,,,,,,,,,,,,,,,,,,,,,,,,,,,,,,,,,,,223.6156549998559,223.6156549998559,0.007834100164473057,0.09803389990702271,1.0,3.4913292001001537,,,,,,,,,,,9560,Moral,2025-02-10_14h32.14.468,MoralCondition_v2,2022.2.5,29.99688031466091,
2,0,2,0,,,,,,,,,,,,,,,,,,,,,,,,,,,,,,,,,,,,,,,,,,,,,,,,,,,,,,,,,,,,,,,227.14916600007564,227.14916600007564,0.0007500001229345798,0.09887620015069842,6.0,3.166053499560803,,,,,9560,Moral,2025-02-10_14h32.14.468,MoralCondition_v2,2022.2.5,29.99688031466091,
3,0,3,0,0,0,0,0,,,,,,,,,,,,,,,,,,,,,,230.34947289992124,0.00033559976145625114,0.0978533998131752,236.34912850009277,6.031173599883914,236.54894110001624,236.54894110001624,0.09443369973450899,0.19778219982981682,6.031095999758691,242.6492381002754,242.6492381002754,242.6492381002754,0.09712069947272539,0.1978461998514831,248.34905380010605,248.54920959984884,6.0312546994537115,6.13125789957121,254.5490838000551,12.03116469969973,254.6823640000075,254.6823640000075,0.031230099499225616,0.1310376995243132,down,0.9833718999288976,255.71593960002065,5.2900053560733795e-05,0.09806300001218915,,261.7492712000385,261.7492712000385,0.025386400055140257,0.13135690009221435,6.0,4.9736542999744415,,,,,,,242.54911459982395,242.54911459982395,254.64903970016167,254.64903970016167,9560,Moral,2025-02-10_14h32.14.468,MoralCondition_v2,2022.2.5,29.99688031466091,
3,0,3,0,1,0,1,0,,,,,,,,,,,,,,,,,,,,,,,,,,,,,,,,,,,,,,,,,,,,,,,,,,,,,266.76580630009994,266.76580630009994,0.00837669987231493,0.11392020015046,7.0,1.5397899998351932,,,,,,,,,,,9560,Moral,2025-02-10_14h32.14.468,MoralCondition_v2,2022.2.5,29.99688031466091,
3,0,3,0,2,0,2,0,,,,,,,,,,,,,,,,,,,,,,,,,,,,,,,,,,,,,,,,,,,,,,,,,,,,,268.33216700004414,268.33216700004414,0.007267099805176258,0.09760829992592335,1.0,1.6916195000521839,,,,,,,,,,,9560,Moral,2025-02-10_14h32.14.468,MoralCondition_v2,2022.2.5,29.99688031466091,
3,0,3,0,3,0,3,0,,,,,,,,,,,,,,,,,,,,,,,,,,,,,,,,,,,,,,,,,,,,,,,,,,,,,270.06562840007246,270.06562840007246,0.007369999773800373,0.09737499989569187,5.0,3.3574835998006165,,,,,,,,,,,9560,Moral,2025-02-10_14h32.14.468,MoralCondition_v2,2022.2.5,29.99688031466091,
3,0,3,0,4,0,4,0,,,,,,,,,,,,,,,,,,,,,,,,,,,,,,,,,,,,,,,,,,,,,,,,,,,,,273.46560889994726,273.46560889994726,0.006612399592995644,0.09949439996853471,6.0,2.660339499823749,,,,,,,,,,,9560,Moral,2025-02-10_14h32.14.468,MoralCondition_v2,2022.2.5,29.99688031466091,
3,0,3,0,5,0,5,0,,,,,,,,,,,,,,,,,,,,,,,,,,,,,,,,,,,,,,,,,,,,,,,,,,,,,276.18261340027675,276.18261340027675,0.008055400103330612,0.11417709989473224,7.0,1.9738834002055228,,,,,,,,,,,9560,Moral,2025-02-10_14h32.14.468,MoralCondition_v2,2022.2.5,29.99688031466091,
3,0,3,0,6,0,6,0,,,,,,,,,,,,,,,,,,,,,,,,,,,,,,,,,,,,,,,,,,,,,,,,,,,,,278.1824663002044,278.1824663002044,0.007528099697083235,0.09757929993793368,5.0,3.3912583999335766,,,,,,,,,,,9560,Moral,2025-02-10_14h32.14.468,MoralCondition_v2,2022.2.5,29.99688031466091,
3,0,3,0,,,,,,,,,,,,,,,,,,,,,,,,,,,,,,,,,,,,,,,,,,,,,,,,,,,,,,,,,,,,,,,281.6158603001386,281.6158603001386,0.0010515996254980564,0.09863849962130189,1.0,2.9652729998342693,,,,,9560,Moral,2025-02-10_14h32.14.468,MoralCondition_v2,2022.2.5,29.99688031466091,
4,0,4,0,0,0,0,0,,,,,,,,,,,,,,,,,,,,,,284.61566250026226,0.0002482999116182327,0.09749000007286668,290.61561960028484,6.030842599924654,290.8156924000941,290.8156924000941,0.08521279972046614,0.1977190999314189,6.031002699863166,296.91558040026575,296.91558040026575,296.91558040026575,0.08958509983494878,0.19752349983900785,302.61557469982654,302.8156385002658,6.0308784996159375,6.130730299744755,308.81553200026974,12.030782199464738,308.94885849999264,308.94885849999264,0.03094199951738119,0.13057889975607395,down,0.6369480001740158,309.63225100003183,4.6900007873773575e-05,0.0978795001283288,,315.64919390017167,315.64919390017167,0.026024300139397383,0.11461619986221194,5.0,2.756116199772805,,,,,,,296.8155940002762,296.8155940002762,308.9155350001529,308.9155350001529,9560,Moral,2025-02-10_14h32.14.468,MoralCondition_v2,2022.2.5,29.99688031466091,
4,0,4,0,1,0,1,0,,,,,,,,,,,,,,,,,,,,,,,,,,,,,,,,,,,,,,,,,,,,,,,,,,,,,318.44884660001844,318.44884660001844,0.006462499964982271,0.09914739988744259,6.0,3.393770100083202,,,,,,,,,,,9560,Moral,2025-02-10_14h32.14.468,MoralCondition_v2,2022.2.5,29.99688031466091,
4,0,4,0,2,0,2,0,,,,,,,,,,,,,,,,,,,,,,,,,,,,,,,,,,,,,,,,,,,,,,,,,,,,,321.88207270018756,321.88207270018756,0.007892500143498182,0.09778479998931289,4.0,3.1575156999751925,,,,,,,,,,,9560,Moral,2025-02-10_14h32.14.468,MoralCondition_v2,2022.2.5,29.99688031466091,
4,0,4,0,3,0,3,0,,,,,,,,,,,,,,,,,,,,,,,,,,,,,,,,,,,,,,,,,,,,,,,,,,,,,325.0824372000061,325.0824372000061,0.007718699984252453,0.0980187002569437,2.0,1.6245252001099288,,,,,,,,,,,9560,Moral,2025-02-10_14h32.14.468,MoralCondition_v2,2022.2.5,29.99688031466091,
4,0,4,0,4,0,4,0,,,,,,,,,,,,,,,,,,,,,,,,,,,,,,,,,,,,,,,,,,,,,,,,,,,,,326.7487224000506,326.7487224000506,0.007366000209003687,0.09798710001632571,4.0,1.857949999626726,,,,,,,,,,,9560,Moral,2025-02-10_14h32.14.468,MoralCondition_v2,2022.2.5,29.99688031466091,
4,0,4,0,5,0,5,0,,,,,,,,,,,,,,,,,,,,,,,,,,,,,,,,,,,,,,,,,,,,,,,,,,,,,328.6487628002651,328.6487628002651,0.006697199773043394,0.09891509963199496,6.0,3.0267848004586995,,,,,,,,,,,9560,Moral,2025-02-10_14h32.14.468,MoralCondition_v2,2022.2.5,29.99688031466091,
4,0,4,0,6,0,6,0,,,,,,,,,,,,,,,,,,,,,,,,,,,,,,,,,,,,,,,,,,,,,,,,,,,,,331.7154002999887,331.7154002999887,0.007326600141823292,0.09837489994242787,5.0,2.4583787000738084,,,,,,,,,,,9560,Moral,2025-02-10_14h32.14.468,MoralCondition_v2,2022.2.5,29.99688031466091,
4,0,4,0,,,,,,,,,,,,,,,,,,,,,,,,,,,,,,,,,,,,,,,,,,,,,,,,,,,,,,,,,,,,,,,334.21566529991105,334.21566529991105,0.001449699979275465,0.09759959997609258,3.0,4.13073439989239,,,,,9560,Moral,2025-02-10_14h32.14.468,MoralCondition_v2,2022.2.5,29.99688031466091,
5,0,5,0,0,0,0,0,,,,,,,,,,,,,,,,,,,,,,338.3824908998795,0.00013850023970007896,0.09930170001462102,344.39873309992254,6.015820600092411,344.5652960999869,344.5652960999869,0.07467840006574988,0.18246740009635687,6.0156800001859665,350.66547510027885,350.66547510027885,350.66547510027885,0.08012259984388947,0.18276769993826747,356.3653887002729,356.5654072999023,6.015815699938685,6.115751700010151,362.5653840000741,12.01579670002684,362.69870509998873,362.69870509998873,0.01594540011137724,0.11572520015761256,down,2.886481899768114,365.63222410017624,3.4699682146310806e-05,0.09833239996805787,,371.6486011999659,371.6486011999659,0.02754470007494092,0.11470859963446856,4.0,2.5216743000783026,,,,,,,350.56544549996033,350.56544549996033,362.66535890009254,362.66535890009254,9560,Moral,2025-02-10_14h32.14.468,MoralCondition_v2,2022.2.5,29.99688031466091,
5,0,5,0,1,0,1,0,,,,,,,,,,,,,,,,,,,,,,,,,,,,,,,,,,,,,,,,,,,,,,,,,,,,,374.2153904000297,374.2153904000297,0.006511799991130829,0.09906589984893799,6.0,4.560336800292134,,,,,,,,,,,9560,Moral,2025-02-10_14h32.14.468,MoralCondition_v2,2022.2.5,29.99688031466091,
5,0,5,0,2,0,2,0,,,,,,,,,,,,,,,,,,,,,,,,,,,,,,,,,,,,,,,,,,,,,,,,,,,,,378.83221280016005,378.83221280016005,0.008230600040405989,0.11443990003317595,3.0,1.9402223001234233,,,,,,,,,,,9560,Moral,2025-02-10_14h32.14.468,MoralCondition_v2,2022.2.5,29.99688031466091,
5,0,5,0,3,0,3,0,,,,,,,,,,,,,,,,,,,,,,,,,,,,,,,,,,,,,,,,,,,,,,,,,,,,,380.79844650020823,380.79844650020823,0.00754089979454875,0.0980370999313891,5.0,2.824687300249934,,,,,,,,,,,9560,Moral,2025-02-10_14h32.14.468,MoralCondition_v2,2022.2.5,29.99688031466091,
5,0,5,0,4,0,4,0,,,,,,,,,,,,,,,,,,,,,,,,,,,,,,,,,,,,,,,,,,,,,,,,,,,,,383.665159100201,383.665159100201,0.006801299750804901,0.09925640001893044,5.0,1.8600838999263942,,,,,,,,,,,9560,Moral,2025-02-10_14h32.14.468,MoralCondition_v2,2022.2.5,29.99688031466091,
5,0,5,0,5,0,5,0,,,,,,,,,,,,,,,,,,,,,,,,,,,,,,,,,,,,,,,,,,,,,,,,,,,,,385.5653574001044,385.5653574001044,0.007461900357156992,0.09806910017505288,6.0,1.4248314001597464,,,,,,,,,,,9560,Moral,2025-02-10_14h32.14.468,MoralCondition_v2,2022.2.5,29.99688031466091,
5,0,5,0,6,0,6,0,,,,,,,,,,,,,,,,,,,,,,,,,,,,,,,,,,,,,,,,,,,,,,,,,,,,,387.03186349989846,387.03186349989846,0.007218700367957354,0.09906500019133091,6.0,1.5263892002403736,,,,,,,,,,,9560,Moral,2025-02-10_14h32.14.468,MoralCondition_v2,2022.2.5,29.99688031466091,
5,0,5,0,,,,,,,,,,,,,,,,,,,,,,,,,,,,,,,,,,,,,,,,,,,,,,,,,,,,,,,,,,,,,,,388.5984952999279,388.5984952999279,0.001379100140184164,0.09813030017539859,2.0,6.664855299983174,,,,,9560,Moral,2025-02-10_14h32.14.468,MoralCondition_v2,2022.2.5,29.99688031466091,
6,0,6,0,0,0,0,0,,,,,,,,,,,,,,,,,,,,,,395.29862659983337,0.000305399764329195,0.09800849994644523,401.2985549001023,6.031339599750936,401.49866579985246,401.49866579985246,0.08711599977687001,0.1982614998705685,6.031131999567151,407.5983755001798,407.5983755001798,407.5983755001798,0.08675079979002476,0.19797749957069755,413.29875579988584,413.4986077998765,6.031452899798751,6.1312693995423615,419.4984925999306,12.031304999720305,419.63197119999677,419.63197119999677,0.031685099471360445,0.13119429955258965,up,0.4495629998855293,420.13175390008837,3.91998328268528e-05,0.0977777000516653,426.14874120010063,426.14874120010063,426.14874120010063,0.008740200195461512,0.11451820004731417,3.0,5.373291699681431,,,,,,,407.4985454999842,407.4985454999842,419.59871130017564,419.59871130017564,9560,Moral,2025-02-10_14h32.14.468,MoralCondition_v2,2022.2.5,29.99688031466091,
6,0,6,0,1,0,1,0,,,,,,,,,,,,,,,,,,,,,,,,,,,,,,,,,,,,,,,,,,,,,,,,,,,,,431.54860510025173,431.54860510025173,0.007946799974888563,0.09734400035813451,2.0,2.3238081000745296,,,,,,,,,,,9560,Moral,2025-02-10_14h32.14.468,MoralCondition_v2,2022.2.5,29.99688031466091,
6,0,6,0,2,0,2,0,,,,,,,,,,,,,,,,,,,,,,,,,,,,,,,,,,,,,,,,,,,,,,,,,,,,,433.91519950004295,433.91519950004295,0.00672199996188283,0.0992046999745071,1.0,2.1933738999068737,,,,,,,,,,,9560,Moral,2025-02-10_14h32.14.468,MoralCondition_v2,2022.2.5,29.99688031466091,
6,0,6,0,3,0,3,0,,,,,,,,,,,,,,,,,,,,,,,,,,,,,,,,,,,,,,,,,,,,,,,,,,,,,436.14851049985737,436.14851049985737,0.007412299979478121,0.09824660001322627,3.0,1.491539299953729,,,,,,,,,,,9560,Moral,2025-02-10_14h32.14.468,MoralCondition_v2,2022.2.5,29.99688031466091,
6,0,6,0,4,0,4,0,,,,,,,,,,,,,,,,,,,,,,,,,,,,,,,,,,,,,,,,,,,,,,,,,,,,,437.698598400224,437.698598400224,0.008479500189423561,0.11406200006604195,6.0,2.2065042997710407,,,,,,,,,,,9560,Moral,2025-02-10_14h32.14.468,MoralCondition_v2,2022.2.5,29.99688031466091,
6,0,6,0,5,0,5,0,,,,,,,,,,,,,,,,,,,,,,,,,,,,,,,,,,,,,,,,,,,,,,,,,,,,,439.93177790008485,439.93177790008485,0.007165899965912104,0.09786360012367368,4.0,1.7251474997028708,,,,,,,,,,,9560,Moral,2025-02-10_14h32.14.468,MoralCondition_v2,2022.2.5,29.99688031466091,
6,0,6,0,6,0,6,0,,,,,,,,,,,,,,,,,,,,,,,,,,,,,,,,,,,,,,,,,,,,,,,,,,,,,441.6985371001065,441.6985371001065,0.0073667000979185104,0.09780779993161559,3.0,2.5247756000608206,,,,,,,,,,,9560,Moral,2025-02-10_14h32.14.468,MoralCondition_v2,2022.2.5,29.99688031466091,
6,0,6,0,,,,,,,,,,,,,,,,,,,,,,,,,,,,,,,,,,,,,,,,,,,,,,,,,,,,,,,,,,,,,,,444.265222299844,444.265222299844,0.0007012002170085907,0.09918830031529069,6.0,4.03338890010491,,,,,9560,Moral,2025-02-10_14h32.14.468,MoralCondition_v2,2022.2.5,29.99688031466091,
7,0,7,0,0,0,0,0,,,,,,,,,,,,,,,,,,,,,,448.33178270002827,0.0003242003731429577,0.09828880010172725,454.3316740002483,6.031561300158501,454.5316999000497,454.5316999000497,0.0913161002099514,0.19841419998556376,6.031570000108331,460.63180149998516,460.63180149998516,460.63180149998516,0.08728390000760555,0.1984175001271069,466.33184360014275,466.5316778998822,6.0315680000931025,6.131467199884355,472.53167660022154,12.031516800168902,472.6649365001358,472.6649365001358,0.031676100101321936,0.13151809992268682,up,0.9042574996128678,473.6316039999947,4.3400097638368607e-05,0.09744409983977675,479.6483180001378,479.6483180001378,479.6483180001378,0.009091499727219343,0.11422700015828013,3.0,1.80605429969728,,,,,,,460.53163080010563,460.53163080010563,472.6316018002108,472.6316018002108,9560,Moral,2025-02-10_14h32.14.468,MoralCondition_v2,2022.2.5,29.99688031466091,
7,0,7,0,1,0,1,0,,,,,,,,,,,,,,,,,,,,,,,,,,,,,,,,,,,,,,,,,,,,,,,,,,,,,481.48137579998,481.48137579998,0.007404299918562174,0.09759330004453659,3.0,2.0910943001508713,,,,,,,,,,,9560,Moral,2025-02-10_14h32.14.468,MoralCondition_v2,2022.2.5,29.99688031466091,
7,0,7,0,2,0,2,0,,,,,,,,,,,,,,,,,,,,,,,,,,,,,,,,,,,,,,,,,,,,,,,,,,,,,483.6147480001673,483.6147480001673,0.007884100079536438,0.09795180009678006,4.0,1.8578947000205517,,,,,,,,,,,9560,Moral,2025-02-10_14h32.14.468,MoralCondition_v2,2022.2.5,29.99688031466091,
7,0,7,0,3,0,3,0,,,,,,,,,,,,,,,,,,,,,,,,,,,,,,,,,,,,,,,,,,,,,,,,,,,,,485.514939900022,485.514939900022,0.006797600071877241,0.09881879994645715,1.0,2.026613799855113,,,,,,,,,,,9560,Moral,2025-02-10_14h32.14.468,MoralCondition_v2,2022.2.5,29.99688031466091,
7,0,7,0,4,0,4,0,,,,,,,,,,,,,,,,,,,,,,,,,,,,,,,,,,,,,,,,,,,,,,,,,,,,,487.58148769987747,487.58148769987747,0.0074754999950528145,0.09787769988179207,2.0,3.6915980000048876,,,,,,,,,,,9560,Moral,2025-02-10_14h32.14.468,MoralCondition_v2,2022.2.5,29.99688031466091,
7,0,7,0,5,0,5,0,,,,,,,,,,,,,,,,,,,,,,,,,,,,,,,,,,,,,,,,,,,,,,,,,,,,,491.33162799989805,491.33162799989805,0.00783849973231554,0.11408190010115504,2.0,3.207334699574858,,,,,,,,,,,9560,Moral,2025-02-10_14h32.14.468,MoralCondition_v2,2022.2.5,29.99688031466091,
7,0,7,0,6,0,6,0,,,,,,,,,,,,,,,,,,,,,,,,,,,,,,,,,,,,,,,,,,,,,,,,,,,,,494.56492780009285,494.56492780009285,0.006935499608516693,0.09821209963411093,7.0,2.559403299819678,,,,,,,,,,,9560,Moral,2025-02-10_14h32.14.468,MoralCondition_v2,2022.2.5,29.99688031466091,
7,0,7,0,,,,,,,,,,,,,,,,,,,,,,,,,,,,,,,,,,,,,,,,,,,,,,,,,,,,,,,,,,,,,,,497.1647832002491,497.1647832002491,0.0020811003632843494,0.09753260016441345,6.0,2.5303981001488864,,,,,9560,Moral,2025-02-10_14h32.14.468,MoralCondition_v2,2022.2.5,29.99688031466091,
8,0,8,0,0,0,0,0,,,,,,,,,,,,,,,,,,,,,,499.7316843001172,0.0002522999420762062,0.09788860008120537,505.73145470023155,6.031296100001782,505.9314482999034,505.9314482999034,0.08788299979642034,0.19779830006882548,6.031225599814206,512.0148827000521,512.0148827000521,512.0148827000521,0.08108159992843866,0.18138179974630475,517.714840600267,517.9149557999335,6.014730399940163,6.114272699691355,523.9147156002,12.014506899751723,524.0311985001899,524.0311985001899,0.014315499458462,0.11469979956746101,down,0.9786151996813715,525.0480593000539,3.820005804300308e-05,0.11433060001581907,531.0646982998587,531.0646982998587,531.0646982998587,0.009332300163805485,0.11438800022006035,6.0,3.6393106002360582,,,,,,,511.931367599871,511.931367599871,524.0145584000275,524.0145584000275,9560,Moral,2025-02-10_14h32.14.468,MoralCondition_v2,2022.2.5,29.99688031466091,
8,0,8,0,1,0,1,0,,,,,,,,,,,,,,,,,,,,,,,,,,,,,,,,,,,,,,,,,,,,,,,,,,,,,534.7314443001524,534.7314443001524,0.007455499842762947,0.09773749997839332,6.0,1.825321499723941,,,,,,,,,,,9560,Moral,2025-02-10_14h32.14.468,MoralCondition_v2,2022.2.5,29.99688031466091,
8,0,8,0,2,0,2,0,,,,,,,,,,,,,,,,,,,,,,,,,,,,,,,,,,,,,,,,,,,,,,,,,,,,,536.6646153000183,536.6646153000183,0.006679200101643801,0.16551370033994317,5.0,2.559718399774283,,,,,,,,,,,9560,Moral,2025-02-10_14h32.14.468,MoralCondition_v2,2022.2.5,29.99688031466091,
8,0,8,0,3,0,3,0,,,,,,,,,,,,,,,,,,,,,,,,,,,,,,,,,,,,,,,,,,,,,,,,,,,,,539.1978596001863,539.1978596001863,0.005408300086855888,0.1158448001369834,6.0,2.061755199916661,,,,,,,,,,,9560,Moral,2025-02-10_14h32.14.468,MoralCondition_v2,2022.2.5,29.99688031466091,
8,0,8,0,4,0,4,0,,,,,,,,,,,,,,,,,,,,,,,,,,,,,,,,,,,,,,,,,,,,,,,,,,,,,541.2981198001653,541.2981198001653,0.007370600011199713,0.09776319982483983,2.0,1.9917315999045968,,,,,,,,,,,9560,Moral,2025-02-10_14h32.14.468,MoralCondition_v2,2022.2.5,29.99688031466091,
8,0,8,0,5,0,5,0,,,,,,,,,,,,,,,,,,,,,,,,,,,,,,,,,,,,,,,,,,,,,,,,,,,,,543.3313600998372,543.3313600998372,0.009156299754977226,0.0992514998652041,7.0,1.9910762999206781,,,,,,,,,,,9560,Moral,2025-02-10_14h32.14.468,MoralCondition_v2,2022.2.5,29.99688031466091,
8,0,8,0,6,0,6,0,,,,,,,,,,,,,,,,,,,,,,,,,,,,,,,,,,,,,,,,,,,,,,,,,,,,,545.3645717999898,545.3645717999898,0.007157800253480673,0.09921470005065203,5.0,2.25968290027231,,,,,,,,,,,9560,Moral,2025-02-10_14h32.14.468,MoralCondition_v2,2022.2.5,29.99688031466091,
8,0,8,0,,,,,,,,,,,,,,,,,,,,,,,,,,,,,,,,,,,,,,,,,,,,,,,,,,,,,,,,,,,,,,,547.664686200209,547.664686200209,0.0013657999224960804,0.0977605995722115,1.0,3.264366500079632,,,,,9560,Moral,2025-02-10_14h32.14.468,MoralCondition_v2,2022.2.5,29.99688031466091,
9,0,9,0,0,0,0,0,,,,,,,,,,,,,,,,,,,,,,550.9647407000884,0.0005118995904922485,0.09725409979000688,556.9812612002715,6.013897799886763,557.1477199001238,557.1477199001238,0.07326359953731298,0.18067199969664216,6.01389279961586,563.2480155001394,563.2480155001394,563.2480155001394,0.06602069968357682,0.18058699974790215,568.9480722001754,569.1478895000182,6.013884799554944,6.113791499752551,575.1478674001992,12.01386209949851,575.2811723998748,575.2811723998748,0.014095899648964405,0.11375629948452115,down,0.591992300003767,575.9145126999356,6.379978731274605e-05,0.09764029970392585,581.9144275002182,581.9144275002182,581.9144275002182,0.009513999801129103,0.09759450005367398,5.0,4.122362399939448,,,,,,,563.147923800163,563.147923800163,575.2478038999252,575.2478038999252,9560,Moral,2025-02-10_14h32.14.468,MoralCondition_v2,2022.2.5,29.99688031466091,
9,0,9,0,1,0,1,0,,,,,,,,,,,,,,,,,,,,,,,,,,,,,,,,,,,,,,,,,,,,,,,,,,,,,586.097773199901,586.097773199901,0.009288900066167116,0.11604000022634864,6.0,2.641101500019431,,,,,,,,,,,9560,Moral,2025-02-10_14h32.14.468,MoralCondition_v2,2022.2.5,29.99688031466091,
9,0,9,0,2,0,2,0,,,,,,,,,,,,,,,,,,,,,,,,,,,,,,,,,,,,,,,,,,,,,,,,,,,,,588.764453700278,588.764453700278,0.007330600172281265,0.09801959991455078,7.0,1.1916471002623439,,,,,,,,,,,9560,Moral,2025-02-10_14h32.14.468,MoralCondition_v2,2022.2.5,29.99688031466091,
9,0,9,0,3,0,3,0,,,,,,,,,,,,,,,,,,,,,,,,,,,,,,,,,,,,,,,,,,,,,,,,,,,,,589.9979086001404,589.9979086001404,0.006841199938207865,0.09915579995140433,6.0,3.3267544000409544,,,,,,,,,,,9560,Moral,2025-02-10_14h32.14.468,MoralCondition_v2,2022.2.5,29.99688031466091,
9,0,9,0,4,0,4,0,,,,,,,,,,,,,,,,,,,,,,,,,,,,,,,,,,,,,,,,,,,,,,,,,,,,,593.3644464001991,593.3644464001991,0.008171000052243471,0.09768150001764297,1.0,1.690444199834019,,,,,,,,,,,9560,Moral,2025-02-10_14h32.14.468,MoralCondition_v2,2022.2.5,29.99688031466091,
9,0,9,0,5,0,5,0,,,,,,,,,,,,,,,,,,,,,,,,,,,,,,,,,,,,,,,,,,,,,,,,,,,,,595.1145975999534,595.1145975999534,0.008309600409120321,0.11448810016736388,5.0,2.040283899754286,,,,,,,,,,,9560,Moral,2025-02-10_14h32.14.468,MoralCondition_v2,2022.2.5,29.99688031466091,
9,0,9,0,6,0,6,0,,,,,,,,,,,,,,,,,,,,,,,,,,,,,,,,,,,,,,,,,,,,,,,,,,,,,597.1811676002108,597.1811676002108,0.006553899962455034,0.09952470008283854,7.0,1.6936585996299982,,,,,,,,,,,9560,Moral,2025-02-10_14h32.14.468,MoralCondition_v2,2022.2.5,29.99688031466091,
9,0,9,0,,,,,,,,,,,,,,,,,,,,,,,,,,,,,,,,,,,,,,,,,,,,,,,,,,,,,,,,,,,,,,,598.9144798000343,598.9144798000343,0.0013589002192020416,0.09740930004045367,1.0,3.497341400012374,,,,,9560,Moral,2025-02-10_14h32.14.468,MoralCondition_v2,2022.2.5,29.99688031466091,
10,0,10,0,0,0,0,0,,,,,,,,,,,,,,,,,,,,,,602.4479793999344,0.00015259999781847,0.09927469957619905,608.4645365001634,6.015934699680656,608.6308765001595,608.6308765001595,0.06888929987326264,0.1826033997349441,6.015826099552214,614.7309277998284,614.7309277998284,614.7309277998284,0.06861879955977201,0.18282919935882092,620.4310049000196,620.631009799894,6.015937799587846,6.115899999625981,626.6309648002498,12.015898099634796,626.7643964998424,626.7643964998424,0.016053699422627687,0.11580649949610233,down,1.8928499999456108,628.6976227001287,4.989979788661003e-05,0.09772739978507161,634.6976280002855,634.6976280002855,634.6976280002855,0.008586599957197905,0.09791920008137822,5.0,3.023530500009656,,,,,,,614.6142762000673,614.6142762000673,626.7309683999047,626.7309683999047,9560,Moral,2025-02-10_14h32.14.468,MoralCondition_v2,2022.2.5,29.99688031466091,
10,0,10,0,1,0,1,0,,,,,,,,,,,,,,,,,,,,,,,,,,,,,,,,,,,,,,,,,,,,,,,,,,,,,637.7809064998291,637.7809064998291,0.009042399935424328,0.11434450000524521,5.0,3.4729020996019244,,,,,,,,,,,9560,Moral,2025-02-10_14h32.14.468,MoralCondition_v2,2022.2.5,29.99688031466091,
10,0,10,0,2,0,2,0,,,,,,,,,,,,,,,,,,,,,,,,,,,,,,,,,,,,,,,,,,,,,,,,,,,,,641.2809625002556,641.2809625002556,0.007158400025218725,0.09922540001571178,3.0,2.759786699898541,,,,,,,,,,,9560,Moral,2025-02-10_14h32.14.468,MoralCondition_v2,2022.2.5,29.99688031466091,
10,0,10,0,3,0,3,0,,,,,,,,,,,,,,,,,,,,,,,,,,,,,,,,,,,,,,,,,,,,,,,,,,,,,644.0809189998545,644.0809189998545,0.007440300192683935,0.09803880006074905,5.0,3.6916292998939753,,,,,,,,,,,9560,Moral,2025-02-10_14h32.14.468,MoralCondition_v2,2022.2.5,29.99688031466091,
10,0,10,0,4,0,4,0,,,,,,,,,,,,,,,,,,,,,,,,,,,,,,,,,,,,,,,,,,,,,,,,,,,,,647.8142506000586,647.8142506000586,0.006769599858671427,0.09907229989767075,4.0,1.7267157002352178,,,,,,,,,,,9560,Moral,2025-02-10_14h32.14.468,MoralCondition_v2,2022.2.5,29.99688031466091,
10,0,10,0,5,0,5,0,,,,,,,,,,,,,,,,,,,,,,,,,,,,,,,,,,,,,,,,,,,,,,,,,,,,,649.5806750999764,649.5806750999764,0.007170099765062332,0.09794239979237318,4.0,1.858538500033319,,,,,,,,,,,9560,Moral,2025-02-10_14h32.14.468,MoralCondition_v2,2022.2.5,29.99688031466091,
10,0,10,0,6,0,6,0,,,,,,,,,,,,,,,,,,,,,,,,,,,,,,,,,,,,,,,,,,,,,,,,,,,,,651.4808382000774,651.4808382000774,0.00628919992595911,0.09903459995985031,5.0,2.5936733996495605,,,,,,,,,,,9560,Moral,2025-02-10_14h32.14.468,MoralCondition_v2,2022.2.5,29.99688031466091,
10,0,10,0,,,,,,,,,,,,,,,,,,,,,,,,,,,,,,,,,,,,,,,,,,,,,,,,,,,,,,,,,,,,,,,654.1142531000078,654.1142531000078,0.0007215999066829681,0.09896099986508489,3.0,3.2996344002895057,,,,,9560,Moral,2025-02-10_14h32.14.468,MoralCondition_v2,2022.2.5,29.99688031466091,
11,0,11,0,0,0,0,0,,,,,,,,,,,,,,,,,,,,,,657.4478401001543,0.0001439000479876995,0.0990061997435987,663.4641165002249,6.015564700122923,663.6307477001101,663.6307477001101,0.07445279974490404,0.18257619999349117,6.015635299962014,669.7306317999028,669.7306317999028,669.7306317999028,0.07657219981774688,0.18225199962034822,675.4309463002719,675.6307661999017,6.015709599945694,6.115625099744648,681.6307326001115,12.015592299867421,681.7639151001349,681.7639151001349,0.015722699463367462,0.11551989940926433,up,0.5730859995819628,682.3974143001251,5.349982529878616e-05,0.09782499959692359,688.3976293001324,688.3976293001324,688.3976293001324,0.009197999723255634,0.09769739955663681,4.0,2.5226975004188716,,,,,,,669.6307657998987,669.6307657998987,681.7307128999382,681.7307128999382,9560,Moral,2025-02-10_14h32.14.468,MoralCondition_v2,2022.2.5,29.99688031466091,
11,0,11,0,1,0,1,0,,,,,,,,,,,,,,,,,,,,,,,,,,,,,,,,,,,,,,,,,,,,,,,,,,,,,690.9807529998943,690.9807529998943,0.008650699630379677,0.11401719972491264,3.0,3.8730476000346243,,,,,,,,,,,9560,Moral,2025-02-10_14h32.14.468,MoralCondition_v2,2022.2.5,29.99688031466091,
11,0,11,0,2,0,2,0,,,,,,,,,,,,,,,,,,,,,,,,,,,,,,,,,,,,,,,,,,,,,,,,,,,,,694.8806151999161,694.8806151999161,0.006481499876827002,0.09918899973854423,1.0,2.0935394996777177,,,,,,,,,,,9560,Moral,2025-02-10_14h32.14.468,MoralCondition_v2,2022.2.5,29.99688031466091,
11,0,11,0,3,0,3,0,,,,,,,,,,,,,,,,,,,,,,,,,,,,,,,,,,,,,,,,,,,,,,,,,,,,,697.0140526001342,697.0140526001342,0.007876900024712086,0.0978140002116561,3.0,2.257461500354111,,,,,,,,,,,9560,Moral,2025-02-10_14h32.14.468,MoralCondition_v2,2022.2.5,29.99688031466091,
11,0,11,0,4,0,4,0,,,,,,,,,,,,,,,,,,,,,,,,,,,,,,,,,,,,,,,,,,,,,,,,,,,,,699.313759600278,699.313759600278,0.007343399804085493,0.09721639985218644,4.0,2.2578230001963675,,,,,,,,,,,9560,Moral,2025-02-10_14h32.14.468,MoralCondition_v2,2022.2.5,29.99688031466091,
11,0,11,0,5,0,5,0,,,,,,,,,,,,,,,,,,,,,,,,,,,,,,,,,,,,,,,,,,,,,,,,,,,,,701.6139000002295,701.6139000002295,0.005738799925893545,0.09974720003083348,7.0,2.1946817999705672,,,,,,,,,,,9560,Moral,2025-02-10_14h32.14.468,MoralCondition_v2,2022.2.5,29.99688031466091,
11,0,11,0,6,0,6,0,,,,,,,,,,,,,,,,,,,,,,,,,,,,,,,,,,,,,,,,,,,,,,,,,,,,,703.8473133998923,703.8473133998923,0.006901300046592951,0.09820850007236004,1.0,2.5592220001854002,,,,,,,,,,,9560,Moral,2025-02-10_14h32.14.468,MoralCondition_v2,2022.2.5,29.99688031466091,
11,0,11,0,,,,,,,,,,,,,,,,,,,,,,,,,,,,,,,,,,,,,,,,,,,,,,,,,,,,,,,,,,,,,,,706.447299899999,706.447299899999,0.0013180999085307121,0.0976108000613749,6.0,2.6641600001603365,,,,,9560,Moral,2025-02-10_14h32.14.468,MoralCondition_v2,2022.2.5,29.99688031466091,
12,0,12,0,0,0,0,0,,,,,,,,,,,,,,,,,,,,,,709.1474445001222,0.00027980003505945206,0.09801479987800121,715.1639088001102,6.014494999777526,715.3305517998524,715.3305517998524,0.07165839988738298,0.18148639984428883,6.014471699949354,721.4310921998695,721.4310921998695,721.4310921998695,0.0750324996188283,0.18123489990830421,727.1304943999276,727.3305513998494,6.014550699852407,6.114271499682218,733.3305537998676,12.014542199671268,733.4637926002033,733.4637926002033,0.014686999842524529,0.11426589963957667,down,0.6171069997362792,734.1304353000596,5.010003224015236e-05,0.09768430003896356,,740.1639148001559,740.1639148001559,0.02649229997768998,0.13141650008037686,5.0,3.372300799936056,,,,,,,721.3305333000608,721.3305333000608,733.4304696000181,733.4304696000181,9560,Moral,2025-02-10_14h32.14.468,MoralCondition_v2,2022.2.5,29.99688031466091,
12,0,12,0,1,0,1,0,,,,,,,,,,,,,,,,,,,,,,,,,,,,,,,,,,,,,,,,,,,,,,,,,,,,,743.5635953000747,743.5635953000747,0.007658000104129314,0.09766469988971949,6.0,1.7242447999306023,,,,,,,,,,,9560,Moral,2025-02-10_14h32.14.468,MoralCondition_v2,2022.2.5,29.99688031466091,
12,0,12,0,2,0,2,0,,,,,,,,,,,,,,,,,,,,,,,,,,,,,,,,,,,,,,,,,,,,,,,,,,,,,745.3303713002242,745.3303713002242,0.007235299795866013,0.09811619995161891,1.0,1.8916376000270247,,,,,,,,,,,9560,Moral,2025-02-10_14h32.14.468,MoralCondition_v2,2022.2.5,29.99688031466091,
12,0,12,0,3,0,3,0,,,,,,,,,,,,,,,,,,,,,,,,,,,,,,,,,,,,,,,,,,,,,,,,,,,,,747.2635305002332,747.2635305002332,0.006694700103253126,0.09886649996042252,7.0,2.193176200147718,,,,,,,,,,,9560,Moral,2025-02-10_14h32.14.468,MoralCondition_v2,2022.2.5,29.99688031466091,
12,0,12,0,4,0,4,0,,,,,,,,,,,,,,,,,,,,,,,,,,,,,,,,,,,,,,,,,,,,,,,,,,,,,749.5139905000106,749.5139905000106,0.00833109999075532,0.11449499987065792,6.0,1.873656699899584,,,,,,,,,,,9560,Moral,2025-02-10_14h32.14.468,MoralCondition_v2,2022.2.5,29.99688031466091,
12,0,12,0,5,0,5,0,,,,,,,,,,,,,,,,,,,,,,,,,,,,,,,,,,,,,,,,,,,,,,,,,,,,,751.4138136999682,751.4138136999682,0.007290099747478962,0.09900459973141551,5.0,1.5928865997120738,,,,,,,,,,,9560,Moral,2025-02-10_14h32.14.468,MoralCondition_v2,2022.2.5,29.99688031466091,
12,0,12,0,6,0,6,0,,,,,,,,,,,,,,,,,,,,,,,,,,,,,,,,,,,,,,,,,,,,,,,,,,,,,753.0470794001594,753.0470794001594,0.006418399978429079,0.09913929970934987,5.0,2.0271076997742057,,,,,,,,,,,9560,Moral,2025-02-10_14h32.14.468,MoralCondition_v2,2022.2.5,29.99688031466091,
12,0,12,0,,,,,,,,,,,,,,,,,,,,,,,,,,,,,,,,,,,,,,,,,,,,,,,,,,,,,,,,,,,,,,,755.1136062000878,755.1136062000878,0.0020755003206431866,0.09731260035187006,1.0,3.163050400093198,,,,,9560,Moral,2025-02-10_14h32.14.468,MoralCondition_v2,2022.2.5,29.99688031466091,
13,0,13,0,0,0,0,0,,,,,,,,,,,,,,,,,,,,,,758.3137980001047,0.00017559994012117386,0.09933879971504211,764.3305287999101,6.015949000138789,764.4969152002595,764.4969152002595,0.07054089987650514,0.18274550000205636,6.015897299628705,770.5969964000396,770.5969964000396,770.5969964000396,0.07103949971497059,0.18262129975482821,776.2971763000824,776.4968129000627,6.015726399607956,6.115761699620634,782.4971532998607,12.016149299684912,782.6301659001037,782.6301659001037,0.016228399705141783,0.11583789950236678,up,0.347632999997586,783.0302534000948,2.259993925690651e-05,0.09792830003425479,789.0468979999423,789.0468979999423,789.0468979999423,0.009597599972039461,0.11466219974681735,4.0,5.205921499989927,,,,,,,770.4972254000604,770.4972254000604,782.5970797999762,782.5970797999762,9560,Moral,2025-02-10_14h32.14.468,MoralCondition_v2,2022.2.5,29.99688031466091,
13,0,13,0,1,0,1,0,,,,,,,,,,,,,,,,,,,,,,,,,,,,,,,,,,,,,,,,,,,,,,,,,,,,,794.2802220000885,794.2802220000885,0.006134300027042627,0.0993938003666699,1.0,1.6608551000244915,,,,,,,,,,,9560,Moral,2025-02-10_14h32.14.468,MoralCondition_v2,2022.2.5,29.99688031466091,
13,0,13,0,2,0,2,0,,,,,,,,,,,,,,,,,,,,,,,,,,,,,,,,,,,,,,,,,,,,,,,,,,,,,795.9801066000946,795.9801066000946,0.007570600137114525,0.09790570009499788,4.0,3.291638100054115,,,,,,,,,,,9560,Moral,2025-02-10_14h32.14.468,MoralCondition_v2,2022.2.5,29.99688031466091,
13,0,13,0,3,0,3,0,,,,,,,,,,,,,,,,,,,,,,,,,,,,,,,,,,,,,,,,,,,,,,,,,,,,,799.3134608999826,799.3134608999826,0.0067263999953866005,0.09909790009260178,1.0,2.0269193002022803,,,,,,,,,,,9560,Moral,2025-02-10_14h32.14.468,MoralCondition_v2,2022.2.5,29.99688031466091,
13,0,13,0,4,0,4,0,,,,,,,,,,,,,,,,,,,,,,,,,,,,,,,,,,,,,,,,,,,,,,,,,,,,,801.3802052000538,801.3802052000538,0.006454899907112122,0.09930829983204603,7.0,2.0938169001601636,,,,,,,,,,,9560,Moral,2025-02-10_14h32.14.468,MoralCondition_v2,2022.2.5,29.99688031466091,
13,0,13,0,5,0,5,0,,,,,,,,,,,,,,,,,,,,,,,,,,,,,,,,,,,,,,,,,,,,,,,,,,,,,803.513490000274,803.513490000274,0.006401999853551388,0.0989932999946177,4.0,2.860502100083977,,,,,,,,,,,9560,Moral,2025-02-10_14h32.14.468,MoralCondition_v2,2022.2.5,29.99688031466091,
13,0,13,0,6,0,6,0,,,,,,,,,,,,,,,,,,,,,,,,,,,,,,,,,,,,,,,,,,,,,,,,,,,,,806.4303676001728,806.4303676001728,0.007608100306242704,0.1143422001041472,4.0,1.6409172001294792,,,,,,,,,,,9560,Moral,2025-02-10_14h32.14.468,MoralCondition_v2,2022.2.5,29.99688031466091,
13,0,13,0,,,,,,,,,,,,,,,,,,,,,,,,,,,,,,,,,,,,,,,,,,,,,,,,,,,,,,,,,,,,,,,808.0968693001196,808.0968693001196,0.0016104001551866531,0.09740650001913309,6.0,2.7301574000157416,,,,,9560,Moral,2025-02-10_14h32.14.468,MoralCondition_v2,2022.2.5,29.99688031466091,
14,0,14,0,0,0,0,0,,,,,,,,,,,,,,,,,,,,,,810.8638905999251,0.0003372998908162117,0.09751949971541762,816.8634322001599,6.030782700050622,817.0466243000701,817.0466243000701,0.07273769984021783,0.18091819994151592,6.014078699517995,823.1469300999306,823.1469300999306,823.1469300999306,0.07478039944544435,0.18077659979462624,828.8466399000026,829.0467687998898,6.014195599593222,6.114018899854273,835.0466840001754,12.01404479984194,835.179987099953,835.179987099953,0.014255499467253685,0.11394729977473617,up,0.5330496001988649,835.7633424000815,4.449998959898949e-05,0.09770039981231093,841.7631717999466,841.7631717999466,841.7631717999466,0.0063912998884916306,0.09784319996833801,7.0,1.3254599999636412,,,,,,,823.0467496002093,823.0467496002093,835.1467205998488,835.1467205998488,9560,Moral,2025-02-10_14h32.14.468,MoralCondition_v2,2022.2.5,29.99688031466091,
14,0,14,0,1,0,1,0,,,,,,,,,,,,,,,,,,,,,,,,,,,,,,,,,,,,,,,,,,,,,,,,,,,,,843.1299940999597,843.1299940999597,0.007385999895632267,0.09777829982340336,4.0,2.2581359003670514,,,,,,,,,,,9560,Moral,2025-02-10_14h32.14.468,MoralCondition_v2,2022.2.5,29.99688031466091,
14,0,14,0,2,0,2,0,,,,,,,,,,,,,,,,,,,,,,,,,,,,,,,,,,,,,,,,,,,,,,,,,,,,,845.430084799882,845.430084799882,0.007005900144577026,0.09909729985520244,1.0,2.1598319998010993,,,,,,,,,,,9560,Moral,2025-02-10_14h32.14.468,MoralCondition_v2,2022.2.5,29.99688031466091,
14,0,14,0,3,0,3,0,,,,,,,,,,,,,,,,,,,,,,,,,,,,,,,,,,,,,,,,,,,,,,,,,,,,,847.6297806999646,847.6297806999646,0.007490099873393774,0.09847649978473783,1.0,1.3253633002750576,,,,,,,,,,,9560,Moral,2025-02-10_14h32.14.468,MoralCondition_v2,2022.2.5,29.99688031466091,
14,0,14,0,4,0,4,0,,,,,,,,,,,,,,,,,,,,,,,,,,,,,,,,,,,,,,,,,,,,,,,,,,,,,848.9964823001064,848.9964823001064,0.006138999946415424,0.09904749970883131,3.0,4.860476300120354,,,,,,,,,,,9560,Moral,2025-02-10_14h32.14.468,MoralCondition_v2,2022.2.5,29.99688031466091,
14,0,14,0,5,0,5,0,,,,,,,,,,,,,,,,,,,,,,,,,,,,,,,,,,,,,,,,,,,,,,,,,,,,,853.9134093001485,853.9134093001485,0.007509300019592047,0.11438619997352362,3.0,1.5746169998310506,,,,,,,,,,,9560,Moral,2025-02-10_14h32.14.468,MoralCondition_v2,2022.2.5,29.99688031466091,
14,0,14,0,6,0,6,0,,,,,,,,,,,,,,,,,,,,,,,,,,,,,,,,,,,,,,,,,,,,,,,,,,,,,855.5130973998457,855.5130973998457,0.007612599991261959,0.09919529967010021,3.0,2.0257426002062857,,,,,,,,,,,9560,Moral,2025-02-10_14h32.14.468,MoralCondition_v2,2022.2.5,29.99688031466091,
14,0,14,0,,,,,,,,,,,,,,,,,,,,,,,,,,,,,,,,,,,,,,,,,,,,,,,,,,,,,,,,,,,,,,,857.5798372998834,857.5798372998834,0.0007011000998318195,0.09915310004726052,6.0,2.1331185000017285,,,,,9560,Moral,2025-02-10_14h32.14.468,MoralCondition_v2,2022.2.5,29.99688031466091,
15,0,15,0,0,0,0,0,,,,,,,,,,,,,,,,,,,,,,859.7467948999256,0.00028540007770061493,0.09797589993104339,865.7465109000914,6.031288700178266,865.9297495000064,865.9297495000064,0.0685419999063015,0.18130639987066388,6.014727100264281,872.0301242000423,872.0301242000423,872.0301242000423,0.06775050004944205,0.1813990999944508,877.7298225001432,877.9298176998273,6.01460069976747,6.1145636001601815,883.9297923999839,12.014569299761206,884.0631126002409,884.0631126002409,0.014824999962002039,0.11453829985111952,down,0.9467688999138772,885.0631101001054,3.970041871070862e-05,0.0978413000702858,,891.0966210998595,891.0966210998595,0.02711260039359331,0.13115320028737187,6.0,3.271741900127381,,,,,,,871.9298661001958,871.9298661001958,884.0297838998958,884.0297838998958,9560,Moral,2025-02-10_14h32.14.468,MoralCondition_v2,2022.2.5,29.99688031466091,
15,0,15,0,1,0,1,0,,,,,,,,,,,,,,,,,,,,,,,,,,,,,,,,,,,,,,,,,,,,,,,,,,,,,894.4132961002178,894.4132961002178,0.007988799829035997,0.11450419994071126,5.0,1.9073723000474274,,,,,,,,,,,9560,Moral,2025-02-10_14h32.14.468,MoralCondition_v2,2022.2.5,29.99688031466091,
15,0,15,0,2,0,2,0,,,,,,,,,,,,,,,,,,,,,,,,,,,,,,,,,,,,,,,,,,,,,,,,,,,,,896.3463753000833,896.3463753000833,0.007236099801957607,0.09836799977347255,2.0,2.9252051999792457,,,,,,,,,,,9560,Moral,2025-02-10_14h32.14.468,MoralCondition_v2,2022.2.5,29.99688031466091,
15,0,15,0,3,0,3,0,,,,,,,,,,,,,,,,,,,,,,,,,,,,,,,,,,,,,,,,,,,,,,,,,,,,,899.3132993001491,899.3132993001491,0.007214599754661322,0.09850180009379983,5.0,2.4590966999530792,,,,,,,,,,,9560,Moral,2025-02-10_14h32.14.468,MoralCondition_v2,2022.2.5,29.99688031466091,
15,0,15,0,4,0,4,0,,,,,,,,,,,,,,,,,,,,,,,,,,,,,,,,,,,,,,,,,,,,,,,,,,,,,901.8132754000835,901.8132754000835,0.006594600155949593,0.09917949978262186,7.0,1.7936446997337043,,,,,,,,,,,9560,Moral,2025-02-10_14h32.14.468,MoralCondition_v2,2022.2.5,29.99688031466091,
15,0,15,0,5,0,5,0,,,,,,,,,,,,,,,,,,,,,,,,,,,,,,,,,,,,,,,,,,,,,,,,,,,,,903.6630724999122,903.6630724999122,0.00803960021585226,0.11418789997696877,5.0,2.1071905996650457,,,,,,,,,,,9560,Moral,2025-02-10_14h32.14.468,MoralCondition_v2,2022.2.5,29.99688031466091,
15,0,15,0,6,0,6,0,,,,,,,,,,,,,,,,,,,,,,,,,,,,,,,,,,,,,,,,,,,,,,,,,,,,,905.8132581999525,905.8132581999525,0.009232900105416775,0.11427630018442869,6.0,1.7726334002800286,,,,,,,,,,,9560,Moral,2025-02-10_14h32.14.468,MoralCondition_v2,2022.2.5,29.99688031466091,
15,0,15,0,,,,,,,,,,,,,,,,,,,,,,,,,,,,,,,,,,,,,,,,,,,,,,,,,,,,,,,,,,,,,,,907.6130701000802,907.6130701000802,0.0014587999321520329,0.09774130024015903,2.0,2.763723600190133,,,,,9560,Moral,2025-02-10_14h32.14.468,MoralCondition_v2,2022.2.5,29.99688031466091,
16,0,16,0,0,0,0,0,,,,,,,,,,,,,,,,,,,,,,910.4132469999604,0.00014289980754256248,0.09913060022518039,916.4296834999695,6.015809900127351,916.5964986998588,916.5964986998588,0.07391809998080134,0.18239599978551269,6.015716800000519,922.6965585001744,922.6965585001744,922.6965585001744,0.07077590003609657,0.18239849992096424,928.3964923000894,928.596257600002,6.015728199854493,6.115838899742812,934.5962061001919,12.015677299816161,934.7295622001402,934.7295622001402,0.015971099957823753,0.11566379992291331,up,0.48786329943686724,935.2795859999023,4.859967157244682e-05,0.09785009967163205,,941.3131658998318,941.3131658998318,0.026989099569618702,0.13117099972441792,2.0,3.5385989998467267,,,,,,,922.5962435002439,922.5962435002439,934.6962497001514,934.6962497001514,9560,Moral,2025-02-10_14h32.14.468,MoralCondition_v2,2022.2.5,29.99688031466091,
16,0,16,0,1,0,1,0,,,,,,,,,,,,,,,,,,,,,,,,,,,,,,,,,,,,,,,,,,,,,,,,,,,,,944.8795050000772,944.8795050000772,0.0066513000056147575,0.09910150012001395,3.0,2.1934551997110248,,,,,,,,,,,9560,Moral,2025-02-10_14h32.14.468,MoralCondition_v2,2022.2.5,29.99688031466091,
16,0,16,0,2,0,2,0,,,,,,,,,,,,,,,,,,,,,,,,,,,,,,,,,,,,,,,,,,,,,,,,,,,,,947.1126707000658,947.1126707000658,0.007587899919599295,0.09757319977506995,3.0,3.0245186001993716,,,,,,,,,,,9560,Moral,2025-02-10_14h32.14.468,MoralCondition_v2,2022.2.5,29.99688031466091,
16,0,16,0,3,0,3,0,,,,,,,,,,,,,,,,,,,,,,,,,,,,,,,,,,,,,,,,,,,,,,,,,,,,,950.1963213998824,950.1963213998824,0.007731599733233452,0.1144821997731924,3.0,2.774274400435388,,,,,,,,,,,9560,Moral,2025-02-10_14h32.14.468,MoralCondition_v2,2022.2.5,29.99688031466091,
16,0,16,0,4,0,4,0,,,,,,,,,,,,,,,,,,,,,,,,,,,,,,,,,,,,,,,,,,,,,,,,,,,,,952.9960433999076,952.9960433999076,0.008583900053054094,0.09745110012590885,4.0,1.9901061998680234,,,,,,,,,,,9560,Moral,2025-02-10_14h32.14.468,MoralCondition_v2,2022.2.5,29.99688031466091,
16,0,16,0,5,0,5,0,,,,,,,,,,,,,,,,,,,,,,,,,,,,,,,,,,,,,,,,,,,,,,,,,,,,,955.0297749000601,955.0297749000601,0.007499299943447113,0.0977866998873651,1.0,1.4247710001654923,,,,,,,,,,,9560,Moral,2025-02-10_14h32.14.468,MoralCondition_v2,2022.2.5,29.99688031466091,
16,0,16,0,6,0,6,0,,,,,,,,,,,,,,,,,,,,,,,,,,,,,,,,,,,,,,,,,,,,,,,,,,,,,956.4961675000377,956.4961675000377,0.006997900083661079,0.09800060000270605,7.0,1.7920718002133071,,,,,,,,,,,9560,Moral,2025-02-10_14h32.14.468,MoralCondition_v2,2022.2.5,29.99688031466091,
16,0,16,0,,,,,,,,,,,,,,,,,,,,,,,,,,,,,,,,,,,,,,,,,,,,,,,,,,,,,,,,,,,,,,,958.329716200009,958.329716200009,0.0019421996548771858,0.09773899987339973,6.0,1.563996100332588,,,,,9560,Moral,2025-02-10_14h32.14.468,MoralCondition_v2,2022.2.5,29.99688031466091,
17,0,17,0,0,0,0,0,,,,,,,,,,,,,,,,,,,,,,959.929541700054,0.00020369980484247208,0.09860209980979562,965.9460916002281,6.015071699861437,966.1126582999714,966.1126582999714,0.06959210010245442,0.18188609974458814,6.0150366998277605,972.1961493999697,972.1961493999697,972.1961493999697,0.0664017996750772,0.16527129989117384,977.8961698999628,978.1293410002254,6.031730799935758,6.131557199638337,984.1293772002682,12.031765699852258,984.262690000236,984.262690000236,0.031871999613940716,0.13163509964942932,up,0.6188610997051001,984.9293332002126,4.519987851381302e-05,0.09735310031101108,990.9291965998709,990.9291965998709,990.9291965998709,0.00877969991415739,0.097178699914366,3.0,2.456409600097686,,,,,,,972.1127235000022,972.1127235000022,984.1960473000072,984.1960473000072,9560,Moral,2025-02-10_14h32.14.468,MoralCondition_v2,2022.2.5,29.99688031466091,
17,0,17,0,1,0,1,0,,,,,,,,,,,,,,,,,,,,,,,,,,,,,,,,,,,,,,,,,,,,,,,,,,,,,993.4292422002181,993.4292422002181,0.007122899871319532,0.09822539985179901,3.0,2.0253110001794994,,,,,,,,,,,9560,Moral,2025-02-10_14h32.14.468,MoralCondition_v2,2022.2.5,29.99688031466091,
17,0,17,0,2,0,2,0,,,,,,,,,,,,,,,,,,,,,,,,,,,,,,,,,,,,,,,,,,,,,,,,,,,,,995.5128271998838,995.5128271998838,0.007809200324118137,0.11415169993415475,7.0,1.5739739001728594,,,,,,,,,,,9560,Moral,2025-02-10_14h32.14.468,MoralCondition_v2,2022.2.5,29.99688031466091,
17,0,17,0,3,0,3,0,,,,,,,,,,,,,,,,,,,,,,,,,,,,,,,,,,,,,,,,,,,,,,,,,,,,,997.112626099959,997.112626099959,0.006844199728220701,0.09950229991227388,4.0,1.560260699596256,,,,,,,,,,,9560,Moral,2025-02-10_14h32.14.468,MoralCondition_v2,2022.2.5,29.99688031466091,
17,0,17,0,4,0,4,0,,,,,,,,,,,,,,,,,,,,,,,,,,,,,,,,,,,,,,,,,,,,,,,,,,,,,998.7293871999718,998.7293871999718,0.008649100083857775,0.11483070021495223,2.0,2.57371580041945,,,,,,,,,,,9560,Moral,2025-02-10_14h32.14.468,MoralCondition_v2,2022.2.5,29.99688031466091,
17,0,17,0,5,0,5,0,,,,,,,,,,,,,,,,,,,,,,,,,,,,,,,,,,,,,,,,,,,,,,,,,,,,,1001.3459956999868,1001.3459956999868,0.007815100252628326,0.11444070003926754,1.0,1.1074930997565389,,,,,,,,,,,9560,Moral,2025-02-10_14h32.14.468,MoralCondition_v2,2022.2.5,29.99688031466091,
17,0,17,0,6,0,6,0,,,,,,,,,,,,,,,,,,,,,,,,,,,,,,,,,,,,,,,,,,,,,,,,,,,,,1002.4957523001358,1002.4957523001358,0.011485000140964985,0.11385210044682026,3.0,2.036783799994737,,,,,,,,,,,9560,Moral,2025-02-10_14h32.14.468,MoralCondition_v2,2022.2.5,29.99688031466091,
17,0,17,0,,,,,,,,,,,,,,,,,,,,,,,,,,,,,,,,,,,,,,,,,,,,,,,,,,,,,,,,,,,,,,,1004.562876299955,1004.562876299955,0.0009268000721931458,0.09878129977732897,6.0,2.232214800082147,,,,,9560,Moral,2025-02-10_14h32.14.468,MoralCondition_v2,2022.2.5,29.99688031466091,
18,0,18,0,0,0,0,0,,,,,,,,,,,,,,,,,,,,,,1006.829397500027,0.0003172997385263443,0.09798689978197217,1012.8292243001051,6.0313458000309765,1013.0294252000749,1013.0294252000749,0.08359049959108233,0.19817749969661236,6.03116749972105,1019.0958131002262,1019.0958131002262,1019.0958131002262,0.06374299945309758,0.16480049956589937,1024.7958066002466,1025.029155400116,6.031282699666917,6.1312570995651186,1031.029089000076,12.031214999500662,1031.1457941001281,1031.1457941001281,0.014541199430823326,0.11450609937310219,up,0.6633073999546468,1031.8624288998544,4.779966548085213e-05,0.09759549982845783,,1037.8957805000246,1037.8957805000246,0.025677199941128492,0.1310517000965774,1.0,2.273070899769664,,,,,,,1019.012410600204,1019.012410600204,1031.0790058001876,1031.0790058001876,9560,Moral,2025-02-10_14h32.14.468,MoralCondition_v2,2022.2.5,29.99688031466091,
18,0,18,0,1,0,1,0,,,,,,,,,,,,,,,,,,,,,,,,,,,,,,,,,,,,,,,,,,,,,,,,,,,,,1040.1955724,1040.1955724,0.00727490009739995,0.09801619965583086,3.0,1.3251900998875499,,,,,,,,,,,9560,Moral,2025-02-10_14h32.14.468,MoralCondition_v2,2022.2.5,29.99688031466091,
18,0,18,0,2,0,2,0,,,,,,,,,,,,,,,,,,,,,,,,,,,,,,,,,,,,,,,,,,,,,,,,,,,,,1041.5623371000402,1041.5623371000402,0.006470500025898218,0.09913440002128482,3.0,1.5935812997631729,,,,,,,,,,,9560,Moral,2025-02-10_14h32.14.468,MoralCondition_v2,2022.2.5,29.99688031466091,
18,0,18,0,3,0,3,0,,,,,,,,,,,,,,,,,,,,,,,,,,,,,,,,,,,,,,,,,,,,,,,,,,,,,1043.1956728999503,1043.1956728999503,0.007948500104248524,0.09832270024344325,7.0,1.957926600240171,,,,,,,,,,,9560,Moral,2025-02-10_14h32.14.468,MoralCondition_v2,2022.2.5,29.99688031466091,
18,0,18,0,4,0,4,0,,,,,,,,,,,,,,,,,,,,,,,,,,,,,,,,,,,,,,,,,,,,,,,,,,,,,1045.1955756000243,1045.1955756000243,0.006527800112962723,0.09920979989692569,4.0,2.0602246997877955,,,,,,,,,,,9560,Moral,2025-02-10_14h32.14.468,MoralCondition_v2,2022.2.5,29.99688031466091,
18,0,18,0,5,0,5,0,,,,,,,,,,,,,,,,,,,,,,,,,,,,,,,,,,,,,,,,,,,,,,,,,,,,,1047.29588040011,1047.29588040011,0.00664159981533885,0.09953240025788546,2.0,2.1605585999786854,,,,,,,,,,,9560,Moral,2025-02-10_14h32.14.468,MoralCondition_v2,2022.2.5,29.99688031466091,
18,0,18,0,6,0,6,0,,,,,,,,,,,,,,,,,,,,,,,,,,,,,,,,,,,,,,,,,,,,,,,,,,,,,1049.4956510001794,1049.4956510001794,0.006662100087851286,0.0982222999446094,4.0,2.1925278999842703,,,,,,,,,,,9560,Moral,2025-02-10_14h32.14.468,MoralCondition_v2,2022.2.5,29.99688031466091,
18,0,18,0,,,,,,,,,,,,,,,,,,,,,,,,,,,,,,,,,,,,,,,,,,,,,,,,,,,,,,,,,,,,,,,1051.7292315000668,1051.7292315000668,0.0013426998630166054,0.09769580001011491,6.0,1.7976534999907017,,,,,9560,Moral,2025-02-10_14h32.14.468,MoralCondition_v2,2022.2.5,29.99688031466091,
19,0,19,0,0,0,0,0,,,,,,,,,,,,,,,,,,,,,,1053.5625295001082,0.00013610022142529488,0.09899060009047389,1059.5789776002057,6.015615500044078,1059.745627200231,1059.745627200231,0.07415280025452375,0.1825882000848651,6.015572200063616,1065.8457328001969,1065.8457328001969,1065.8457328001969,0.07411069981753826,0.18233529990538955,1071.5455781999044,1071.7456979001872,6.015750600025058,6.115575000178069,1077.745598600246,12.015650699846447,1077.8789372001775,1077.8789372001775,0.015804499853402376,0.11554559972137213,down,1.0347933997400105,1078.9622340998612,4.6900007873773575e-05,0.09802820021286607,1084.9624292999506,1084.9624292999506,1084.9624292999506,0.008365200366824865,0.09767730021849275,6.0,1.3574997000396252,,,,,,,1065.7456343001686,1065.7456343001686,1077.8455584002659,1077.8455584002659,9560,Moral,2025-02-10_14h32.14.468,MoralCondition_v2,2022.2.5,29.99688031466091,
19,0,19,0,1,0,1,0,,,,,,,,,,,,,,,,,,,,,,,,,,,,,,,,,,,,,,,,,,,,,,,,,,,,,1086.3622838999145,1086.3622838999145,0.009163400158286095,0.09906719997525215,7.0,2.324242299888283,,,,,,,,,,,9560,Moral,2025-02-10_14h32.14.468,MoralCondition_v2,2022.2.5,29.99688031466091,
19,0,19,0,2,0,2,0,,,,,,,,,,,,,,,,,,,,,,,,,,,,,,,,,,,,,,,,,,,,,,,,,,,,,1088.7287212000228,1088.7287212000228,0.007722700014710426,0.0993801997974515,5.0,1.5924895997159183,,,,,,,,,,,9560,Moral,2025-02-10_14h32.14.468,MoralCondition_v2,2022.2.5,29.99688031466091,
19,0,19,0,3,0,3,0,,,,,,,,,,,,,,,,,,,,,,,,,,,,,,,,,,,,,,,,,,,,,,,,,,,,,1090.3789658001624,1090.3789658001624,0.008720500394701958,0.11453080037608743,5.0,2.439988199621439,,,,,,,,,,,9560,Moral,2025-02-10_14h32.14.468,MoralCondition_v2,2022.2.5,29.99688031466091,
19,0,19,0,4,0,4,0,,,,,,,,,,,,,,,,,,,,,,,,,,,,,,,,,,,,,,,,,,,,,,,,,,,,,1092.8623644998297,1092.8623644998297,0.00822970038279891,0.11464940011501312,6.0,2.17409129999578,,,,,,,,,,,9560,Moral,2025-02-10_14h32.14.468,MoralCondition_v2,2022.2.5,29.99688031466091,
19,0,19,0,5,0,5,0,,,,,,,,,,,,,,,,,,,,,,,,,,,,,,,,,,,,,,,,,,,,,,,,,,,,,1095.0621624998748,1095.0621624998748,0.007364300079643726,0.09778909990563989,1.0,2.3581588002853096,,,,,,,,,,,9560,Moral,2025-02-10_14h32.14.468,MoralCondition_v2,2022.2.5,29.99688031466091,
19,0,19,0,6,0,6,0,,,,,,,,,,,,,,,,,,,,,,,,,,,,,,,,,,,,,,,,,,,,,,,,,,,,,1097.4623316000216,1097.4623316000216,0.007207999937236309,0.0991613999940455,7.0,2.726334400009364,,,,,,,,,,,9560,Moral,2025-02-10_14h32.14.468,MoralCondition_v2,2022.2.5,29.99688031466091,
19,0,19,0,,,,,,,,,,,,,,,,,,,,,,,,,,,,,,,,,,,,,,,,,,,,,,,,,,,,,,,,,,,,,,,1100.2288132002577,1100.2288132002577,0.0013741999864578247,0.09760760003700852,1.0,2.7643891000188887,,,,,9560,Moral,2025-02-10_14h32.14.468,MoralCondition_v2,2022.2.5,29.99688031466091,
