loop.thisRepN,loop.thisTrialN,loop.thisN,loop.thisIndex,evaluate_all_emotions.thisRepN,evaluate_all_emotions.thisTrialN,evaluate_all_emotions.thisN,evaluate_all_emotions.thisIndex,sync_beep_1.started,p_port.started,p_port.stopped,sync_beep_1.stopped,sync_beep_2.started,sync_beep_2.stopped,sync_beep_3.started,sync_beep_3.stopped,sync_beep_4.started,sync_beep_4.stopped,baseline.started,p_port_2.started,p_port_2.stopped,baseline.stopped,p_port_3.started,Game_Start_Text.started,p_port_4.started,p_port_4.stopped,key_resp.started,key_resp.keys,key_resp.rt,fixation_cross.started,p_port_5.started,p_port_5.stopped,fixation_cross.stopped,p_port_6.started,player_image_intro.started,player_name_intro.started,p_port_7.started,p_port_7.stopped,p_port_8.started,player_image_offer.started,player_name_offer.started,proposed_split.started,p_port_9.started,p_port_9.stopped,proposed_split.stopped,accept_reject.started,p_port_15.started,p_port_15.stopped,accept_reject.stopped,p_port_10.started,arrow_instructions.started,offer_choice.started,p_port_11.started,p_port_11.stopped,offer_choice.keys,offer_choice.rt,Instructions_Affinity_Score.started,p_port_12.started,p_port_12.stopped,Instructions_Affinity_Score.stopped,Emotion_Image.started,AffinityScore.started,p_port_13.started,p_port_13.stopped,AffinityScore.response,AffinityScore.rt,Instruction.started,Moral_Disgust_Score.started,p_port_14.started,p_port_14.stopped,Moral_Disgust_Score.response,Moral_Disgust_Score.rt,player_image_offer.stopped,player_name_offer.stopped,p_port_10.stopped,p_port_6.stopped,player_image_intro.stopped,player_name_intro.stopped,participant,session,date,expName,psychopyVersion,frameRate,
,,,,,,,,14.677322899922729,0.000834600068628788,0.10405750013887882,14.993557099951431,15.276624840078876,15.576654100092128,15.8767117400188,16.176633100025356,16.476840040041132,16.793560500023887,16.793560500023887,0.020771699957549572,0.12076179985888302,31.810224100016057,15.004050899995491,31.910194399999455,0.004037199774757028,0.10419219988398254,32.376957200001925,space,1.2339209001511335,,,,,,,,,,,,,,,,,,,,,,,,,,,,,,,,,,,,,,,,,,,,,,,,,,9565,Moral,2024-08-14_18h45.47.744,MoralCondition_v2,2022.2.5,29.988802193747507,
0,0,0,0,0,0,0,0,,,,,,,,,,,,,,,,,,,,,,33.67698880005628,0.0014615000691264868,0.09831429994665086,39.67682920000516,6.03149459999986,40.0101365998853,40.0101365998853,0.18456689990125597,0.3314199000597,6.031457700068131,46.01023339992389,46.01023339992389,46.01023339992389,0.09511459991335869,0.23139309976249933,51.71031940006651,51.87678429996595,6.031467899912968,6.131437399890274,57.87666819989681,12.031297299778089,58.010142100043595,58.010142100043595,0.03163329977542162,0.13138909987173975,up,2.255678800167516,60.310127899982035,4.029995761811733e-05,0.09764009993523359,66.3267270999495,66.3267270999495,66.3267270999495,0.010633799945935607,0.11443979991599917,5.0,4.937925499863923,,,,,,,,,,,,,9565,Moral,2024-08-14_18h45.47.744,MoralCondition_v2,2022.2.5,29.988802193747507,
0,0,0,0,1,0,1,0,,,,,,,,,,,,,,,,,,,,,,,,,,,,,,,,,,,,,,,,,,,,,,,,,,,,,71.31023470009677,71.31023470009677,0.017224400071427226,0.11504240008071065,3.0,3.2986095999367535,,,,,,,,,,,,,9565,Moral,2024-08-14_18h45.47.744,MoralCondition_v2,2022.2.5,29.988802193747507,
0,0,0,0,2,0,2,0,,,,,,,,,,,,,,,,,,,,,,,,,,,,,,,,,,,,,,,,,,,,,,,,,,,,,74.66028479998931,74.66028479998931,0.009894399903714657,0.11382189998403192,6.0,1.9717595998663455,,,,,,,,,,,,,9565,Moral,2024-08-14_18h45.47.744,MoralCondition_v2,2022.2.5,29.988802193747507,
0,0,0,0,3,0,3,0,,,,,,,,,,,,,,,,,,,,,,,,,,,,,,,,,,,,,,,,,,,,,,,,,,,,,76.67697290005162,76.67697290005162,0.011257499922066927,0.1138291999232024,2.0,2.0371621001977473,,,,,,,,,,,,,9565,Moral,2024-08-14_18h45.47.744,MoralCondition_v2,2022.2.5,29.988802193747507,
0,0,0,0,4,0,4,0,,,,,,,,,,,,,,,,,,,,,,,,,,,,,,,,,,,,,,,,,,,,,,,,,,,,,78.7431977998931,78.7431977998931,0.009570699883624911,0.09919300000183284,1.0,1.5907145000528544,,,,,,,,,,,,,9565,Moral,2024-08-14_18h45.47.744,MoralCondition_v2,2022.2.5,29.988802193747507,
0,0,0,0,5,0,5,0,,,,,,,,,,,,,,,,,,,,,,,,,,,,,,,,,,,,,,,,,,,,,,,,,,,,,80.39362609991804,80.39362609991804,0.011412600055336952,0.11453630006872118,1.0,1.1040590000338852,,,,,,,,,,,,,9565,Moral,2024-08-14_18h45.47.744,MoralCondition_v2,2022.2.5,29.988802193747507,
0,0,0,0,6,0,6,0,,,,,,,,,,,,,,,,,,,,,,,,,,,,,,,,,,,,,,,,,,,,,,,,,,,,,81.52663700003177,81.52663700003177,0.00957280001603067,0.0975872001145035,3.0,1.8557055999990553,,,,,,,,,,,,,9565,Moral,2024-08-14_18h45.47.744,MoralCondition_v2,2022.2.5,29.988802193747507,
0,0,0,0,,,,,,,,,,,,,,,,,,,,,,,,,,,,,,,,,,,,,,,,,,,,,,,,,,,,,,,,,,,,,,,83.42685579997487,83.42685579997487,0.0012584999203681946,0.0975109999999404,4.0,4.131196700036526,,,,,,,9565,Moral,2024-08-14_18h45.47.744,MoralCondition_v2,2022.2.5,29.988802193747507,
1,0,1,0,0,0,0,0,,,,,,,,,,,,,,,,,,,,,,87.59378360002302,0.00013679987750947475,0.09924999997019768,93.61005480005406,6.0160761999432,93.80985369998962,93.80985369998962,0.1154243997298181,0.21598279988393188,6.015771799720824,99.87693860009313,99.87693860009313,99.87693860009313,0.07181369978934526,0.18232899974100292,105.5766680999659,105.77668290003203,6.015785999596119,6.115748999640346,111.79334870004095,11.999055299675092,111.89337889989838,111.89337889989838,0.0001468996051698923,0.0990490997210145,down,1.244775400031358,113.15627419995144,2.350006252527237e-05,0.0838242000900209,119.15989449992776,119.15989449992776,119.15989449992776,0.017154800007119775,0.11720630014315248,6.0,2.29614120000042,,,,,,,111.89337889989838,111.89337889989838,12.09923189971596,,,,9565,Moral,2024-08-14_18h45.47.744,MoralCondition_v2,2022.2.5,29.988802193747507,
1,0,1,0,1,0,1,0,,,,,,,,,,,,,,,,,,,,,,,,,,,,,,,,,,,,,,,,,,,,,,,,,,,,,121.5102788999211,121.5102788999211,0.007297499803826213,0.11404259991832078,2.0,1.574243700131774,,,,,,,,,,,,,9565,Moral,2024-08-14_18h45.47.744,MoralCondition_v2,2022.2.5,29.988802193747507,
1,0,1,0,2,0,2,0,,,,,,,,,,,,,,,,,,,,,,,,,,,,,,,,,,,,,,,,,,,,,,,,,,,,,123.1267987000756,123.1267987000756,0.01153470017015934,0.11430400004610419,5.0,1.503860400058329,,,,,,,,,,,,,9565,Moral,2024-08-14_18h45.47.744,MoralCondition_v2,2022.2.5,29.988802193747507,
1,0,1,0,3,0,3,0,,,,,,,,,,,,,,,,,,,,,,,,,,,,,,,,,,,,,,,,,,,,,,,,,,,,,124.65993599989451,124.65993599989451,0.007894900161772966,0.09765670006163418,6.0,1.3577903001569211,,,,,,,,,,,,,9565,Moral,2024-08-14_18h45.47.744,MoralCondition_v2,2022.2.5,29.988802193747507,
1,0,1,0,4,0,4,0,,,,,,,,,,,,,,,,,,,,,,,,,,,,,,,,,,,,,,,,,,,,,,,,,,,,,126.07665510009974,126.07665510009974,0.008323300164192915,0.11444130004383624,7.0,1.6406396999955177,,,,,,,,,,,,,9565,Moral,2024-08-14_18h45.47.744,MoralCondition_v2,2022.2.5,29.988802193747507,
1,0,1,0,5,0,5,0,,,,,,,,,,,,,,,,,,,,,,,,,,,,,,,,,,,,,,,,,,,,,,,,,,,,,127.74333440000191,127.74333440000191,0.006734199821949005,0.09920649998821318,2.0,2.0602082000114024,,,,,,,,,,,,,9565,Moral,2024-08-14_18h45.47.744,MoralCondition_v2,2022.2.5,29.988802193747507,
1,0,1,0,6,0,6,0,,,,,,,,,,,,,,,,,,,,,,,,,,,,,,,,,,,,,,,,,,,,,,,,,,,,,129.84308260004036,129.84308260004036,0.008747899904847145,0.09758979990147054,4.0,2.0898925000801682,,,,,,,,,,,,,9565,Moral,2024-08-14_18h45.47.744,MoralCondition_v2,2022.2.5,29.988802193747507,
1,0,1,0,,,,,,,,,,,,,,,,,,,,,,,,,,,,,,,,,,,,,,,,,,,,,,,,,,,,,,,,,,,,,,,131.9765546999406,131.9765546999406,0.0013788999058306217,0.09728359989821911,2.0,7.063726600026712,,,,,,,9565,Moral,2024-08-14_18h45.47.744,MoralCondition_v2,2022.2.5,29.988802193747507,
2,0,2,0,0,0,0,0,,,,,,,,,,,,,,,,,,,,,,139.07680699997582,0.0003746000584214926,0.09794220002368093,145.07651320006698,6.01430350006558,145.30986999999732,145.30986999999732,0.12616189988330007,0.2311792999971658,6.031182700069621,151.37663799989969,151.37663799989969,151.37663799989969,0.08971019997261465,0.19817209988832474,157.0766024000477,157.27658939990215,6.031135299941525,6.131262899842113,163.27660409989767,12.031180599937215,163.4098815000616,163.4098815000616,0.03136299969628453,0.13109319983050227,up,1.920308800181374,165.3562060999684,2.869986928999424e-05,0.08207839983515441,,171.3931446999777,171.3931446999777,0.011921599972993135,0.11758630000986159,1.0,2.8398841000162065,,,,,,,163.37653049989603,163.37653049989603,,6.097740600118414,,,9565,Moral,2024-08-14_18h45.47.744,MoralCondition_v2,2022.2.5,29.988802193747507,
2,0,2,0,1,0,1,0,,,,,,,,,,,,,,,,,,,,,,,,,,,,,,,,,,,,,,,,,,,,,,,,,,,,,174.26017679995857,174.26017679995857,0.007017500000074506,0.09931159997358918,3.0,2.526466100011021,,,,,,,,,,,,,9565,Moral,2024-08-14_18h45.47.744,MoralCondition_v2,2022.2.5,29.988802193747507,
2,0,2,0,2,0,2,0,,,,,,,,,,,,,,,,,,,,,,,,,,,,,,,,,,,,,,,,,,,,,,,,,,,,,176.82620969996788,176.82620969996788,0.007176700048148632,0.09783460013568401,4.0,1.8917658999562263,,,,,,,,,,,,,9565,Moral,2024-08-14_18h45.47.744,MoralCondition_v2,2022.2.5,29.988802193747507,
2,0,2,0,3,0,3,0,,,,,,,,,,,,,,,,,,,,,,,,,,,,,,,,,,,,,,,,,,,,,,,,,,,,,178.75995690003037,178.75995690003037,0.006866500014439225,0.09900969988666475,1.0,2.0598301000427455,,,,,,,,,,,,,9565,Moral,2024-08-14_18h45.47.744,MoralCondition_v2,2022.2.5,29.988802193747507,
2,0,2,0,4,0,4,0,,,,,,,,,,,,,,,,,,,,,,,,,,,,,,,,,,,,,,,,,,,,,,,,,,,,,180.85968369990587,180.85968369990587,0.006770600099116564,0.09891220019198954,3.0,4.259921099990606,,,,,,,,,,,,,9565,Moral,2024-08-14_18h45.47.744,MoralCondition_v2,2022.2.5,29.988802193747507,
2,0,2,0,5,0,5,0,,,,,,,,,,,,,,,,,,,,,,,,,,,,,,,,,,,,,,,,,,,,,,,,,,,,,185.176654699957,185.176654699957,0.007374899927526712,0.11474910005927086,4.0,1.8082880000583827,,,,,,,,,,,,,9565,Moral,2024-08-14_18h45.47.744,MoralCondition_v2,2022.2.5,29.988802193747507,
2,0,2,0,6,0,6,0,,,,,,,,,,,,,,,,,,,,,,,,,,,,,,,,,,,,,,,,,,,,,,,,,,,,,187.00963580003008,187.00963580003008,0.008438500110059977,0.09742569993250072,4.0,2.423206399893388,,,,,,,,,,,,,9565,Moral,2024-08-14_18h45.47.744,MoralCondition_v2,2022.2.5,29.988802193747507,
2,0,2,0,,,,,,,,,,,,,,,,,,,,,,,,,,,,,,,,,,,,,,,,,,,,,,,,,,,,,,,,,,,,,,,189.47662140009925,189.47662140009925,0.001604699995368719,0.09766939980909228,6.0,7.43056679982692,,,,,,,9565,Moral,2024-08-14_18h45.47.744,MoralCondition_v2,2022.2.5,29.988802193747507,
3,0,3,0,0,0,0,0,,,,,,,,,,,,,,,,,,,,,,196.94340909994207,0.00029729981906712055,0.09710649983026087,202.9598387000151,6.013910999987274,203.1266616000794,203.1266616000794,0.06814199988730252,0.18073979974724352,6.013733699917793,209.2097924000118,209.2097924000118,209.2097924000118,0.06461079977452755,0.16372329974547029,214.9098233000841,215.14315290004015,6.03050549980253,6.130414799787104,221.1431251000613,12.030423199757934,221.27647899999283,221.27647899999283,0.03056779969483614,0.13041689968667924,up,0.5093048000708222,221.8431402000133,6.620003841817379e-05,0.098097899928689,,227.87649599998258,227.87649599998258,0.025958700105547905,0.1312917999457568,1.0,1.8731841000262648,,,,,,,221.20977990003303,221.20977990003303,,,209.12650940008461,209.12650940008461,9565,Moral,2024-08-14_18h45.47.744,MoralCondition_v2,2022.2.5,29.988802193747507,
3,0,3,0,1,0,1,0,,,,,,,,,,,,,,,,,,,,,,,,,,,,,,,,,,,,,,,,,,,,,,,,,,,,,229.77639560005628,229.77639560005628,0.007508500013500452,0.09776800009422004,3.0,2.0580511998850852,,,,,,,,,,,,,9565,Moral,2024-08-14_18h45.47.744,MoralCondition_v2,2022.2.5,29.988802193747507,
3,0,3,0,2,0,2,0,,,,,,,,,,,,,,,,,,,,,,,,,,,,,,,,,,,,,,,,,,,,,,,,,,,,,231.89302999991924,231.89302999991924,0.008264300180599093,0.11467900010757148,5.0,1.6408529998734593,,,,,,,,,,,,,9565,Moral,2024-08-14_18h45.47.744,MoralCondition_v2,2022.2.5,29.988802193747507,
3,0,3,0,3,0,3,0,,,,,,,,,,,,,,,,,,,,,,,,,,,,,,,,,,,,,,,,,,,,,,,,,,,,,233.5597447999753,233.5597447999753,0.007606599945574999,0.09766430011950433,6.0,1.1909256998915225,,,,,,,,,,,,,9565,Moral,2024-08-14_18h45.47.744,MoralCondition_v2,2022.2.5,29.988802193747507,
3,0,3,0,4,0,4,0,,,,,,,,,,,,,,,,,,,,,,,,,,,,,,,,,,,,,,,,,,,,,,,,,,,,,234.80994149995968,234.80994149995968,0.008048800053074956,0.11434800014831126,4.0,3.3071167999878526,,,,,,,,,,,,,9565,Moral,2024-08-14_18h45.47.744,MoralCondition_v2,2022.2.5,29.988802193747507,
3,0,3,0,5,0,5,0,,,,,,,,,,,,,,,,,,,,,,,,,,,,,,,,,,,,,,,,,,,,,,,,,,,,,238.14326919987798,238.14326919987798,0.008541200077161193,0.09781330008991063,3.0,4.724152100039646,,,,,,,,,,,,,9565,Moral,2024-08-14_18h45.47.744,MoralCondition_v2,2022.2.5,29.988802193747507,
3,0,3,0,6,0,6,0,,,,,,,,,,,,,,,,,,,,,,,,,,,,,,,,,,,,,,,,,,,,,,,,,,,,,242.90962890000083,242.90962890000083,0.006441599922254682,0.09845019993372262,2.0,1.7598095000721514,,,,,,,,,,,,,9565,Moral,2024-08-14_18h45.47.744,MoralCondition_v2,2022.2.5,29.988802193747507,
3,0,3,0,,,,,,,,,,,,,,,,,,,,,,,,,,,,,,,,,,,,,,,,,,,,,,,,,,,,,,,,,,,,,,,244.70997780002654,244.70997780002654,0.0017672998365014791,0.09760759980417788,6.0,11.19680260005407,,,,,,,9565,Moral,2024-08-14_18h45.47.744,MoralCondition_v2,2022.2.5,29.988802193747507,
4,0,4,0,0,0,0,0,,,,,,,,,,,,,,,,,,,,,,255.94321669987403,0.0001534000039100647,0.0992282999213785,261.9262457001023,5.999194300035015,262.0930973000359,262.0930973000359,0.04124039993621409,0.1491497999522835,6.015755899948999,268.22643720009364,268.22643720009364,268.22643720009364,0.07538079982623458,0.1827051998116076,273.9263808000833,274.1262896999251,6.015736899804324,6.115789499832317,280.1263524000533,12.015810999786481,280.2597292000428,280.2597292000428,0.0159490997903049,0.1157215996645391,down,0.6540787999983877,280.959714199882,3.869994543492794e-05,0.09795079985633492,,286.9761628000997,286.9761628000997,0.0259249999653548,0.11462519993074238,7.0,2.956432599807158,,,,,,,280.22634480008855,280.22634480008855,,6.082677399972454,268.09303170000203,268.09303170000203,9565,Moral,2024-08-14_18h45.47.744,MoralCondition_v2,2022.2.5,29.988802193747507,
4,0,4,0,1,0,1,0,,,,,,,,,,,,,,,,,,,,,,,,,,,,,,,,,,,,,,,,,,,,,,,,,,,,,289.9763448999729,289.9763448999729,0.008607700001448393,0.09807220008224249,2.0,1.6237748998682946,,,,,,,,,,,,,9565,Moral,2024-08-14_18h45.47.744,MoralCondition_v2,2022.2.5,29.988802193747507,
4,0,4,0,2,0,2,0,,,,,,,,,,,,,,,,,,,,,,,,,,,,,,,,,,,,,,,,,,,,,,,,,,,,,291.6431493998971,291.6431493998971,0.006679699989035726,0.09927120013162494,5.0,3.426933499984443,,,,,,,,,,,,,9565,Moral,2024-08-14_18h45.47.744,MoralCondition_v2,2022.2.5,29.988802193747507,
4,0,4,0,3,0,3,0,,,,,,,,,,,,,,,,,,,,,,,,,,,,,,,,,,,,,,,,,,,,,,,,,,,,,295.10961259994656,295.10961259994656,0.007436300162225962,0.09764120006002486,6.0,1.2912909998558462,,,,,,,,,,,,,9565,Moral,2024-08-14_18h45.47.744,MoralCondition_v2,2022.2.5,29.988802193747507,
4,0,4,0,4,0,4,0,,,,,,,,,,,,,,,,,,,,,,,,,,,,,,,,,,,,,,,,,,,,,,,,,,,,,296.4598926000763,296.4598926000763,0.007704500108957291,0.11426310008391738,2.0,1.7741557999979705,,,,,,,,,,,,,9565,Moral,2024-08-14_18h45.47.744,MoralCondition_v2,2022.2.5,29.988802193747507,
4,0,4,0,5,0,5,0,,,,,,,,,,,,,,,,,,,,,,,,,,,,,,,,,,,,,,,,,,,,,,,,,,,,,298.25980639993213,298.25980639993213,0.007449700031429529,0.09769910015165806,3.0,1.824734500143677,,,,,,,,,,,,,9565,Moral,2024-08-14_18h45.47.744,MoralCondition_v2,2022.2.5,29.988802193747507,
4,0,4,0,6,0,6,0,,,,,,,,,,,,,,,,,,,,,,,,,,,,,,,,,,,,,,,,,,,,,,,,,,,,,300.12626759987324,300.12626759987324,0.007209499832242727,0.09780729981139302,4.0,2.324970099842176,,,,,,,,,,,,,9565,Moral,2024-08-14_18h45.47.744,MoralCondition_v2,2022.2.5,29.988802193747507,
4,0,4,0,,,,,,,,,,,,,,,,,,,,,,,,,,,,,,,,,,,,,,,,,,,,,,,,,,,,,,,,,,,,,,,302.49304919992574,302.49304919992574,0.0014183002058416605,0.0977392999920994,3.0,7.930780500173569,,,,,,,9565,Moral,2024-08-14_18h45.47.744,MoralCondition_v2,2022.2.5,29.988802193747507,
5,0,5,0,0,0,0,0,,,,,,,,,,,,,,,,,,,,,,310.45990350004286,0.00013079983182251453,0.09927550004795194,316.45962459989823,5.999266400001943,316.7094753999263,316.7094753999263,0.14220009976997972,0.2493399998638779,6.01596639980562,322.7260314999148,322.7260314999148,322.7260314999148,0.07011619978584349,0.1660554998088628,328.4261880000122,328.6262368001044,5.999303799821064,6.099388099741191,334.6262332999613,11.999318399699405,334.7595651000738,334.7595651000738,0.000548199750483036,0.09925919957458973,down,2.6905757000204176,337.49291360005736,3.979983739554882e-05,0.09791449992917478,,343.5262786000967,343.5262786000967,0.027602299815043807,0.13125109998509288,2.0,2.337938900105655,,,,,,,334.7264845999889,334.7264845999889,12.099577299784869,6.099322499940172,,,9565,Moral,2024-08-14_18h45.47.744,MoralCondition_v2,2022.2.5,29.988802193747507,
5,0,5,0,1,0,1,0,,,,,,,,,,,,,,,,,,,,,,,,,,,,,,,,,,,,,,,,,,,,,,,,,,,,,345.8927112999372,345.8927112999372,0.006240100134164095,0.09919210011139512,3.0,3.260628999909386,,,,,,,,,,,,,9565,Moral,2024-08-14_18h45.47.744,MoralCondition_v2,2022.2.5,29.988802193747507,
5,0,5,0,2,0,2,0,,,,,,,,,,,,,,,,,,,,,,,,,,,,,,,,,,,,,,,,,,,,,,,,,,,,,349.1929438000079,349.1929438000079,0.006740799872204661,0.09932289994321764,5.0,0.993452199967578,,,,,,,,,,,,,9565,Moral,2024-08-14_18h45.47.744,MoralCondition_v2,2022.2.5,29.988802193747507,
5,0,5,0,3,0,3,0,,,,,,,,,,,,,,,,,,,,,,,,,,,,,,,,,,,,,,,,,,,,,,,,,,,,,350.22616320010275,350.22616320010275,0.007629399886354804,0.0976162999868393,4.0,1.6577683999203146,,,,,,,,,,,,,9565,Moral,2024-08-14_18h45.47.744,MoralCondition_v2,2022.2.5,29.988802193747507,
5,0,5,0,4,0,4,0,,,,,,,,,,,,,,,,,,,,,,,,,,,,,,,,,,,,,,,,,,,,,,,,,,,,,351.926277999999,351.926277999999,0.006821499904617667,0.09762949985451996,3.0,2.4251854000613093,,,,,,,,,,,,,9565,Moral,2024-08-14_18h45.47.744,MoralCondition_v2,2022.2.5,29.988802193747507,
5,0,5,0,5,0,5,0,,,,,,,,,,,,,,,,,,,,,,,,,,,,,,,,,,,,,,,,,,,,,,,,,,,,,354.3928602999076,354.3928602999076,0.007977700093761086,0.09791980008594692,6.0,2.1576187000609934,,,,,,,,,,,,,9565,Moral,2024-08-14_18h45.47.744,MoralCondition_v2,2022.2.5,29.988802193747507,
5,0,5,0,6,0,6,0,,,,,,,,,,,,,,,,,,,,,,,,,,,,,,,,,,,,,,,,,,,,,,,,,,,,,356.59287640010007,356.59287640010007,0.007416100008413196,0.09772710013203323,6.0,1.724776100134477,,,,,,,,,,,,,9565,Moral,2024-08-14_18h45.47.744,MoralCondition_v2,2022.2.5,29.988802193747507,
5,0,5,0,,,,,,,,,,,,,,,,,,,,,,,,,,,,,,,,,,,,,,,,,,,,,,,,,,,,,,,,,,,,,,,358.3596713000443,358.3596713000443,0.0013852999545633793,0.09744429984129965,5.0,2.2974177999421954,,,,,,,9565,Moral,2024-08-14_18h45.47.744,MoralCondition_v2,2022.2.5,29.988802193747507,
6,0,6,0,0,0,0,0,,,,,,,,,,,,,,,,,,,,,,360.6930392999202,0.0002919000107795,0.09751889994367957,366.692833899986,6.030900300014764,366.9427459000144,366.9427459000144,0.13136879983358085,0.24740249989554286,6.0140933997463435,372.9760859000962,372.9760859000962,372.9760859000962,0.06746319984085858,0.18109059962444007,378.67622589995153,378.8762540000025,6.014239699812606,6.114555299747735,384.87615839997306,12.014159299666062,385.009361699922,385.009361699922,0.014315899694338441,0.11404999974183738,down,0.40843529999256134,385.47609120002016,4.269997589290142e-05,0.09791909996420145,,391.4928234999534,391.4928234999534,0.025603999849408865,0.11457099998369813,6.0,2.3567613000050187,,,,,,,384.97612229990773,384.97612229990773,,,,,9565,Moral,2024-08-14_18h45.47.744,MoralCondition_v2,2022.2.5,29.988802193747507,
6,0,6,0,1,0,1,0,,,,,,,,,,,,,,,,,,,,,,,,,,,,,,,,,,,,,,,,,,,,,,,,,,,,,393.89256380009465,393.89256380009465,0.008506499929353595,0.09911019983701408,5.0,1.9920123999472708,,,,,,,,,,,,,9565,Moral,2024-08-14_18h45.47.744,MoralCondition_v2,2022.2.5,29.988802193747507,
6,0,6,0,2,0,2,0,,,,,,,,,,,,,,,,,,,,,,,,,,,,,,,,,,,,,,,,,,,,,,,,,,,,,395.9262788000051,395.9262788000051,0.006685099797323346,0.09899219986982644,5.0,1.026716000167653,,,,,,,,,,,,,9565,Moral,2024-08-14_18h45.47.744,MoralCondition_v2,2022.2.5,29.988802193747507,
6,0,6,0,3,0,3,0,,,,,,,,,,,,,,,,,,,,,,,,,,,,,,,,,,,,,,,,,,,,,,,,,,,,,396.99326530005783,396.99326530005783,0.007265700027346611,0.09736889996565878,4.0,1.424558199942112,,,,,,,,,,,,,9565,Moral,2024-08-14_18h45.47.744,MoralCondition_v2,2022.2.5,29.988802193747507,
6,0,6,0,4,0,4,0,,,,,,,,,,,,,,,,,,,,,,,,,,,,,,,,,,,,,,,,,,,,,,,,,,,,,398.4594010000583,398.4594010000583,0.007738399785012007,0.09777629980817437,2.0,1.5245312999468297,,,,,,,,,,,,,9565,Moral,2024-08-14_18h45.47.744,MoralCondition_v2,2022.2.5,29.988802193747507,
6,0,6,0,5,0,5,0,,,,,,,,,,,,,,,,,,,,,,,,,,,,,,,,,,,,,,,,,,,,,,,,,,,,,400.0259892998729,400.0259892998729,0.007725999923422933,0.09751769993454218,2.0,1.1908628002274781,,,,,,,,,,,,,9565,Moral,2024-08-14_18h45.47.744,MoralCondition_v2,2022.2.5,29.988802193747507,
6,0,6,0,6,0,6,0,,,,,,,,,,,,,,,,,,,,,,,,,,,,,,,,,,,,,,,,,,,,,,,,,,,,,401.2763638999313,401.2763638999313,0.007326899794861674,0.11439160001464188,7.0,1.7747116999235004,,,,,,,,,,,,,9565,Moral,2024-08-14_18h45.47.744,MoralCondition_v2,2022.2.5,29.988802193747507,
6,0,6,0,,,,,,,,,,,,,,,,,,,,,,,,,,,,,,,,,,,,,,,,,,,,,,,,,,,,,,,,,,,,,,,403.07614640006796,403.07614640006796,0.0012934999540448189,0.09819309995509684,2.0,2.3314307001419365,,,,,,,9565,Moral,2024-08-14_18h45.47.744,MoralCondition_v2,2022.2.5,29.988802193747507,
7,0,7,0,0,0,0,0,,,,,,,,,,,,,,,,,,,,,,405.44311759993434,0.00015389989130198956,0.09915879997424781,411.44273860007524,5.999167299829423,411.6260212000925,411.6260212000925,0.07459359988570213,0.18277559988200665,6.0159053998067975,417.7260851999745,417.7260851999745,417.7260851999745,0.07690159976482391,0.18229079968295991,423.4260205999017,423.62601589993574,6.015799399698153,6.11578179965727,429.6260009999387,12.015787299722433,429.75934089999646,429.75934089999646,0.0160623996052891,0.11572149954736233,down,0.9309930999297649,430.7260459999088,3.9499951526522636e-05,0.0977004999294877,,436.75982289994135,436.75982289994135,0.025386499939486384,0.13118760008364916,6.0,2.6735270000062883,,,,,,,429.7261248999275,429.7261248999275,,,417.626023999881,417.626023999881,9565,Moral,2024-08-14_18h45.47.744,MoralCondition_v2,2022.2.5,29.988802193747507,
7,0,7,0,1,0,1,0,,,,,,,,,,,,,,,,,,,,,,,,,,,,,,,,,,,,,,,,,,,,,,,,,,,,,439.45928850001656,439.45928850001656,0.0065778999123722315,0.09912939998321235,2.0,1.6270314999856055,,,,,,,,,,,,,9565,Moral,2024-08-14_18h45.47.744,MoralCondition_v2,2022.2.5,29.988802193747507,
7,0,7,0,2,0,2,0,,,,,,,,,,,,,,,,,,,,,,,,,,,,,,,,,,,,,,,,,,,,,,,,,,,,,441.12596229999326,441.12596229999326,0.007757100043818355,0.09763410012237728,2.0,1.1242710000369698,,,,,,,,,,,,,9565,Moral,2024-08-14_18h45.47.744,MoralCondition_v2,2022.2.5,29.988802193747507,
7,0,7,0,3,0,3,0,,,,,,,,,,,,,,,,,,,,,,,,,,,,,,,,,,,,,,,,,,,,,,,,,,,,,442.2925636,442.2925636,0.007317300187423825,0.09810630022548139,5.0,2.0917885000817478,,,,,,,,,,,,,9565,Moral,2024-08-14_18h45.47.744,MoralCondition_v2,2022.2.5,29.988802193747507,
7,0,7,0,4,0,4,0,,,,,,,,,,,,,,,,,,,,,,,,,,,,,,,,,,,,,,,,,,,,,,,,,,,,,444.44284819997847,444.44284819997847,0.00816199998371303,0.11414259998127818,4.0,1.54043580009602,,,,,,,,,,,,,9565,Moral,2024-08-14_18h45.47.744,MoralCondition_v2,2022.2.5,29.988802193747507,
7,0,7,0,5,0,5,0,,,,,,,,,,,,,,,,,,,,,,,,,,,,,,,,,,,,,,,,,,,,,,,,,,,,,446.0094473999925,446.0094473999925,0.007598900003358722,0.09775110008195043,6.0,1.8246455998159945,,,,,,,,,,,,,9565,Moral,2024-08-14_18h45.47.744,MoralCondition_v2,2022.2.5,29.988802193747507,
7,0,7,0,6,0,6,0,,,,,,,,,,,,,,,,,,,,,,,,,,,,,,,,,,,,,,,,,,,,,,,,,,,,,447.87585090007633,447.87585090007633,0.007253899937495589,0.09785469993948936,5.0,5.725078500108793,,,,,,,,,,,,,9565,Moral,2024-08-14_18h45.47.744,MoralCondition_v2,2022.2.5,29.988802193747507,
7,0,7,0,,,,,,,,,,,,,,,,,,,,,,,,,,,,,,,,,,,,,,,,,,,,,,,,,,,,,,,,,,,,,,,453.64273709990084,453.64273709990084,0.0006929000373929739,0.09917209995910525,2.0,2.9662864001002163,,,,,,,9565,Moral,2024-08-14_18h45.47.744,MoralCondition_v2,2022.2.5,29.988802193747507,
8,0,8,0,0,0,0,0,,,,,,,,,,,,,,,,,,,,,,456.64280509995297,0.00021520000882446766,0.09777600015513599,462.64262360008433,6.0311416001059115,462.8091172000859,462.8091172000859,0.06541029992513359,0.16463589994236827,6.0311924000270665,468.925939100096,468.925939100096,468.925939100096,0.08012519986368716,0.18131029978394508,474.6257102000527,474.82591950008646,6.014437299920246,6.114427899941802,480.82611640007235,12.014645799761638,480.959202399943,480.959202399943,0.01458149985410273,0.11454179976135492,down,0.5068266000598669,481.52602669992484,3.8400059565901756e-05,0.09802470006980002,,487.5428438000381,487.5428438000381,0.025342199951410294,0.11451869993470609,6.0,10.623615900054574,,,,,,,480.9258665998932,480.9258665998932,,,468.8095525999088,468.8095525999088,9565,Moral,2024-08-14_18h45.47.744,MoralCondition_v2,2022.2.5,29.988802193747507,
8,0,8,0,1,0,1,0,,,,,,,,,,,,,,,,,,,,,,,,,,,,,,,,,,,,,,,,,,,,,,,,,,,,,498.2092699999921,498.2092699999921,0.0073448000475764275,0.09780999994836748,3.0,2.1249203998595476,,,,,,,,,,,,,9565,Moral,2024-08-14_18h45.47.744,MoralCondition_v2,2022.2.5,29.988802193747507,
8,0,8,0,2,0,2,0,,,,,,,,,,,,,,,,,,,,,,,,,,,,,,,,,,,,,,,,,,,,,,,,,,,,,500.3926864999812,500.3926864999812,0.008048700168728828,0.11397520010359585,4.0,2.906987299909815,,,,,,,,,,,,,9565,Moral,2024-08-14_18h45.47.744,MoralCondition_v2,2022.2.5,29.988802193747507,
8,0,8,0,3,0,3,0,,,,,,,,,,,,,,,,,,,,,,,,,,,,,,,,,,,,,,,,,,,,,,,,,,,,,503.3259149999358,503.3259149999358,0.007574000163003802,0.0978647000156343,6.0,2.1579637001268566,,,,,,,,,,,,,9565,Moral,2024-08-14_18h45.47.744,MoralCondition_v2,2022.2.5,29.988802193747507,
8,0,8,0,4,0,4,0,,,,,,,,,,,,,,,,,,,,,,,,,,,,,,,,,,,,,,,,,,,,,,,,,,,,,505.54283359996043,505.54283359996043,0.008756900206208229,0.11443970003165305,3.0,2.606604600092396,,,,,,,,,,,,,9565,Moral,2024-08-14_18h45.47.744,MoralCondition_v2,2022.2.5,29.988802193747507,
8,0,8,0,5,0,5,0,,,,,,,,,,,,,,,,,,,,,,,,,,,,,,,,,,,,,,,,,,,,,,,,,,,,,508.175869199913,508.175869199913,0.007830300135537982,0.0972711001522839,2.0,4.5905991001054645,,,,,,,,,,,,,9565,Moral,2024-08-14_18h45.47.744,MoralCondition_v2,2022.2.5,29.988802193747507,
8,0,8,0,6,0,6,0,,,,,,,,,,,,,,,,,,,,,,,,,,,,,,,,,,,,,,,,,,,,,,,,,,,,,512.8092880998738,512.8092880998738,0.006623300025239587,0.09916960005648434,2.0,4.493538200156763,,,,,,,,,,,,,9565,Moral,2024-08-14_18h45.47.744,MoralCondition_v2,2022.2.5,29.988802193747507,
8,0,8,0,,,,,,,,,,,,,,,,,,,,,,,,,,,,,,,,,,,,,,,,,,,,,,,,,,,,,,,,,,,,,,,517.34243469988,517.34243469988,0.0006870001088827848,0.0988644000608474,2.0,9.932813299819827,,,,,,,9565,Moral,2024-08-14_18h45.47.744,MoralCondition_v2,2022.2.5,29.988802193747507,
9,0,9,0,0,0,0,0,,,,,,,,,,,,,,,,,,,,,,527.3093193999957,0.0002826000563800335,0.09771250002086163,533.3090786999092,6.031156500102952,533.5089044999331,533.5089044999331,0.09434990002773702,0.19768270011991262,6.030829099938273,539.59243170009,539.59243170009,539.59243170009,0.07484239991754293,0.1812163998838514,545.2925342998933,545.4923715998884,6.014373600017279,6.11419799993746,551.4923376000952,12.01434180000797,551.6256786999293,551.6256786999293,0.014577899826690555,0.11430859984830022,up,0.5364451000932604,552.225684300065,4.67000063508749e-05,0.09797260002233088,558.2255090998951,558.2255090998951,558.2255090998951,0.009064899990335107,0.09789870004169643,5.0,2.3233097000047565,,,,,,,551.5923365000635,551.5923365000635,,,539.4923066999763,539.4923066999763,9565,Moral,2024-08-14_18h45.47.744,MoralCondition_v2,2022.2.5,29.988802193747507,
9,0,9,0,1,0,1,0,,,,,,,,,,,,,,,,,,,,,,,,,,,,,,,,,,,,,,,,,,,,,,,,,,,,,560.5924345999956,560.5924345999956,0.007489299867302179,0.0974681000225246,6.0,1.3245637998916209,,,,,,,,,,,,,9565,Moral,2024-08-14_18h45.47.744,MoralCondition_v2,2022.2.5,29.988802193747507,
9,0,9,0,2,0,2,0,,,,,,,,,,,,,,,,,,,,,,,,,,,,,,,,,,,,,,,,,,,,,,,,,,,,,561.9759486000985,561.9759486000985,0.007807500194758177,0.11405430012382567,3.0,2.140772699844092,,,,,,,,,,,,,9565,Moral,2024-08-14_18h45.47.744,MoralCondition_v2,2022.2.5,29.988802193747507,
9,0,9,0,3,0,3,0,,,,,,,,,,,,,,,,,,,,,,,,,,,,,,,,,,,,,,,,,,,,,,,,,,,,,564.1423953000922,564.1423953000922,0.006495799869298935,0.09897409984841943,4.0,1.360345299821347,,,,,,,,,,,,,9565,Moral,2024-08-14_18h45.47.744,MoralCondition_v2,2022.2.5,29.988802193747507,
9,0,9,0,4,0,4,0,,,,,,,,,,,,,,,,,,,,,,,,,,,,,,,,,,,,,,,,,,,,,,,,,,,,,565.5423588000704,565.5423588000704,0.006779799936339259,0.09907649992965162,2.0,1.2601181999780238,,,,,,,,,,,,,9565,Moral,2024-08-14_18h45.47.744,MoralCondition_v2,2022.2.5,29.988802193747507,
9,0,9,0,5,0,5,0,,,,,,,,,,,,,,,,,,,,,,,,,,,,,,,,,,,,,,,,,,,,,,,,,,,,,566.8422509999946,566.8422509999946,0.006569199962541461,0.09945490001700819,2.0,1.2936052998993546,,,,,,,,,,,,,9565,Moral,2024-08-14_18h45.47.744,MoralCondition_v2,2022.2.5,29.988802193747507,
9,0,9,0,6,0,6,0,,,,,,,,,,,,,,,,,,,,,,,,,,,,,,,,,,,,,,,,,,,,,,,,,,,,,568.1755518999416,568.1755518999416,0.006485099904239178,0.09916169987991452,2.0,1.1272619999945164,,,,,,,,,,,,,9565,Moral,2024-08-14_18h45.47.744,MoralCondition_v2,2022.2.5,29.988802193747507,
9,0,9,0,,,,,,,,,,,,,,,,,,,,,,,,,,,,,,,,,,,,,,,,,,,,,,,,,,,,,,,,,,,,,,,569.3422393000219,569.3422393000219,0.0014198999851942062,0.09751240001060069,6.0,3.597395700169727,,,,,,,9565,Moral,2024-08-14_18h45.47.744,MoralCondition_v2,2022.2.5,29.988802193747507,
10,0,10,0,0,0,0,0,,,,,,,,,,,,,,,,,,,,,,572.9757668999955,0.0002623000182211399,0.09788860008120537,578.9923139999155,6.0145189999602735,579.1590885000769,579.1590885000769,0.06641700002364814,0.18096069991588593,6.01428829994984,585.258772799978,585.258772799978,585.258772799978,0.06626349990256131,0.18089719978161156,590.9590525000822,591.1588940999936,6.014270399929956,6.114469199907035,597.1588554000482,12.014249099884182,597.2921754999552,597.2921754999552,0.014725799905136228,0.11434209975413978,up,0.39051149995066226,597.7422418000642,4.469999112188816e-05,0.09793859999626875,603.7420367000159,603.7420367000159,603.7420367000159,0.008977300021797419,0.09813089994713664,4.0,3.7567284000106156,,,,,,,597.2592442999594,597.2592442999594,,,585.158930900041,585.158930900041,9565,Moral,2024-08-14_18h45.47.744,MoralCondition_v2,2022.2.5,29.988802193747507,
10,0,10,0,1,0,1,0,,,,,,,,,,,,,,,,,,,,,,,,,,,,,,,,,,,,,,,,,,,,,,,,,,,,,607.5590274001006,607.5590274001006,0.008659400045871735,0.11392949987202883,2.0,1.4062592999543995,,,,,,,,,,,,,9565,Moral,2024-08-14_18h45.47.744,MoralCondition_v2,2022.2.5,29.988802193747507,
10,0,10,0,2,0,2,0,,,,,,,,,,,,,,,,,,,,,,,,,,,,,,,,,,,,,,,,,,,,,,,,,,,,,609.0088174999692,609.0088174999692,0.008080700179561973,0.1141586999874562,2.0,1.2735080998390913,,,,,,,,,,,,,9565,Moral,2024-08-14_18h45.47.744,MoralCondition_v2,2022.2.5,29.988802193747507,
10,0,10,0,3,0,3,0,,,,,,,,,,,,,,,,,,,,,,,,,,,,,,,,,,,,,,,,,,,,,,,,,,,,,610.3086737000849,610.3086737000849,0.006464699981734157,0.09899590001441538,5.0,1.4271066999062896,,,,,,,,,,,,,9565,Moral,2024-08-14_18h45.47.744,MoralCondition_v2,2022.2.5,29.988802193747507,
10,0,10,0,4,0,4,0,,,,,,,,,,,,,,,,,,,,,,,,,,,,,,,,,,,,,,,,,,,,,,,,,,,,,611.7753532999195,611.7753532999195,0.00664220005273819,0.0992384001147002,4.0,1.4269075999036431,,,,,,,,,,,,,9565,Moral,2024-08-14_18h45.47.744,MoralCondition_v2,2022.2.5,29.988802193747507,
10,0,10,0,5,0,5,0,,,,,,,,,,,,,,,,,,,,,,,,,,,,,,,,,,,,,,,,,,,,,,,,,,,,,613.2591754999012,613.2591754999012,0.007884799968451262,0.11426609987393022,6.0,1.2406150000169873,,,,,,,,,,,,,9565,Moral,2024-08-14_18h45.47.744,MoralCondition_v2,2022.2.5,29.988802193747507,
10,0,10,0,6,0,6,0,,,,,,,,,,,,,,,,,,,,,,,,,,,,,,,,,,,,,,,,,,,,,,,,,,,,,614.5256316999439,614.5256316999439,0.006774400128051639,0.09933590004220605,1.0,2.6935014999471605,,,,,,,,,,,,,9565,Moral,2024-08-14_18h45.47.744,MoralCondition_v2,2022.2.5,29.988802193747507,
10,0,10,0,,,,,,,,,,,,,,,,,,,,,,,,,,,,,,,,,,,,,,,,,,,,,,,,,,,,,,,,,,,,,,,617.2586282000411,617.2586282000411,0.002162399934604764,0.0973813000600785,6.0,4.829722199821845,,,,,,,9565,Moral,2024-08-14_18h45.47.744,MoralCondition_v2,2022.2.5,29.988802193747507,
11,0,11,0,0,0,0,0,,,,,,,,,,,,,,,,,,,,,,622.1257698000409,0.00031869998201727867,0.09770200005732477,628.1421399998944,6.014313200023025,628.3089199999813,628.3089199999813,0.06761259981431067,0.18097379989922047,6.014314599800855,634.4088312999811,634.4088312999811,634.4088312999811,0.07007339969277382,0.18123249989002943,640.1087148999795,640.3087150000501,6.014329599682242,6.114371399860829,646.3086902999785,12.014305699849501,646.4420441000257,646.4420441000257,0.014518199721351266,0.11425579967908561,down,0.37626899988390505,646.8754139000084,3.429991193115711e-05,0.09827439999207854,,652.9087523999624,652.9087523999624,0.024905500002205372,0.13161180005408823,5.0,4.440897800028324,,,,,,,646.4087000999134,646.4087000999134,,,634.3087422999088,634.3087422999088,9565,Moral,2024-08-14_18h45.47.744,MoralCondition_v2,2022.2.5,29.988802193747507,
11,0,11,0,1,0,1,0,,,,,,,,,,,,,,,,,,,,,,,,,,,,,,,,,,,,,,,,,,,,,,,,,,,,,657.3754213000648,657.3754213000648,0.007231199881061912,0.09804859990254045,4.0,1.691867700079456,,,,,,,,,,,,,9565,Moral,2024-08-14_18h45.47.744,MoralCondition_v2,2022.2.5,29.988802193747507,
11,0,11,0,2,0,2,0,,,,,,,,,,,,,,,,,,,,,,,,,,,,,,,,,,,,,,,,,,,,,,,,,,,,,659.1086589000188,659.1086589000188,0.008205000078305602,0.0982153001241386,7.0,1.7245221000630409,,,,,,,,,,,,,9565,Moral,2024-08-14_18h45.47.744,MoralCondition_v2,2022.2.5,29.988802193747507,
11,0,11,0,3,0,3,0,,,,,,,,,,,,,,,,,,,,,,,,,,,,,,,,,,,,,,,,,,,,,,,,,,,,,660.8754785000347,660.8754785000347,0.00802620011381805,0.09799959999509156,2.0,1.2915360999759287,,,,,,,,,,,,,9565,Moral,2024-08-14_18h45.47.744,MoralCondition_v2,2022.2.5,29.988802193747507,
11,0,11,0,4,0,4,0,,,,,,,,,,,,,,,,,,,,,,,,,,,,,,,,,,,,,,,,,,,,,,,,,,,,,662.208483699942,662.208483699942,0.00677850004285574,0.09901500004343688,5.0,3.227172699989751,,,,,,,,,,,,,9565,Moral,2024-08-14_18h45.47.744,MoralCondition_v2,2022.2.5,29.988802193747507,
11,0,11,0,5,0,5,0,,,,,,,,,,,,,,,,,,,,,,,,,,,,,,,,,,,,,,,,,,,,,,,,,,,,,665.4753181999549,665.4753181999549,0.0063917001243680716,0.09931770013645291,1.0,1.7272834000177681,,,,,,,,,,,,,9565,Moral,2024-08-14_18h45.47.744,MoralCondition_v2,2022.2.5,29.988802193747507,
11,0,11,0,6,0,6,0,,,,,,,,,,,,,,,,,,,,,,,,,,,,,,,,,,,,,,,,,,,,,,,,,,,,,667.2421059000771,667.2421059000771,0.006478899857029319,0.0984792998060584,1.0,1.4263003999367356,,,,,,,,,,,,,9565,Moral,2024-08-14_18h45.47.744,MoralCondition_v2,2022.2.5,29.988802193747507,
11,0,11,0,,,,,,,,,,,,,,,,,,,,,,,,,,,,,,,,,,,,,,,,,,,,,,,,,,,,,,,,,,,,,,,668.7087544999085,668.7087544999085,0.001304000150412321,0.09767660009674728,2.0,4.731059499783441,,,,,,,9565,Moral,2024-08-14_18h45.47.744,MoralCondition_v2,2022.2.5,29.988802193747507,
12,0,12,0,0,0,0,0,,,,,,,,,,,,,,,,,,,,,,673.4755402998999,0.00026599992997944355,0.09778619999997318,679.4752706000581,6.031089799944311,679.6755190999247,679.6755190999247,0.08345579984597862,0.19791879993863404,6.030996199930087,685.7751358000096,685.7751358000096,685.7751358000096,0.08689949987456203,0.19769179983995855,691.4752440000884,691.6752516000997,6.031071299919859,6.13099869992584,697.6751784998924,12.030995199922472,697.8086618999951,697.8086618999951,0.031511099776253104,0.13092549983412027,up,0.4012585999444127,698.275228299899,4.290021024644375e-05,0.09746190020814538,,704.3087635000702,704.3087635000702,0.025617800187319517,0.1310523001011461,4.0,2.272891400149092,,,,,,,697.775207699975,697.775207699975,,,685.6752571000252,685.6752571000252,9565,Moral,2024-08-14_18h45.47.744,MoralCondition_v2,2022.2.5,29.988802193747507,
12,0,12,0,1,0,1,0,,,,,,,,,,,,,,,,,,,,,,,,,,,,,,,,,,,,,,,,,,,,,,,,,,,,,706.6086184000596,706.6086184000596,0.007261399878188968,0.09817339992150664,5.0,1.5584946000017226,,,,,,,,,,,,,9565,Moral,2024-08-14_18h45.47.744,MoralCondition_v2,2022.2.5,29.988802193747507,
12,0,12,0,2,0,2,0,,,,,,,,,,,,,,,,,,,,,,,,,,,,,,,,,,,,,,,,,,,,,,,,,,,,,708.2086332000326,708.2086332000326,0.007236399920657277,0.0979935999494046,4.0,1.6921109000686556,,,,,,,,,,,,,9565,Moral,2024-08-14_18h45.47.744,MoralCondition_v2,2022.2.5,29.988802193747507,
12,0,12,0,3,0,3,0,,,,,,,,,,,,,,,,,,,,,,,,,,,,,,,,,,,,,,,,,,,,,,,,,,,,,709.9416451998986,709.9416451998986,0.0072957000229507685,0.09934900002554059,1.0,2.726769199827686,,,,,,,,,,,,,9565,Moral,2024-08-14_18h45.47.744,MoralCondition_v2,2022.2.5,29.988802193747507,
12,0,12,0,4,0,4,0,,,,,,,,,,,,,,,,,,,,,,,,,,,,,,,,,,,,,,,,,,,,,,,,,,,,,712.708343999926,712.708343999926,0.0067137000150978565,0.09863099991343915,4.0,4.792781800031662,,,,,,,,,,,,,9565,Moral,2024-08-14_18h45.47.744,MoralCondition_v2,2022.2.5,29.988802193747507,
12,0,12,0,5,0,5,0,,,,,,,,,,,,,,,,,,,,,,,,,,,,,,,,,,,,,,,,,,,,,,,,,,,,,717.54164760001,717.54164760001,0.006522199837490916,0.09908639988861978,5.0,2.4934757000301033,,,,,,,,,,,,,9565,Moral,2024-08-14_18h45.47.744,MoralCondition_v2,2022.2.5,29.988802193747507,
12,0,12,0,6,0,6,0,,,,,,,,,,,,,,,,,,,,,,,,,,,,,,,,,,,,,,,,,,,,,,,,,,,,,720.0752252999227,720.0752252999227,0.007158900145441294,0.09748750017024577,2.0,1.6247666000854224,,,,,,,,,,,,,9565,Moral,2024-08-14_18h45.47.744,MoralCondition_v2,2022.2.5,29.988802193747507,
12,0,12,0,,,,,,,,,,,,,,,,,,,,,,,,,,,,,,,,,,,,,,,,,,,,,,,,,,,,,,,,,,,,,,,721.7421415999997,721.7421415999997,0.0006983999628573656,0.0992191000841558,6.0,2.3664329999592155,,,,,,,9565,Moral,2024-08-14_18h45.47.744,MoralCondition_v2,2022.2.5,29.988802193747507,
13,0,13,0,0,0,0,0,,,,,,,,,,,,,,,,,,,,,,724.1422224999405,0.00014569982886314392,0.09940119995735586,730.1584564000368,6.016105399932712,730.325203999877,730.325203999877,0.07881729979999363,0.18244099989533424,6.015910499729216,736.4252661999781,736.4252661999781,736.4252661999781,0.08236829959787428,0.18261379981413484,742.1251516998746,742.3251676000655,6.015929999761283,6.115868599619716,748.3250056998804,12.015746899647638,748.4583558999002,748.4583558999002,0.015901699662208557,0.11569029954262078,down,0.6319455998018384,749.1416182999965,4.679989069700241e-05,0.0977586000226438,755.1418709999416,755.1418709999416,755.1418709999416,0.008731700014322996,0.09785120002925396,4.0,1.990029500098899,,,,,,,748.4249875999521,748.4249875999521,,,736.3250653999858,736.3250653999858,9565,Moral,2024-08-14_18h45.47.744,MoralCondition_v2,2022.2.5,29.988802193747507,
13,0,13,0,1,0,1,0,,,,,,,,,,,,,,,,,,,,,,,,,,,,,,,,,,,,,,,,,,,,,,,,,,,,,757.1749732000753,757.1749732000753,0.00695910002104938,0.09914099983870983,2.0,2.359892100095749,,,,,,,,,,,,,9565,Moral,2024-08-14_18h45.47.744,MoralCondition_v2,2022.2.5,29.988802193747507,
13,0,13,0,2,0,2,0,,,,,,,,,,,,,,,,,,,,,,,,,,,,,,,,,,,,,,,,,,,,,,,,,,,,,759.5921565000899,759.5921565000899,0.008128700079396367,0.11406260007061064,5.0,5.907037100056186,,,,,,,,,,,,,9565,Moral,2024-08-14_18h45.47.744,MoralCondition_v2,2022.2.5,29.988802193747507,
13,0,13,0,3,0,3,0,,,,,,,,,,,,,,,,,,,,,,,,,,,,,,,,,,,,,,,,,,,,,,,,,,,,,765.5248418999836,765.5248418999836,0.007572700036689639,0.09768020012415946,6.0,2.3577180998399854,,,,,,,,,,,,,9565,Moral,2024-08-14_18h45.47.744,MoralCondition_v2,2022.2.5,29.988802193747507,
13,0,13,0,4,0,4,0,,,,,,,,,,,,,,,,,,,,,,,,,,,,,,,,,,,,,,,,,,,,,,,,,,,,,767.9250217999797,767.9250217999797,0.007419199915602803,0.09786089998669922,6.0,0.9915954999160022,,,,,,,,,,,,,9565,Moral,2024-08-14_18h45.47.744,MoralCondition_v2,2022.2.5,29.988802193747507,
13,0,13,0,5,0,5,0,,,,,,,,,,,,,,,,,,,,,,,,,,,,,,,,,,,,,,,,,,,,,,,,,,,,,768.9582072000485,768.9582072000485,0.006549699930474162,0.09844579990021884,5.0,0.7264119999017566,,,,,,,,,,,,,9565,Moral,2024-08-14_18h45.47.744,MoralCondition_v2,2022.2.5,29.988802193747507,
13,0,13,0,6,0,6,0,,,,,,,,,,,,,,,,,,,,,,,,,,,,,,,,,,,,,,,,,,,,,,,,,,,,,769.7248261000495,769.7248261000495,0.006717300042510033,0.09920299984514713,2.0,1.5268037000205368,,,,,,,,,,,,,9565,Moral,2024-08-14_18h45.47.744,MoralCondition_v2,2022.2.5,29.988802193747507,
13,0,13,0,,,,,,,,,,,,,,,,,,,,,,,,,,,,,,,,,,,,,,,,,,,,,,,,,,,,,,,,,,,,,,,771.2915622000583,771.2915622000583,0.001171099953353405,0.09827329986728728,3.0,3.5316550999414176,,,,,,,9565,Moral,2024-08-14_18h45.47.744,MoralCondition_v2,2022.2.5,29.988802193747507,
14,0,14,0,0,0,0,0,,,,,,,,,,,,,,,,,,,,,,774.858269700082,0.00013470021076500416,0.09924120013602078,780.8749096000101,6.015848100185394,781.0415672000963,781.0415672000963,0.07222809991799295,0.18268759991042316,6.015914299990982,787.1417674000841,787.1417674000841,787.1417674000841,0.06918849982321262,0.182639499893412,792.8417501000222,793.0416272000875,6.015970499953255,6.115797000005841,799.0414430000819,12.015786099946126,799.1748245998751,799.1748245998751,0.015859099803492427,0.11575699993409216,down,0.3230093999300152,799.5414885000791,4.91999089717865e-05,0.09712859988212585,805.5583140999079,805.5583140999079,805.5583140999079,0.007849999936297536,0.11343290004879236,2.0,4.2732385999988765,,,,,,,799.1414530000184,799.1414530000184,,,787.0414350999054,787.0414350999054,9565,Moral,2024-08-14_18h45.47.744,MoralCondition_v2,2022.2.5,29.988802193747507,
14,0,14,0,1,0,1,0,,,,,,,,,,,,,,,,,,,,,,,,,,,,,,,,,,,,,,,,,,,,,,,,,,,,,809.8750777998939,809.8750777998939,0.008759899996221066,0.11475470010191202,5.0,2.106807600008324,,,,,,,,,,,,,9565,Moral,2024-08-14_18h45.47.744,MoralCondition_v2,2022.2.5,29.988802193747507,
14,0,14,0,2,0,2,0,,,,,,,,,,,,,,,,,,,,,,,,,,,,,,,,,,,,,,,,,,,,,,,,,,,,,812.0082121999003,812.0082121999003,0.00824210001155734,0.09762390004470944,6.0,1.3238973000552505,,,,,,,,,,,,,9565,Moral,2024-08-14_18h45.47.744,MoralCondition_v2,2022.2.5,29.988802193747507,
14,0,14,0,3,0,3,0,,,,,,,,,,,,,,,,,,,,,,,,,,,,,,,,,,,,,,,,,,,,,,,,,,,,,813.3748725999612,813.3748725999612,0.006679699989035726,0.0991615999955684,3.0,2.3938700000289828,,,,,,,,,,,,,9565,Moral,2024-08-14_18h45.47.744,MoralCondition_v2,2022.2.5,29.988802193747507,
14,0,14,0,4,0,4,0,,,,,,,,,,,,,,,,,,,,,,,,,,,,,,,,,,,,,,,,,,,,,,,,,,,,,815.8079695000779,815.8079695000779,0.007749699987471104,0.09805019991472363,2.0,3.9582249000668526,,,,,,,,,,,,,9565,Moral,2024-08-14_18h45.47.744,MoralCondition_v2,2022.2.5,29.988802193747507,
14,0,14,0,5,0,5,0,,,,,,,,,,,,,,,,,,,,,,,,,,,,,,,,,,,,,,,,,,,,,,,,,,,,,819.8081264998764,819.8081264998764,0.007167699979618192,0.09845079993829131,4.0,3.492221500026062,,,,,,,,,,,,,9565,Moral,2024-08-14_18h45.47.744,MoralCondition_v2,2022.2.5,29.988802193747507,
14,0,14,0,6,0,6,0,,,,,,,,,,,,,,,,,,,,,,,,,,,,,,,,,,,,,,,,,,,,,,,,,,,,,823.3414358000737,823.3414358000737,0.006281800102442503,0.09944349993020296,6.0,4.594213699921966,,,,,,,,,,,,,9565,Moral,2024-08-14_18h45.47.744,MoralCondition_v2,2022.2.5,29.988802193747507,
14,0,14,0,,,,,,,,,,,,,,,,,,,,,,,,,,,,,,,,,,,,,,,,,,,,,,,,,,,,,,,,,,,,,,,827.9748048000038,827.9748048000038,0.0013468998949974775,0.09773800009861588,2.0,9.997483799932525,,,,,,,9565,Moral,2024-08-14_18h45.47.744,MoralCondition_v2,2022.2.5,29.988802193747507,
15,0,15,0,0,0,0,0,,,,,,,,,,,,,,,,,,,,,,838.0080856999848,0.00013649999164044857,0.09944360004737973,844.0079326999839,5.999161700019613,844.1746418999974,844.1746418999974,0.05451789987273514,0.1657382999546826,6.032418399816379,850.3079691999592,850.3079691999592,850.3079691999592,0.0868839998729527,0.19934519985690713,856.0080792999361,856.2079225000925,5.999081899877638,6.0991946996655315,862.2078770000953,11.999142299871892,862.3079283998813,862.3079283998813,4.4996850192546844e-06,0.0990488997194916,up,0.6538763998541981,863.007912500063,5.350005812942982e-05,0.09761360008269548,869.007919699885,869.007919699885,869.007919699885,0.0077974998857825994,0.0976146999746561,5.0,2.5573104000650346,,,,,,,862.3079283998813,862.3079283998813,12.099029299803078,6.099082599859685,850.1746131998952,850.1746131998952,9565,Moral,2024-08-14_18h45.47.744,MoralCondition_v2,2022.2.5,29.988802193747507,
15,0,15,0,1,0,1,0,,,,,,,,,,,,,,,,,,,,,,,,,,,,,,,,,,,,,,,,,,,,,,,,,,,,,871.607905899873,871.607905899873,0.006522299954667687,0.09957160009071231,4.0,3.960284400032833,,,,,,,,,,,,,9565,Moral,2024-08-14_18h45.47.744,MoralCondition_v2,2022.2.5,29.988802193747507,
15,0,15,0,2,0,2,0,,,,,,,,,,,,,,,,,,,,,,,,,,,,,,,,,,,,,,,,,,,,,,,,,,,,,875.6248677999247,875.6248677999247,0.008247800171375275,0.11452460009604692,4.0,2.707121399929747,,,,,,,,,,,,,9565,Moral,2024-08-14_18h45.47.744,MoralCondition_v2,2022.2.5,29.988802193747507,
15,0,15,0,3,0,3,0,,,,,,,,,,,,,,,,,,,,,,,,,,,,,,,,,,,,,,,,,,,,,,,,,,,,,878.3750469000079,878.3750469000079,0.00778290000744164,0.11444350006058812,2.0,4.907685999991372,,,,,,,,,,,,,9565,Moral,2024-08-14_18h45.47.744,MoralCondition_v2,2022.2.5,29.988802193747507,
15,0,15,0,4,0,4,0,,,,,,,,,,,,,,,,,,,,,,,,,,,,,,,,,,,,,,,,,,,,,,,,,,,,,883.3078069998883,883.3078069998883,0.006413200171664357,0.0991329001262784,5.0,1.3602481000125408,,,,,,,,,,,,,9565,Moral,2024-08-14_18h45.47.744,MoralCondition_v2,2022.2.5,29.988802193747507,
15,0,15,0,5,0,5,0,,,,,,,,,,,,,,,,,,,,,,,,,,,,,,,,,,,,,,,,,,,,,,,,,,,,,884.7078782999888,884.7078782999888,0.007655099965631962,0.09716020012274384,3.0,1.8571711999829859,,,,,,,,,,,,,9565,Moral,2024-08-14_18h45.47.744,MoralCondition_v2,2022.2.5,29.988802193747507,
15,0,15,0,6,0,6,0,,,,,,,,,,,,,,,,,,,,,,,,,,,,,,,,,,,,,,,,,,,,,,,,,,,,,886.6077992999926,886.6077992999926,0.006725599989295006,0.09933290001936257,4.0,3.0601590001024306,,,,,,,,,,,,,9565,Moral,2024-08-14_18h45.47.744,MoralCondition_v2,2022.2.5,29.988802193747507,
15,0,15,0,,,,,,,,,,,,,,,,,,,,,,,,,,,,,,,,,,,,,,,,,,,,,,,,,,,,,,,,,,,,,,,889.707942900015,889.707942900015,0.001361900009214878,0.09759079990908504,5.0,5.997512100031599,,,,,,,9565,Moral,2024-08-14_18h45.47.744,MoralCondition_v2,2022.2.5,29.988802193747507,
16,0,16,0,0,0,0,0,,,,,,,,,,,,,,,,,,,,,,895.7413600001018,0.0002413000911474228,0.09799470007419586,901.7578040000517,6.0147608001716435,901.9245197998825,901.9245197998825,0.06987529993057251,0.18130140006542206,6.01465000002645,908.0242812000215,908.0242812000215,908.0242812000215,0.06611469993367791,0.18128839996643364,913.7243409999646,913.9244041999336,6.014617499895394,6.1146488999947906,919.9244888999965,12.014721299987286,920.0408173000906,920.0408173000906,0.01463899970985949,0.09797529969364405,up,0.5775061000604182,920.6744699000847,6.0999998822808266e-05,0.09786379989236593,,926.691724400036,926.691724400036,0.025467999977990985,0.1146174999885261,4.0,3.1567534001078457,,,,,,,920.0243502999656,920.0243502999656,,,907.9244033000432,907.9244033000432,9565,Moral,2024-08-14_18h45.47.744,MoralCondition_v2,2022.2.5,29.988802193747507,
16,0,16,0,1,0,1,0,,,,,,,,,,,,,,,,,,,,,,,,,,,,,,,,,,,,,,,,,,,,,,,,,,,,,929.891251699999,929.891251699999,0.007542100036516786,0.09728370001539588,4.0,3.857590099796653,,,,,,,,,,,,,9565,Moral,2024-08-14_18h45.47.744,MoralCondition_v2,2022.2.5,29.988802193747507,
16,0,16,0,2,0,2,0,,,,,,,,,,,,,,,,,,,,,,,,,,,,,,,,,,,,,,,,,,,,,,,,,,,,,933.7909870999865,933.7909870999865,0.005617500049993396,0.09935609996318817,3.0,4.395057699875906,,,,,,,,,,,,,9565,Moral,2024-08-14_18h45.47.744,MoralCondition_v2,2022.2.5,29.988802193747507,
16,0,16,0,3,0,3,0,,,,,,,,,,,,,,,,,,,,,,,,,,,,,,,,,,,,,,,,,,,,,,,,,,,,,938.2241893000901,938.2241893000901,0.006497600115835667,0.09933440014719963,1.0,2.2603132999502122,,,,,,,,,,,,,9565,Moral,2024-08-14_18h45.47.744,MoralCondition_v2,2022.2.5,29.988802193747507,
16,0,16,0,4,0,4,0,,,,,,,,,,,,,,,,,,,,,,,,,,,,,,,,,,,,,,,,,,,,,,,,,,,,,940.5242246999405,940.5242246999405,0.007737299893051386,0.09848139993846416,5.0,1.3918537001591176,,,,,,,,,,,,,9565,Moral,2024-08-14_18h45.47.744,MoralCondition_v2,2022.2.5,29.988802193747507,
16,0,16,0,5,0,5,0,,,,,,,,,,,,,,,,,,,,,,,,,,,,,,,,,,,,,,,,,,,,,,,,,,,,,941.9744001000654,941.9744001000654,0.008480099961161613,0.11425139987841249,6.0,1.4402409999165684,,,,,,,,,,,,,9565,Moral,2024-08-14_18h45.47.744,MoralCondition_v2,2022.2.5,29.988802193747507,
16,0,16,0,6,0,6,0,,,,,,,,,,,,,,,,,,,,,,,,,,,,,,,,,,,,,,,,,,,,,,,,,,,,,943.4578162999824,943.4578162999824,0.008786299964413047,0.11400970001704991,2.0,1.7064755999017507,,,,,,,,,,,,,9565,Moral,2024-08-14_18h45.47.744,MoralCondition_v2,2022.2.5,29.988802193747507,
16,0,16,0,,,,,,,,,,,,,,,,,,,,,,,,,,,,,,,,,,,,,,,,,,,,,,,,,,,,,,,,,,,,,,,945.1911307999399,945.1911307999399,0.0017311000265181065,0.0974636001046747,5.0,2.530205999966711,,,,,,,9565,Moral,2024-08-14_18h45.47.744,MoralCondition_v2,2022.2.5,29.988802193747507,
17,0,17,0,0,0,0,0,,,,,,,,,,,,,,,,,,,,,,947.7579516000114,0.00032430002465844154,0.0975730000063777,953.7575228998903,6.030864299973473,953.940711400006,953.940711400006,0.06737289996817708,0.1811305999290198,6.014382899971679,960.0408145000692,960.0408145000692,960.0408145000692,0.06985979992896318,0.1810248999390751,965.740852399962,965.9408297999762,6.014178199926391,6.114441999932751,971.9408019999973,12.014148499816656,972.0741767999716,972.0741767999716,0.014571399660781026,0.11409649974666536,down,0.4804979001637548,972.6075007999316,4.0499959141016006e-05,0.09811730007641017,,978.6239791999105,978.6239791999105,0.025820399867370725,0.11445900006219745,3.0,6.823211699957028,,,,,,,972.0409118998796,972.0409118998796,,,959.940823199926,959.940823199926,9565,Moral,2024-08-14_18h45.47.744,MoralCondition_v2,2022.2.5,29.988802193747507,
17,0,17,0,1,0,1,0,,,,,,,,,,,,,,,,,,,,,,,,,,,,,,,,,,,,,,,,,,,,,,,,,,,,,985.4909822999034,985.4909822999034,0.006558900000527501,0.09933059988543391,3.0,4.060164700029418,,,,,,,,,,,,,9565,Moral,2024-08-14_18h45.47.744,MoralCondition_v2,2022.2.5,29.988802193747507,
17,0,17,0,2,0,2,0,,,,,,,,,,,,,,,,,,,,,,,,,,,,,,,,,,,,,,,,,,,,,,,,,,,,,989.5906074000522,989.5906074000522,0.0060443999245762825,0.09914820012636483,3.0,2.127612099982798,,,,,,,,,,,,,9565,Moral,2024-08-14_18h45.47.744,MoralCondition_v2,2022.2.5,29.988802193747507,
17,0,17,0,3,0,3,0,,,,,,,,,,,,,,,,,,,,,,,,,,,,,,,,,,,,,,,,,,,,,,,,,,,,,991.7741034000646,991.7741034000646,0.007855799980461597,0.11430520005524158,6.0,6.774104099953547,,,,,,,,,,,,,9565,Moral,2024-08-14_18h45.47.744,MoralCondition_v2,2022.2.5,29.988802193747507,
17,0,17,0,4,0,4,0,,,,,,,,,,,,,,,,,,,,,,,,,,,,,,,,,,,,,,,,,,,,,,,,,,,,,998.5743018998764,998.5743018998764,0.0076460998971015215,0.09911689977161586,5.0,4.692597900051624,,,,,,,,,,,,,9565,Moral,2024-08-14_18h45.47.744,MoralCondition_v2,2022.2.5,29.988802193747507,
17,0,17,0,5,0,5,0,,,,,,,,,,,,,,,,,,,,,,,,,,,,,,,,,,,,,,,,,,,,,,,,,,,,,1003.3073613001034,1003.3073613001034,0.00651460001245141,0.0994248001370579,6.0,2.260373800061643,,,,,,,,,,,,,9565,Moral,2024-08-14_18h45.47.744,MoralCondition_v2,2022.2.5,29.988802193747507,
17,0,17,0,6,0,6,0,,,,,,,,,,,,,,,,,,,,,,,,,,,,,,,,,,,,,,,,,,,,,,,,,,,,,1005.6242505998816,1005.6242505998816,0.010146499844267964,0.11409289995208383,1.0,1.8382748998701572,,,,,,,,,,,,,9565,Moral,2024-08-14_18h45.47.744,MoralCondition_v2,2022.2.5,29.988802193747507,
17,0,17,0,,,,,,,,,,,,,,,,,,,,,,,,,,,,,,,,,,,,,,,,,,,,,,,,,,,,,,,,,,,,,,,1007.4905669,1007.4905669,0.0009888000786304474,0.0985288000665605,2.0,2.3993635999504477,,,,,,,9565,Moral,2024-08-14_18h45.47.744,MoralCondition_v2,2022.2.5,29.988802193747507,
18,0,18,0,0,0,0,0,,,,,,,,,,,,,,,,,,,,,,1009.9239646999631,0.0003574998117983341,0.09750519995577633,1015.9406194998883,6.0139316997956485,1016.1074349000119,1016.1074349000119,0.0679242997430265,0.18070219992659986,6.013886199798435,1022.2072699998971,1022.2072699998971,1022.2072699998971,0.06747449981048703,0.18065999960526824,1027.9072652000468,1028.1073994000908,6.014096399769187,6.113883599638939,1034.1072595000733,12.013971699634567,1034.2405461999588,1034.2405461999588,0.01411409955471754,0.11384079954586923,down,0.7941179000772536,1035.0906036000233,5.7999975979328156e-05,0.09877169993706048,1041.1071544999722,1041.1071544999722,1041.1071544999722,0.009305699961259961,0.11555059999227524,2.0,1.3072063999716192,,,,,,,1034.2072534998879,1034.2072534998879,,,1022.1073090001009,1022.1073090001009,9565,Moral,2024-08-14_18h45.47.744,MoralCondition_v2,2022.2.5,29.988802193747507,
18,0,18,0,1,0,1,0,,,,,,,,,,,,,,,,,,,,,,,,,,,,,,,,,,,,,,,,,,,,,,,,,,,,,1042.440606799908,1042.440606799908,0.007386700017377734,0.09791339980438352,5.0,1.5916961999610066,,,,,,,,,,,,,9565,Moral,2024-08-14_18h45.47.744,MoralCondition_v2,2022.2.5,29.988802193747507,
18,0,18,0,2,0,2,0,,,,,,,,,,,,,,,,,,,,,,,,,,,,,,,,,,,,,,,,,,,,,,,,,,,,,1044.073775100056,1044.073775100056,0.007237799931317568,0.0974489999935031,7.0,1.091097999829799,,,,,,,,,,,,,9565,Moral,2024-08-14_18h45.47.744,MoralCondition_v2,2022.2.5,29.988802193747507,
18,0,18,0,3,0,3,0,,,,,,,,,,,,,,,,,,,,,,,,,,,,,,,,,,,,,,,,,,,,,,,,,,,,,1045.2072525999974,1045.2072525999974,0.007357500027865171,0.09839330008253455,7.0,0.79204440000467,,,,,,,,,,,,,9565,Moral,2024-08-14_18h45.47.744,MoralCondition_v2,2022.2.5,29.988802193747507,
18,0,18,0,4,0,4,0,,,,,,,,,,,,,,,,,,,,,,,,,,,,,,,,,,,,,,,,,,,,,,,,,,,,,1046.0574626000598,1046.0574626000598,0.008077600039541721,0.11468120012432337,5.0,1.4409189999569207,,,,,,,,,,,,,9565,Moral,2024-08-14_18h45.47.744,MoralCondition_v2,2022.2.5,29.988802193747507,
18,0,18,0,5,0,5,0,,,,,,,,,,,,,,,,,,,,,,,,,,,,,,,,,,,,,,,,,,,,,,,,,,,,,1047.540793800028,1047.540793800028,0.00785399996675551,0.11442269990220666,4.0,3.8075736998580396,,,,,,,,,,,,,9565,Moral,2024-08-14_18h45.47.744,MoralCondition_v2,2022.2.5,29.988802193747507,
18,0,18,0,6,0,6,0,,,,,,,,,,,,,,,,,,,,,,,,,,,,,,,,,,,,,,,,,,,,,,,,,,,,,1051.390480699949,1051.390480699949,0.00784339988604188,0.11425749980844557,3.0,6.90757909999229,,,,,,,,,,,,,9565,Moral,2024-08-14_18h45.47.744,MoralCondition_v2,2022.2.5,29.988802193747507,
18,0,18,0,,,,,,,,,,,,,,,,,,,,,,,,,,,,,,,,,,,,,,,,,,,,,,,,,,,,,,,,,,,,,,,1058.32391320006,1058.32391320006,0.0010496999602764845,0.09779729996807873,2.0,1.8313080000225455,,,,,,,9565,Moral,2024-08-14_18h45.47.744,MoralCondition_v2,2022.2.5,29.988802193747507,
19,0,19,0,0,0,0,0,,,,,,,,,,,,,,,,,,,,,,1060.1907379999757,0.00013489997945725918,0.09932960011065006,1066.20711269998,6.015951600158587,1066.3738895999268,1066.3738895999268,0.06881750002503395,0.18290530005469918,6.015958199976012,1072.4739153999835,1072.4739153999835,1072.4739153999835,0.07108149980194867,0.1828014999628067,1078.1737643999513,1078.3737383999396,6.0159739998634905,6.115887799998745,1084.3737896000966,12.016027299920097,1084.5070126999635,1084.5070126999635,0.015847699716687202,0.11569749983027577,up,0.750871199881658,1085.3236758999992,4.560011439025402e-05,0.0980667001567781,1091.3239442999475,1091.3239442999475,1091.3239442999475,0.00902900006622076,0.09792680013924837,4.0,2.356714199995622,,,,,,,1084.4568560998887,1084.4568560998887,,,1072.3737401999533,1072.3737401999533,9565,Moral,2024-08-14_18h45.47.744,MoralCondition_v2,2022.2.5,29.988802193747507,
19,0,19,0,1,0,1,0,,,,,,,,,,,,,,,,,,,,,,,,,,,,,,,,,,,,,,,,,,,,,,,,,,,,,1093.7237201998942,1093.7237201998942,0.007318099960684776,0.09786300011910498,1.0,1.3245987000409514,,,,,,,,,,,,,9565,Moral,2024-08-14_18h45.47.744,MoralCondition_v2,2022.2.5,29.988802193747507,
19,0,19,0,2,0,2,0,,,,,,,,,,,,,,,,,,,,,,,,,,,,,,,,,,,,,,,,,,,,,,,,,,,,,1095.090379399946,1095.090379399946,0.007382999872788787,0.09799099992960691,6.0,1.5583816999569535,,,,,,,,,,,,,9565,Moral,2024-08-14_18h45.47.744,MoralCondition_v2,2022.2.5,29.988802193747507,
19,0,19,0,3,0,3,0,,,,,,,,,,,,,,,,,,,,,,,,,,,,,,,,,,,,,,,,,,,,,,,,,,,,,1096.707493999973,1096.707493999973,0.007777000078931451,0.11432590009644628,3.0,1.3074334999546409,,,,,,,,,,,,,9565,Moral,2024-08-14_18h45.47.744,MoralCondition_v2,2022.2.5,29.988802193747507,
19,0,19,0,4,0,4,0,,,,,,,,,,,,,,,,,,,,,,,,,,,,,,,,,,,,,,,,,,,,,,,,,,,,,1098.0573436999694,1098.0573436999694,0.008128400193527341,0.11443970003165305,3.0,1.8072190000675619,,,,,,,,,,,,,9565,Moral,2024-08-14_18h45.47.744,MoralCondition_v2,2022.2.5,29.988802193747507,
19,0,19,0,5,0,5,0,,,,,,,,,,,,,,,,,,,,,,,,,,,,,,,,,,,,,,,,,,,,,,,,,,,,,1099.9072123998776,1099.9072123998776,0.009008999913930893,0.11461780010722578,5.0,3.7731594999786466,,,,,,,,,,,,,9565,Moral,2024-08-14_18h45.47.744,MoralCondition_v2,2022.2.5,29.988802193747507,
19,0,19,0,6,0,6,0,,,,,,,,,,,,,,,,,,,,,,,,,,,,,,,,,,,,,,,,,,,,,,,,,,,,,1103.7068872998934,1103.7068872998934,0.006647699978202581,0.09896599990315735,2.0,2.293713500024751,,,,,,,,,,,,,9565,Moral,2024-08-14_18h45.47.744,MoralCondition_v2,2022.2.5,29.988802193747507,
19,0,19,0,,,,,,,,,,,,,,,,,,,,,,,,,,,,,,,,,,,,,,,,,,,,,,,,,,,,,,,,,,,,,,,1106.0402277000248,1106.0402277000248,0.0017436998896300793,0.0971745999995619,6.0,5.896721199853346,,,,,,,9565,Moral,2024-08-14_18h45.47.744,MoralCondition_v2,2022.2.5,29.988802193747507,
