loop.thisRepN,loop.thisTrialN,loop.thisN,loop.thisIndex,evaluate_all_emotions.thisRepN,evaluate_all_emotions.thisTrialN,evaluate_all_emotions.thisN,evaluate_all_emotions.thisIndex,sync_beep_1.started,p_port.started,p_port.stopped,sync_beep_1.stopped,sync_beep_2.started,sync_beep_2.stopped,sync_beep_3.started,sync_beep_3.stopped,sync_beep_4.started,sync_beep_4.stopped,baseline.started,p_port_2.started,p_port_2.stopped,baseline.stopped,p_port_3.started,Game_Start_Text.started,p_port_4.started,p_port_4.stopped,key_resp.started,key_resp.keys,key_resp.rt,fixation_cross.started,p_port_5.started,p_port_5.stopped,fixation_cross.stopped,p_port_6.started,player_image_intro.started,player_name_intro.started,p_port_7.started,p_port_7.stopped,p_port_8.started,player_image_offer.started,player_name_offer.started,proposed_split.started,p_port_9.started,p_port_9.stopped,proposed_split.stopped,accept_reject.started,p_port_15.started,p_port_15.stopped,accept_reject.stopped,p_port_10.started,player_image_offer.stopped,player_name_offer.stopped,arrow_instructions.started,offer_choice.started,p_port_11.started,p_port_11.stopped,offer_choice.keys,offer_choice.rt,Instructions_Affinity_Score.started,p_port_12.started,p_port_12.stopped,Emotion_Image.started,AffinityScore.started,p_port_13.started,p_port_13.stopped,AffinityScore.response,AffinityScore.rt,Instruction.started,Moral_Disgust_Score.started,p_port_14.started,p_port_14.stopped,Moral_Disgust_Score.response,Moral_Disgust_Score.rt,Instructions_Affinity_Score.stopped,player_image_intro.stopped,player_name_intro.stopped,p_port_6.stopped,p_port_8.stopped,p_port_10.stopped,participant,session,date,expName,psychopyVersion,frameRate,
,,,,,,,,28.48153643067926,0.0008359011262655258,0.10752080008387566,28.798882799223065,29.082115369476377,29.39892239868641,29.699171269871293,29.998934099450707,30.28226037006825,30.598982099443674,30.598982099443674,0.02443540096282959,0.12442110106348991,45.615584298968315,15.007652001455426,45.71560909971595,0.0076804012060165405,0.10767080076038837,46.1654348988086,space,2.2975066006183624,,,,,,,,,,,,,,,,,,,,,,,,,,,,,,,,,,,,,,,,,,,,,,,,,,,9647,Moral,2024-06-11_18h00.59.795,MoralCondition_v2,2022.2.5,30.000398928016324,
0,0,0,0,0,0,0,0,,,,,,,,,,,,,,,,,,,,,,48.498930199071765,0.001107100397348404,0.09838959947228432,54.515619199723005,6.015115899965167,54.782169599086046,54.782169599086046,0.14912099950015545,0.28208430111408234,6.015010500326753,60.79891089908779,60.79891089908779,60.79891089908779,0.07597660087049007,0.19852680154144764,66.49892569892108,66.69906739890575,6.031882701441646,6.131670901551843,72.6990946996957,12.031886599957943,72.7988435998559,72.7988435998559,72.83222300000489,72.83222300000489,0.03181710094213486,0.13145630061626434,down,3.6862227022647858,76.58221600018442,4.33996319770813e-05,0.09760629944503307,82.63233529962599,82.63233529962599,0.03555360063910484,0.14771570079028606,6.0,6.76312149874866,,,,,,,,,,,,,9647,Moral,2024-06-11_18h00.59.795,MoralCondition_v2,2022.2.5,30.000398928016324,
0,0,0,0,1,0,1,0,,,,,,,,,,,,,,,,,,,,,,,,,,,,,,,,,,,,,,,,,,,,,,,,,,,,,,89.43246709927917,89.43246709927917,0.012195998802781105,0.11556009948253632,7.0,7.337519301101565,,,,,,,,,,,,,9647,Moral,2024-06-11_18h00.59.795,MoralCondition_v2,2022.2.5,30.000398928016324,
0,0,0,0,2,0,2,0,,,,,,,,,,,,,,,,,,,,,,,,,,,,,,,,,,,,,,,,,,,,,,,,,,,,,,96.81553529947996,96.81553529947996,0.012941701337695122,0.11415130086243153,5.0,8.235750999301672,,,,,,,,,,,,,9647,Moral,2024-06-11_18h00.59.795,MoralCondition_v2,2022.2.5,30.000398928016324,
0,0,0,0,3,0,3,0,,,,,,,,,,,,,,,,,,,,,,,,,,,,,,,,,,,,,,,,,,,,,,,,,,,,,,105.09891069866717,105.09891069866717,0.011118199676275253,0.11405319906771183,6.0,3.1373084001243114,,,,,,,,,,,,,9647,Moral,2024-06-11_18h00.59.795,MoralCondition_v2,2022.2.5,30.000398928016324,
0,0,0,0,4,0,4,0,,,,,,,,,,,,,,,,,,,,,,,,,,,,,,,,,,,,,,,,,,,,,,,,,,,,,,108.26540269888937,108.26540269888937,0.008599499240517616,0.09904439933598042,5.0,4.724790899083018,,,,,,,,,,,,,9647,Moral,2024-06-11_18h00.59.795,MoralCondition_v2,2022.2.5,30.000398928016324,
0,0,0,0,5,0,5,0,,,,,,,,,,,,,,,,,,,,,,,,,,,,,,,,,,,,,,,,,,,,,,,,,,,,,,113.048976900056,113.048976900056,0.009900499135255814,0.11489010043442249,6.0,4.072903199121356,,,,,,,,,,,,,9647,Moral,2024-06-11_18h00.59.795,MoralCondition_v2,2022.2.5,30.000398928016324,
0,0,0,0,6,0,6,0,,,,,,,,,,,,,,,,,,,,,,,,,,,,,,,,,,,,,,,,,,,,,,,,,,,,,,117.16573959961534,117.16573959961534,0.009807901456952095,0.11430560052394867,5.0,7.972418200224638,,,,,,,,,,,,,9647,Moral,2024-06-11_18h00.59.795,MoralCondition_v2,2022.2.5,30.000398928016324,
0,0,0,0,,,,,,,,,,,,,,,,,,,,,,,,,,,,,,,,,,,,,,,,,,,,,,,,,,,,,,,,,,,,,,,,125.16539740003645,125.16539740003645,0.0007457006722688675,0.09894760139286518,2.0,8.39949250034988,,,,,,,9647,Moral,2024-06-11_18h00.59.795,MoralCondition_v2,2022.2.5,30.000398928016324,
1,0,1,0,0,0,0,0,,,,,,,,,,,,,,,,,,,,,,133.59903880022466,0.0004001986235380173,0.0967634990811348,139.59883239865303,6.030281499028206,139.84854280017316,139.84854280017316,0.14251819998025894,0.24691549874842167,6.013599900528789,145.88210269995034,145.88210269995034,145.88210269995034,0.07920460030436516,0.1803360003978014,151.58214679919183,151.78214409947395,6.013618100434542,6.11351259984076,157.78207929991186,12.013531800359488,157.88216909952462,157.88216909952462,157.9155705999583,157.9155705999583,0.01379540003836155,0.11371480114758015,up,2.3866189010441303,160.3487794995308,6.479956209659576e-05,0.09788359887897968,166.3655648995191,166.3655648995191,0.00980209931731224,0.11457369849085808,2.0,5.472496300935745,,,,,,,166.3655648995191,,,,,,9647,Moral,2024-06-11_18h00.59.795,MoralCondition_v2,2022.2.5,30.000398928016324,
1,0,1,0,1,0,1,0,,,,,,,,,,,,,,,,,,,,,,,,,,,,,,,,,,,,,,,,,,,,,,,,,,,,,,171.8656318988651,171.8656318988651,0.006632499396800995,0.09914040006697178,1.0,2.460292199626565,,,,,,,,,,,,,9647,Moral,2024-06-11_18h00.59.795,MoralCondition_v2,2022.2.5,30.000398928016324,
1,0,1,0,2,0,2,0,,,,,,,,,,,,,,,,,,,,,,,,,,,,,,,,,,,,,,,,,,,,,,,,,,,,,,174.3653388991952,174.3653388991952,0.006431899964809418,0.09917400032281876,1.0,1.7938060984015465,,,,,,,,,,,,,9647,Moral,2024-06-11_18h00.59.795,MoralCondition_v2,2022.2.5,30.000398928016324,
1,0,1,0,3,0,3,0,,,,,,,,,,,,,,,,,,,,,,,,,,,,,,,,,,,,,,,,,,,,,,,,,,,,,,176.19870759919286,176.19870759919286,0.006701299920678139,0.09945010021328926,1.0,3.3605524003505707,,,,,,,,,,,,,9647,Moral,2024-06-11_18h00.59.795,MoralCondition_v2,2022.2.5,30.000398928016324,
1,0,1,0,4,0,4,0,,,,,,,,,,,,,,,,,,,,,,,,,,,,,,,,,,,,,,,,,,,,,,,,,,,,,,179.59867069870234,179.59867069870234,0.0074212998151779175,0.09763120114803314,6.0,3.9580971002578735,,,,,,,,,,,,,9647,Moral,2024-06-11_18h00.59.795,MoralCondition_v2,2022.2.5,30.000398928016324,
1,0,1,0,5,0,5,0,,,,,,,,,,,,,,,,,,,,,,,,,,,,,,,,,,,,,,,,,,,,,,,,,,,,,,183.59898339957,183.59898339957,0.006675500422716141,0.09939529933035374,1.0,2.360563699156046,,,,,,,,,,,,,9647,Moral,2024-06-11_18h00.59.795,MoralCondition_v2,2022.2.5,30.000398928016324,
1,0,1,0,6,0,6,0,,,,,,,,,,,,,,,,,,,,,,,,,,,,,,,,,,,,,,,,,,,,,,,,,,,,,,186.01559409871697,186.01559409871697,0.008340099826455116,0.11408929899334908,1.0,3.9734393004328012,,,,,,,,,,,,,9647,Moral,2024-06-11_18h00.59.795,MoralCondition_v2,2022.2.5,30.000398928016324,
1,0,1,0,,,,,,,,,,,,,,,,,,,,,,,,,,,,,,,,,,,,,,,,,,,,,,,,,,,,,,,,,,,,,,,,190.01556050032377,190.01556050032377,0.0021232999861240387,0.09704289957880974,7.0,7.463043600320816,,,,,,,9647,Moral,2024-06-11_18h00.59.795,MoralCondition_v2,2022.2.5,30.000398928016324,
2,0,2,0,0,0,0,0,,,,,,,,,,,,,,,,,,,,,,197.51539379917085,0.00036009959876537323,0.09737559966742992,203.5320586003363,6.013699600473046,203.69887379929423,203.69887379929423,0.0694740004837513,0.18070279993116856,6.013666100800037,209.7821267992258,209.7821267992258,209.7821267992258,0.06977820210158825,0.16372050158679485,215.48201579973102,215.7153731994331,6.030419200658798,6.130431501194835,221.7153791990131,12.03043240122497,221.78207859955728,221.78207859955728,221.8487377986312,221.8487377986312,0.030672801658511162,0.13052990101277828,down,2.486147301271558,224.39867269992828,4.989840090274811e-05,0.09800869971513748,230.43266519904137,230.43266519904137,0.02531369961798191,0.1311332993209362,7.0,4.240190198644996,,,,,,,,209.6987320985645,209.6987320985645,,,,9647,Moral,2024-06-11_18h00.59.795,MoralCondition_v2,2022.2.5,30.000398928016324,
2,0,2,0,1,0,1,0,,,,,,,,,,,,,,,,,,,,,,,,,,,,,,,,,,,,,,,,,,,,,,,,,,,,,,234.69869119860232,234.69869119860232,0.007378101348876953,0.09795720130205154,6.0,3.8248107004910707,,,,,,,,,,,,,9647,Moral,2024-06-11_18h00.59.795,MoralCondition_v2,2022.2.5,30.000398928016324,
2,0,2,0,2,0,2,0,,,,,,,,,,,,,,,,,,,,,,,,,,,,,,,,,,,,,,,,,,,,,,,,,,,,,,238.56531549990177,238.56531549990177,0.005810201168060303,0.09874780103564262,1.0,5.394008599221706,,,,,,,,,,,,,9647,Moral,2024-06-11_18h00.59.795,MoralCondition_v2,2022.2.5,30.000398928016324,
2,0,2,0,3,0,3,0,,,,,,,,,,,,,,,,,,,,,,,,,,,,,,,,,,,,,,,,,,,,,,,,,,,,,,244.01524619944394,244.01524619944394,0.008918801322579384,0.11361830122768879,6.0,3.7060006000101566,,,,,,,,,,,,,9647,Moral,2024-06-11_18h00.59.795,MoralCondition_v2,2022.2.5,30.000398928016324,
2,0,2,0,4,0,4,0,,,,,,,,,,,,,,,,,,,,,,,,,,,,,,,,,,,,,,,,,,,,,,,,,,,,,,247.74882069975138,247.74882069975138,0.006946200504899025,0.09891510009765625,7.0,3.39314609952271,,,,,,,,,,,,,9647,Moral,2024-06-11_18h00.59.795,MoralCondition_v2,2022.2.5,30.000398928016324,
2,0,2,0,5,0,5,0,,,,,,,,,,,,,,,,,,,,,,,,,,,,,,,,,,,,,,,,,,,,,,,,,,,,,,251.18197350017726,251.18197350017726,0.00787920132279396,0.0973490010946989,5.0,5.190971601754427,,,,,,,,,,,,,9647,Moral,2024-06-11_18h00.59.795,MoralCondition_v2,2022.2.5,30.000398928016324,
2,0,2,0,6,0,6,0,,,,,,,,,,,,,,,,,,,,,,,,,,,,,,,,,,,,,,,,,,,,,,,,,,,,,,256.41529610008,256.41529610008,0.008581200614571571,0.09739590063691139,6.0,2.189963499084115,,,,,,,,,,,,,9647,Moral,2024-06-11_18h00.59.795,MoralCondition_v2,2022.2.5,30.000398928016324,
2,0,2,0,,,,,,,,,,,,,,,,,,,,,,,,,,,,,,,,,,,,,,,,,,,,,,,,,,,,,,,,,,,,,,,,258.64857769943774,258.64857769943774,0.0012202002108097076,0.09761999920010567,1.0,7.164437800645828,,,,,,,9647,Moral,2024-06-11_18h00.59.795,MoralCondition_v2,2022.2.5,30.000398928016324,
3,0,3,0,0,0,0,0,,,,,,,,,,,,,,,,,,,,,,265.8490415997803,0.00035839900374412537,0.09777199849486351,271.84841699898243,6.0142286997288465,272.04844399914145,272.04844399914145,0.08273829892277718,0.1977658998221159,6.031083200126886,278.1485324986279,278.1485324986279,278.1485324986279,0.09097629971802235,0.1976328995078802,283.84858599863946,284.0485874991864,6.03111119940877,6.1310502998530865,290.04860819876194,12.031127599999309,290.1486873999238,290.1486873999238,290.1819541994482,290.1819541994482,0.03136720135807991,0.13104220107197762,up,2.36879220046103,292.59880319982767,5.1001086831092834e-05,0.09769190102815628,298.59834609925747,298.59834609925747,0.005964800715446472,0.09769809991121292,2.0,4.492708200588822,,,,,,,298.59834609925747,278.0486086998135,278.0486086998135,6.097733799368143,,,9647,Moral,2024-06-11_18h00.59.795,MoralCondition_v2,2022.2.5,30.000398928016324,
3,0,3,0,1,0,1,0,,,,,,,,,,,,,,,,,,,,,,,,,,,,,,,,,,,,,,,,,,,,,,,,,,,,,,303.1319420989603,303.1319420989603,0.0073138996958732605,0.09898240119218826,1.0,2.459206100553274,,,,,,,,,,,,,9647,Moral,2024-06-11_18h00.59.795,MoralCondition_v2,2022.2.5,30.000398928016324,
3,0,3,0,2,0,2,0,,,,,,,,,,,,,,,,,,,,,,,,,,,,,,,,,,,,,,,,,,,,,,,,,,,,,,305.6318437997252,305.6318437997252,0.006845399737358093,0.09774400107562542,1.0,3.458770200610161,,,,,,,,,,,,,9647,Moral,2024-06-11_18h00.59.795,MoralCondition_v2,2022.2.5,30.000398928016324,
3,0,3,0,3,0,3,0,,,,,,,,,,,,,,,,,,,,,,,,,,,,,,,,,,,,,,,,,,,,,,,,,,,,,,309.1320257987827,309.1320257987827,0.007474599406123161,0.09927159920334816,1.0,2.559596201404929,,,,,,,,,,,,,9647,Moral,2024-06-11_18h00.59.795,MoralCondition_v2,2022.2.5,30.000398928016324,
3,0,3,0,4,0,4,0,,,,,,,,,,,,,,,,,,,,,,,,,,,,,,,,,,,,,,,,,,,,,,,,,,,,,,311.73171089962125,311.73171089962125,0.006584400311112404,0.09911279939115047,2.0,2.1937131006270647,,,,,,,,,,,,,9647,Moral,2024-06-11_18h00.59.795,MoralCondition_v2,2022.2.5,30.000398928016324,
3,0,3,0,5,0,5,0,,,,,,,,,,,,,,,,,,,,,,,,,,,,,,,,,,,,,,,,,,,,,,,,,,,,,,313.9651547987014,313.9651547987014,0.007489301264286041,0.09757100045681,2.0,3.5908767003566027,,,,,,,,,,,,,9647,Moral,2024-06-11_18h00.59.795,MoralCondition_v2,2022.2.5,30.000398928016324,
3,0,3,0,6,0,6,0,,,,,,,,,,,,,,,,,,,,,,,,,,,,,,,,,,,,,,,,,,,,,,,,,,,,,,317.5985257998109,317.5985257998109,0.00771389901638031,0.09768289886415005,7.0,2.62423549965024,,,,,,,,,,,,,9647,Moral,2024-06-11_18h00.59.795,MoralCondition_v2,2022.2.5,30.000398928016324,
3,0,3,0,,,,,,,,,,,,,,,,,,,,,,,,,,,,,,,,,,,,,,,,,,,,,,,,,,,,,,,,,,,,,,,,320.26525089889765,320.26525089889765,0.001587599515914917,0.09785209968686104,7.0,5.330493699759245,,,,,,,9647,Moral,2024-06-11_18h00.59.795,MoralCondition_v2,2022.2.5,30.000398928016324,
4,0,4,0,0,0,0,0,,,,,,,,,,,,,,,,,,,,,,325.6321789994836,0.00015840120613574982,0.09912210144102573,331.6484788991511,6.0157389007508755,331.8152871001512,331.8152871001512,0.07380990125238895,0.18271780014038086,6.015722701326013,337.91528039984405,337.91528039984405,337.91528039984405,0.07072170078754425,0.18260610103607178,343.6151486001909,343.8151004984975,6.015739601105452,6.11587150208652,349.81513289920986,12.015912801027298,349.9151043985039,349.9151043985039,349.9485050998628,349.9485050998628,0.01593480259180069,0.1156925018876791,down,2.249872099608183,352.2484456989914,4.620105028152466e-05,0.0978580005466938,358.26520579867065,358.26520579867065,0.0253113005310297,0.11473260074853897,6.0,3.8571115992963314,,,,,,,,337.8152522984892,337.8152522984892,,,,9647,Moral,2024-06-11_18h00.59.795,MoralCondition_v2,2022.2.5,30.000398928016324,
4,0,4,0,1,0,1,0,,,,,,,,,,,,,,,,,,,,,,,,,,,,,,,,,,,,,,,,,,,,,,,,,,,,,,362.1652154996991,362.1652154996991,0.006562499329447746,0.09913809970021248,7.0,3.22683409973979,,,,,,,,,,,,,9647,Moral,2024-06-11_18h00.59.795,MoralCondition_v2,2022.2.5,30.000398928016324,
4,0,4,0,2,0,2,0,,,,,,,,,,,,,,,,,,,,,,,,,,,,,,,,,,,,,,,,,,,,,,,,,,,,,,365.44844380021095,365.44844380021095,0.008521400392055511,0.11461850069463253,6.0,2.640412600710988,,,,,,,,,,,,,9647,Moral,2024-06-11_18h00.59.795,MoralCondition_v2,2022.2.5,30.000398928016324,
4,0,4,0,3,0,3,0,,,,,,,,,,,,,,,,,,,,,,,,,,,,,,,,,,,,,,,,,,,,,,,,,,,,,,368.1318066995591,368.1318066995591,0.007609501481056213,0.11450299993157387,7.0,2.2077224012464285,,,,,,,,,,,,,9647,Moral,2024-06-11_18h00.59.795,MoralCondition_v2,2022.2.5,30.000398928016324,
4,0,4,0,4,0,4,0,,,,,,,,,,,,,,,,,,,,,,,,,,,,,,,,,,,,,,,,,,,,,,,,,,,,,,370.3820784986019,370.3820784986019,0.008368801325559616,0.11460670083761215,1.0,2.6407145000994205,,,,,,,,,,,,,9647,Moral,2024-06-11_18h00.59.795,MoralCondition_v2,2022.2.5,30.000398928016324,
4,0,4,0,5,0,5,0,,,,,,,,,,,,,,,,,,,,,,,,,,,,,,,,,,,,,,,,,,,,,,,,,,,,,,373.0485320985317,373.0485320985317,0.006708899512887001,0.0989168006926775,6.0,3.6934750992804766,,,,,,,,,,,,,9647,Moral,2024-06-11_18h00.59.795,MoralCondition_v2,2022.2.5,30.000398928016324,
4,0,4,0,6,0,6,0,,,,,,,,,,,,,,,,,,,,,,,,,,,,,,,,,,,,,,,,,,,,,,,,,,,,,,376.7816013991833,376.7816013991833,0.006777400150895119,0.09919429942965508,7.0,1.9269232992082834,,,,,,,,,,,,,9647,Moral,2024-06-11_18h00.59.795,MoralCondition_v2,2022.2.5,30.000398928016324,
4,0,4,0,,,,,,,,,,,,,,,,,,,,,,,,,,,,,,,,,,,,,,,,,,,,,,,,,,,,,,,,,,,,,,,,378.74843079969287,378.74843079969287,0.0010308008641004562,0.09831329993903637,1.0,7.265231100842357,,,,,,,9647,Moral,2024-06-11_18h00.59.795,MoralCondition_v2,2022.2.5,30.000398928016324,
5,0,5,0,0,0,0,0,,,,,,,,,,,,,,,,,,,,,,386.0484074987471,0.00026430003345012665,0.09787880070507526,392.06501499935985,6.014503100886941,392.23170979879797,392.23170979879797,0.08026199974119663,0.1813960000872612,6.014417300000787,398.33187099918723,398.33187099918723,398.33187099918723,0.06818840093910694,0.18134700134396553,404.0318003986031,404.2318657990545,6.014686601236463,6.114420801401138,410.23167119920254,12.014540400356054,410.3316251989454,410.3316251989454,410.36497479863465,410.36497479863465,0.014603400602936745,0.11438250169157982,up,2.7455685026943684,413.16495169885457,5.199946463108063e-05,0.09790189936757088,419.19824219867587,419.19824219867587,0.026739099994301796,0.13136300072073936,2.0,3.7055597994476557,,,,,,,,398.2316592987627,398.2316592987627,,,,9647,Moral,2024-06-11_18h00.59.795,MoralCondition_v2,2022.2.5,30.000398928016324,
5,0,5,0,1,0,1,0,,,,,,,,,,,,,,,,,,,,,,,,,,,,,,,,,,,,,,,,,,,,,,,,,,,,,,422.93159030005336,422.93159030005336,0.007256001234054565,0.09762400016188622,2.0,1.9247465003281832,,,,,,,,,,,,,9647,Moral,2024-06-11_18h00.59.795,MoralCondition_v2,2022.2.5,30.000398928016324,
5,0,5,0,2,0,2,0,,,,,,,,,,,,,,,,,,,,,,,,,,,,,,,,,,,,,,,,,,,,,,,,,,,,,,424.89837759919465,424.89837759919465,0.0074768997728824615,0.0976358987390995,2.0,1.9246411994099617,,,,,,,,,,,,,9647,Moral,2024-06-11_18h00.59.795,MoralCondition_v2,2022.2.5,30.000398928016324,
5,0,5,0,3,0,3,0,,,,,,,,,,,,,,,,,,,,,,,,,,,,,,,,,,,,,,,,,,,,,,,,,,,,,,426.8818509001285,426.8818509001285,0.009568100795149803,0.11397450044751167,1.0,1.6055830996483564,,,,,,,,,,,,,9647,Moral,2024-06-11_18h00.59.795,MoralCondition_v2,2022.2.5,30.000398928016324,
5,0,5,0,4,0,4,0,,,,,,,,,,,,,,,,,,,,,,,,,,,,,,,,,,,,,,,,,,,,,,,,,,,,,,428.51497729867697,428.51497729867697,0.007455799728631973,0.09767819941043854,1.0,1.657931599766016,,,,,,,,,,,,,9647,Moral,2024-06-11_18h00.59.795,MoralCondition_v2,2022.2.5,30.000398928016324,
5,0,5,0,5,0,5,0,,,,,,,,,,,,,,,,,,,,,,,,,,,,,,,,,,,,,,,,,,,,,,,,,,,,,,430.2318894993514,430.2318894993514,0.008032198995351791,0.11451879888772964,1.0,0.9409040007740259,,,,,,,,,,,,,9647,Moral,2024-06-11_18h00.59.795,MoralCondition_v2,2022.2.5,30.000398928016324,
5,0,5,0,6,0,6,0,,,,,,,,,,,,,,,,,,,,,,,,,,,,,,,,,,,,,,,,,,,,,,,,,,,,,,431.1982342991978,431.1982342991978,0.0075096990913152695,0.09939000010490417,7.0,2.1927346996963024,,,,,,,,,,,,,9647,Moral,2024-06-11_18h00.59.795,MoralCondition_v2,2022.2.5,30.000398928016324,
5,0,5,0,,,,,,,,,,,,,,,,,,,,,,,,,,,,,,,,,,,,,,,,,,,,,,,,,,,,,,,,,,,,,,,,433.4315448999405,433.4315448999405,0.0014530997723340988,0.09754260070621967,7.0,3.1976254004985094,,,,,,,9647,Moral,2024-06-11_18h00.59.795,MoralCondition_v2,2022.2.5,30.000398928016324,
6,0,6,0,0,0,0,0,,,,,,,,,,,,,,,,,,,,,,436.66529589891434,0.00026449933648109436,0.09772570058703423,442.6649984996766,6.031122600659728,442.86473909951746,442.86473909951746,0.09019220061600208,0.19785650074481964,6.030975600704551,448.96486520022154,448.96486520022154,448.96486520022154,0.08708180114626884,0.19789310172200203,454.6648264992982,454.8648352995515,6.030959499999881,6.130940901115537,460.86485109850764,12.030961500480771,460.96482949890196,460.96482949890196,460.998173000291,460.998173000291,0.031124001368880272,0.13089150190353394,up,1.4723457023501396,462.5148114990443,3.82009893655777e-05,0.09792480058968067,468.53144159913063,468.53144159913063,0.00875370018184185,0.11472180113196373,2.0,4.14008709974587,,,,,,,468.53144159913063,448.86491799913347,448.86491799913347,,,,9647,Moral,2024-06-11_18h00.59.795,MoralCondition_v2,2022.2.5,30.000398928016324,
6,0,6,0,1,0,1,0,,,,,,,,,,,,,,,,,,,,,,,,,,,,,,,,,,,,,,,,,,,,,,,,,,,,,,472.7151136994362,472.7151136994362,0.00877780094742775,0.11359300091862679,2.0,2.939512299373746,,,,,,,,,,,,,9647,Moral,2024-06-11_18h00.59.795,MoralCondition_v2,2022.2.5,30.000398928016324,
6,0,6,0,2,0,2,0,,,,,,,,,,,,,,,,,,,,,,,,,,,,,,,,,,,,,,,,,,,,,,,,,,,,,,475.68153729848564,475.68153729848564,0.007785199210047722,0.09769849851727486,2.0,3.9246216006577015,,,,,,,,,,,,,9647,Moral,2024-06-11_18h00.59.795,MoralCondition_v2,2022.2.5,30.000398928016324,
6,0,6,0,3,0,3,0,,,,,,,,,,,,,,,,,,,,,,,,,,,,,,,,,,,,,,,,,,,,,,,,,,,,,,479.648082299158,479.648082299158,0.007019298151135445,0.09931059926748276,7.0,2.7597605995833874,,,,,,,,,,,,,9647,Moral,2024-06-11_18h00.59.795,MoralCondition_v2,2022.2.5,30.000398928016324,
6,0,6,0,4,0,4,0,,,,,,,,,,,,,,,,,,,,,,,,,,,,,,,,,,,,,,,,,,,,,,,,,,,,,,482.4482183996588,482.4482183996588,0.006961800158023834,0.09745370037853718,2.0,5.291726998984814,,,,,,,,,,,,,9647,Moral,2024-06-11_18h00.59.795,MoralCondition_v2,2022.2.5,30.000398928016324,
6,0,6,0,5,0,5,0,,,,,,,,,,,,,,,,,,,,,,,,,,,,,,,,,,,,,,,,,,,,,,,,,,,,,,487.7813975997269,487.7813975997269,0.006592299789190292,0.09932140074670315,1.0,1.4602106995880604,,,,,,,,,,,,,9647,Moral,2024-06-11_18h00.59.795,MoralCondition_v2,2022.2.5,30.000398928016324,
6,0,6,0,6,0,6,0,,,,,,,,,,,,,,,,,,,,,,,,,,,,,,,,,,,,,,,,,,,,,,,,,,,,,,489.2815475985408,489.2815475985408,0.0066774990409612656,0.0990981999784708,1.0,0.993460301309824,,,,,,,,,,,,,9647,Moral,2024-06-11_18h00.59.795,MoralCondition_v2,2022.2.5,30.000398928016324,
6,0,6,0,,,,,,,,,,,,,,,,,,,,,,,,,,,,,,,,,,,,,,,,,,,,,,,,,,,,,,,,,,,,,,,,490.3149518985301,490.3149518985301,0.0014568008482456207,0.09780409932136536,7.0,4.330730000510812,,,,,,,9647,Moral,2024-06-11_18h00.59.795,MoralCondition_v2,2022.2.5,30.000398928016324,
7,0,7,0,0,0,0,0,,,,,,,,,,,,,,,,,,,,,,494.6816913988441,0.00013510137796401978,0.09920870140194893,500.6813543997705,5.9991623014211655,500.8817599993199,500.8817599993199,0.09380810149013996,0.1994223017245531,5.999423701316118,506.9479459989816,506.9479459989816,506.9479459989816,0.054582200944423676,0.1657997015863657,512.6480109989643,512.8480274993926,5.999202601611614,6.099138502031565,518.8480872996151,11.999268202111125,518.9479571990669,518.9479571990669,518.9814053997397,518.9814053997397,3.7901103496551514e-05,0.09914570115506649,down,2.2093848027288914,521.247968999669,5.370005965232849e-05,0.09774909913539886,527.2816243991256,527.2816243991256,0.025758899748325348,0.13112170062959194,6.0,6.806350199505687,,,,,,,,506.9479459989816,506.9479459989816,6.099108099937439,6.099142801016569,12.099132800474763,9647,Moral,2024-06-11_18h00.59.795,MoralCondition_v2,2022.2.5,30.000398928016324,
7,0,7,0,1,0,1,0,,,,,,,,,,,,,,,,,,,,,,,,,,,,,,,,,,,,,,,,,,,,,,,,,,,,,,534.1314217988402,534.1314217988402,0.009193699806928635,0.11337240040302277,1.0,5.772140599787235,,,,,,,,,,,,,9647,Moral,2024-06-11_18h00.59.795,MoralCondition_v2,2022.2.5,30.000398928016324,
7,0,7,0,2,0,2,0,,,,,,,,,,,,,,,,,,,,,,,,,,,,,,,,,,,,,,,,,,,,,,,,,,,,,,539.9313791003078,539.9313791003078,0.006571099162101746,0.09906989894807339,7.0,4.860107600688934,,,,,,,,,,,,,9647,Moral,2024-06-11_18h00.59.795,MoralCondition_v2,2022.2.5,30.000398928016324,
7,0,7,0,3,0,3,0,,,,,,,,,,,,,,,,,,,,,,,,,,,,,,,,,,,,,,,,,,,,,,,,,,,,,,544.8313030991703,544.8313030991703,0.006624201312661171,0.0993387009948492,6.0,3.160478500649333,,,,,,,,,,,,,9647,Moral,2024-06-11_18h00.59.795,MoralCondition_v2,2022.2.5,30.000398928016324,
7,0,7,0,4,0,4,0,,,,,,,,,,,,,,,,,,,,,,,,,,,,,,,,,,,,,,,,,,,,,,,,,,,,,,548.0311290994287,548.0311290994287,0.007678000256419182,0.0975951012223959,7.0,2.724406100809574,,,,,,,,,,,,,9647,Moral,2024-06-11_18h00.59.795,MoralCondition_v2,2022.2.5,30.000398928016324,
7,0,7,0,5,0,5,0,,,,,,,,,,,,,,,,,,,,,,,,,,,,,,,,,,,,,,,,,,,,,,,,,,,,,,550.8146548997611,550.8146548997611,0.010035600513219833,0.11420040018856525,5.0,5.705131998285651,,,,,,,,,,,,,9647,Moral,2024-06-11_18h00.59.795,MoralCondition_v2,2022.2.5,30.000398928016324,
7,0,7,0,6,0,6,0,,,,,,,,,,,,,,,,,,,,,,,,,,,,,,,,,,,,,,,,,,,,,,,,,,,,,,556.5648742001504,556.5648742001504,0.008464299142360687,0.11439799889922142,6.0,2.3400511983782053,,,,,,,,,,,,,9647,Moral,2024-06-11_18h00.59.795,MoralCondition_v2,2022.2.5,30.000398928016324,
7,0,7,0,,,,,,,,,,,,,,,,,,,,,,,,,,,,,,,,,,,,,,,,,,,,,,,,,,,,,,,,,,,,,,,,558.9313161987811,558.9313161987811,0.0013183001428842545,0.09744669869542122,1.0,6.330831900238991,,,,,,,9647,Moral,2024-06-11_18h00.59.795,MoralCondition_v2,2022.2.5,30.000398928016324,
8,0,8,0,0,0,0,0,,,,,,,,,,,,,,,,,,,,,,565.2981193996966,0.00013400055468082428,0.09914520010352135,571.3144846986979,6.015885900706053,571.4812147002667,571.4812147002667,0.07759889960289001,0.18272829987108707,6.0159090999513865,577.5809450987726,577.5809450987726,577.5809450987726,0.07913460023701191,0.1825565006583929,583.2812175992876,583.4811158999801,6.015920300036669,6.115852400660515,589.4811853002757,12.015985701233149,589.5810628999025,589.5810628999025,589.6144316997379,589.6144316997379,0.016021601855754852,0.1158412005752325,up,2.0078167002648115,591.664443699643,8.510053157806396e-05,0.09798560105264187,597.6642645001411,597.6642645001411,0.0058605000376701355,0.0977839007973671,2.0,3.89307670108974,,,,,,,597.6642645001411,577.4811343997717,577.4811343997717,,,,9647,Moral,2024-06-11_18h00.59.795,MoralCondition_v2,2022.2.5,30.000398928016324,
8,0,8,0,1,0,1,0,,,,,,,,,,,,,,,,,,,,,,,,,,,,,,,,,,,,,,,,,,,,,,,,,,,,,,601.614455299452,601.614455299452,0.0077555011957883835,0.11435949988663197,1.0,1.8075647000223398,,,,,,,,,,,,,9647,Moral,2024-06-11_18h00.59.795,MoralCondition_v2,2022.2.5,30.000398928016324,
8,0,8,0,2,0,2,0,,,,,,,,,,,,,,,,,,,,,,,,,,,,,,,,,,,,,,,,,,,,,,,,,,,,,,603.4645148999989,603.4645148999989,0.0076826997101306915,0.11417699977755547,2.0,2.8075780998915434,,,,,,,,,,,,,9647,Moral,2024-06-11_18h00.59.795,MoralCondition_v2,2022.2.5,30.000398928016324,
8,0,8,0,3,0,3,0,,,,,,,,,,,,,,,,,,,,,,,,,,,,,,,,,,,,,,,,,,,,,,,,,,,,,,606.297739898786,606.297739898786,0.00793210044503212,0.09752599895000458,2.0,2.990598199889064,,,,,,,,,,,,,9647,Moral,2024-06-11_18h00.59.795,MoralCondition_v2,2022.2.5,30.000398928016324,
8,0,8,0,4,0,4,0,,,,,,,,,,,,,,,,,,,,,,,,,,,,,,,,,,,,,,,,,,,,,,,,,,,,,,609.3311231993139,609.3311231993139,0.007433898746967316,0.09781819954514503,3.0,3.62480709888041,,,,,,,,,,,,,9647,Moral,2024-06-11_18h00.59.795,MoralCondition_v2,2022.2.5,30.000398928016324,
8,0,8,0,5,0,5,0,,,,,,,,,,,,,,,,,,,,,,,,,,,,,,,,,,,,,,,,,,,,,,,,,,,,,,612.9976196996868,612.9976196996868,0.007214300334453583,0.09925870038568974,2.0,1.8606353998184204,,,,,,,,,,,,,9647,Moral,2024-06-11_18h00.59.795,MoralCondition_v2,2022.2.5,30.000398928016324,
8,0,8,0,6,0,6,0,,,,,,,,,,,,,,,,,,,,,,,,,,,,,,,,,,,,,,,,,,,,,,,,,,,,,,614.8974344991148,614.8974344991148,0.0076974984258413315,0.09771879948675632,7.0,2.424177100881934,,,,,,,,,,,,,9647,Moral,2024-06-11_18h00.59.795,MoralCondition_v2,2022.2.5,30.000398928016324,
8,0,8,0,,,,,,,,,,,,,,,,,,,,,,,,,,,,,,,,,,,,,,,,,,,,,,,,,,,,,,,,,,,,,,,,617.3642624989152,617.3642624989152,0.0018940996378660202,0.0973237007856369,7.0,6.16332140006125,,,,,,,9647,Moral,2024-06-11_18h00.59.795,MoralCondition_v2,2022.2.5,30.000398928016324,
9,0,9,0,0,0,0,0,,,,,,,,,,,,,,,,,,,,,,623.5645632985979,0.00014499947428703308,0.09925469942390919,629.5642946995795,5.999153299257159,629.7310232985765,629.7310232985765,0.05641939863562584,0.16601939871907234,5.999161699786782,635.8308993000537,635.8308993000537,635.8308993000537,0.05442909896373749,0.16605819948017597,641.530855499208,641.7308941986412,5.999199999496341,6.098997900262475,647.7308288998902,11.999116400256753,647.8308552000672,647.8308552000672,647.8641976993531,647.8641976993531,4.360079765319824e-05,0.09913000091910362,down,2.6619767025113106,650.5808386001736,5.379877984523773e-05,0.09791109897196293,656.6143743991852,656.6143743991852,0.025247199460864067,0.13137419894337654,7.0,4.406958298757672,,,,,,,,635.7309153992683,635.7309153992683,6.099213698878884,6.09921919927001,12.099151600152254,9647,Moral,2024-06-11_18h00.59.795,MoralCondition_v2,2022.2.5,30.000398928016324,
9,0,9,0,1,0,1,0,,,,,,,,,,,,,,,,,,,,,,,,,,,,,,,,,,,,,,,,,,,,,,,,,,,,,,661.0643843002617,661.0643843002617,0.007940800860524178,0.11407830007374287,7.0,2.040463499724865,,,,,,,,,,,,,9647,Moral,2024-06-11_18h00.59.795,MoralCondition_v2,2022.2.5,30.000398928016324,
9,0,9,0,2,0,2,0,,,,,,,,,,,,,,,,,,,,,,,,,,,,,,,,,,,,,,,,,,,,,,,,,,,,,,663.1307349987328,663.1307349987328,0.008035499602556229,0.09926060028374195,6.0,2.4922177996486425,,,,,,,,,,,,,9647,Moral,2024-06-11_18h00.59.795,MoralCondition_v2,2022.2.5,30.000398928016324,
9,0,9,0,3,0,3,0,,,,,,,,,,,,,,,,,,,,,,,,,,,,,,,,,,,,,,,,,,,,,,,,,,,,,,665.664481298998,665.664481298998,0.008005600422620773,0.09812759980559349,6.0,2.224704999476671,,,,,,,,,,,,,9647,Moral,2024-06-11_18h00.59.795,MoralCondition_v2,2022.2.5,30.000398928016324,
9,0,9,0,4,0,4,0,,,,,,,,,,,,,,,,,,,,,,,,,,,,,,,,,,,,,,,,,,,,,,,,,,,,,,667.9475126992911,667.9475126992911,0.008738098666071892,0.11424899846315384,1.0,3.2063963003456593,,,,,,,,,,,,,9647,Moral,2024-06-11_18h00.59.795,MoralCondition_v2,2022.2.5,30.000398928016324,
9,0,9,0,5,0,5,0,,,,,,,,,,,,,,,,,,,,,,,,,,,,,,,,,,,,,,,,,,,,,,,,,,,,,,671.1807284001261,671.1807284001261,0.008902700617909431,0.09767130017280579,7.0,2.9566188994795084,,,,,,,,,,,,,9647,Moral,2024-06-11_18h00.59.795,MoralCondition_v2,2022.2.5,30.000398928016324,
9,0,9,0,6,0,6,0,,,,,,,,,,,,,,,,,,,,,,,,,,,,,,,,,,,,,,,,,,,,,,,,,,,,,,674.1807792000473,674.1807792000473,0.006513599306344986,0.0983669999986887,7.0,4.7927269004285336,,,,,,,,,,,,,9647,Moral,2024-06-11_18h00.59.795,MoralCondition_v2,2022.2.5,30.000398928016324,
9,0,9,0,,,,,,,,,,,,,,,,,,,,,,,,,,,,,,,,,,,,,,,,,,,,,,,,,,,,,,,,,,,,,,,,679.01427350007,679.01427350007,0.0007204003632068634,0.09921349957585335,1.0,8.033042900264263,,,,,,,9647,Moral,2024-06-11_18h00.59.795,MoralCondition_v2,2022.2.5,30.000398928016324,
10,0,10,0,0,0,0,0,,,,,,,,,,,,,,,,,,,,,,687.0809856001288,0.0001983996480703354,0.09839729964733124,693.0806942991912,6.031783999875188,693.2640664987266,693.2640664987266,0.07668269984424114,0.18192210048437119,6.0151535999029875,699.3639044985175,699.3639044985175,699.3639044985175,0.07782250083982944,0.1819400005042553,705.0639584995806,705.2639988996089,6.01509110070765,6.114994801580906,711.2639630995691,12.015057099983096,711.3639955986291,711.3639955986291,711.3971739988774,711.3971739988774,0.015247302129864693,0.11500950157642365,up,0.7377384025603533,712.197278900072,4.2401254177093506e-05,0.09793040156364441,718.1970518995076,718.1970518995076,0.005596401169896126,0.09794850088655949,7.0,3.2932115998119116,,,,,,,718.1970518995076,699.2640169002116,699.2640169002116,,,,9647,Moral,2024-06-11_18h00.59.795,MoralCondition_v2,2022.2.5,30.000398928016324,
10,0,10,0,1,0,1,0,,,,,,,,,,,,,,,,,,,,,,,,,,,,,,,,,,,,,,,,,,,,,,,,,,,,,,721.5303962994367,721.5303962994367,0.00721609964966774,0.09707329981029034,2.0,4.124412599951029,,,,,,,,,,,,,9647,Moral,2024-06-11_18h00.59.795,MoralCondition_v2,2022.2.5,30.000398928016324,
10,0,10,0,2,0,2,0,,,,,,,,,,,,,,,,,,,,,,,,,,,,,,,,,,,,,,,,,,,,,,,,,,,,,,725.6971599999815,725.6971599999815,0.007433800026774406,0.09757009893655777,1.0,2.2582251001149416,,,,,,,,,,,,,9647,Moral,2024-06-11_18h00.59.795,MoralCondition_v2,2022.2.5,30.000398928016324,
10,0,10,0,3,0,3,0,,,,,,,,,,,,,,,,,,,,,,,,,,,,,,,,,,,,,,,,,,,,,,,,,,,,,,727.9971666000783,727.9971666000783,0.0069268010556697845,0.09804370068013668,2.0,2.3921818006783724,,,,,,,,,,,,,9647,Moral,2024-06-11_18h00.59.795,MoralCondition_v2,2022.2.5,30.000398928016324,
10,0,10,0,4,0,4,0,,,,,,,,,,,,,,,,,,,,,,,,,,,,,,,,,,,,,,,,,,,,,,,,,,,,,,730.4474991988391,730.4474991988391,0.00863960012793541,0.1144338995218277,2.0,2.706809600815177,,,,,,,,,,,,,9647,Moral,2024-06-11_18h00.59.795,MoralCondition_v2,2022.2.5,30.000398928016324,
10,0,10,0,5,0,5,0,,,,,,,,,,,,,,,,,,,,,,,,,,,,,,,,,,,,,,,,,,,,,,,,,,,,,,733.1803826987743,733.1803826987743,0.00642549991607666,0.09896969981491566,2.0,2.6938403993844986,,,,,,,,,,,,,9647,Moral,2024-06-11_18h00.59.795,MoralCondition_v2,2022.2.5,30.000398928016324,
10,0,10,0,6,0,6,0,,,,,,,,,,,,,,,,,,,,,,,,,,,,,,,,,,,,,,,,,,,,,,,,,,,,,,735.9138104990125,735.9138104990125,0.007460299879312515,0.09896230138838291,1.0,1.9596200995147228,,,,,,,,,,,,,9647,Moral,2024-06-11_18h00.59.795,MoralCondition_v2,2022.2.5,30.000398928016324,
10,0,10,0,,,,,,,,,,,,,,,,,,,,,,,,,,,,,,,,,,,,,,,,,,,,,,,,,,,,,,,,,,,,,,,,737.9138900991529,737.9138900991529,0.0006871987134218216,0.09916079975664616,7.0,8.266182599589229,,,,,,,9647,Moral,2024-06-11_18h00.59.795,MoralCondition_v2,2022.2.5,30.000398928016324,
11,0,11,0,0,0,0,0,,,,,,,,,,,,,,,,,,,,,,746.2141044996679,0.00013930164277553558,0.09947110153734684,752.230485599488,6.015700701624155,752.3971081990749,752.3971081990749,0.06954320147633553,0.18220730125904083,6.015688901767135,758.4806944001466,758.4806944001466,758.4806944001466,0.06490760110318661,0.16598590090870857,764.180406998843,764.3804593998939,5.999101800844073,6.099016401916742,770.3803474996239,12.032346600666642,770.4804020002484,770.4804020002484,770.5470505990088,770.5470505990088,0.032644402235746384,0.13232500106096268,up,1.8999258019030094,772.480387698859,4.510022699832916e-05,0.09757779911160469,778.4802240990102,778.4802240990102,0.007055200636386871,0.09767170064151287,7.0,3.058169299736619,,,,,,,778.4802240990102,758.3802317995578,758.3802317995578,,,,9647,Moral,2024-06-11_18h00.59.795,MoralCondition_v2,2022.2.5,30.000398928016324,
11,0,11,0,1,0,1,0,,,,,,,,,,,,,,,,,,,,,,,,,,,,,,,,,,,,,,,,,,,,,,,,,,,,,,781.5803915001452,781.5803915001452,0.00685339979827404,0.09819420054554939,2.0,2.05906149931252,,,,,,,,,,,,,9647,Moral,2024-06-11_18h00.59.795,MoralCondition_v2,2022.2.5,30.000398928016324,
11,0,11,0,2,0,2,0,,,,,,,,,,,,,,,,,,,,,,,,,,,,,,,,,,,,,,,,,,,,,,,,,,,,,,783.6974224988371,783.6974224988371,0.007915699854493141,0.11415660008788109,2.0,1.4074849002063274,,,,,,,,,,,,,9647,Moral,2024-06-11_18h00.59.795,MoralCondition_v2,2022.2.5,30.000398928016324,
11,0,11,0,3,0,3,0,,,,,,,,,,,,,,,,,,,,,,,,,,,,,,,,,,,,,,,,,,,,,,,,,,,,,,785.1303187999874,785.1303187999874,0.006498400121927261,0.09905730001628399,2.0,1.5602461993694305,,,,,,,,,,,,,9647,Moral,2024-06-11_18h00.59.795,MoralCondition_v2,2022.2.5,30.000398928016324,
11,0,11,0,4,0,4,0,,,,,,,,,,,,,,,,,,,,,,,,,,,,,,,,,,,,,,,,,,,,,,,,,,,,,,786.7305664997548,786.7305664997548,0.007778998464345932,0.09723629988729954,3.0,5.0239930003881454,,,,,,,,,,,,,9647,Moral,2024-06-11_18h00.59.795,MoralCondition_v2,2022.2.5,30.000398928016324,
11,0,11,0,5,0,5,0,,,,,,,,,,,,,,,,,,,,,,,,,,,,,,,,,,,,,,,,,,,,,,,,,,,,,,791.7970467992127,791.7970467992127,0.006791900843381882,0.09910610131919384,2.0,2.3269637003540993,,,,,,,,,,,,,9647,Moral,2024-06-11_18h00.59.795,MoralCondition_v2,2022.2.5,30.000398928016324,
11,0,11,0,6,0,6,0,,,,,,,,,,,,,,,,,,,,,,,,,,,,,,,,,,,,,,,,,,,,,,,,,,,,,,794.2967801000923,794.2967801000923,0.008225200697779655,0.23194709978997707,1.0,1.8746751993894577,,,,,,,,,,,,,9647,Moral,2024-06-11_18h00.59.795,MoralCondition_v2,2022.2.5,30.000398928016324,
11,0,11,0,,,,,,,,,,,,,,,,,,,,,,,,,,,,,,,,,,,,,,,,,,,,,,,,,,,,,,,,,,,,,,,,796.080283999443,796.080283999443,0.00044839829206466675,0.09885129891335964,7.0,3.549887901172042,,,,,,,9647,Moral,2024-06-11_18h00.59.795,MoralCondition_v2,2022.2.5,30.000398928016324,
12,0,12,0,0,0,0,0,,,,,,,,,,,,,,,,,,,,,,799.6636510994285,0.0002820994704961777,0.09842010028660297,805.6802165992558,6.015301499515772,805.8470898997039,805.8470898997039,0.07254059985280037,0.1820133998990059,6.015189100056887,811.9470974989235,811.9470974989235,811.9470974989235,0.07404069975018501,0.18203790113329887,817.6469106990844,817.8468594998121,6.01524450071156,6.11515980027616,823.8468781001866,12.015192000195384,823.9468335993588,823.9468335993588,823.980183199048,823.980183199048,0.015366800129413605,0.11510710045695305,down,1.7624724004417658,825.7968972995877,2.319924533367157e-05,0.09913319908082485,831.8301879987121,831.8301879987121,0.027783600613474846,0.132345799356699,1.0,3.7387543004006147,,,,,,,,811.8468867987394,811.8468867987394,,,,9647,Moral,2024-06-11_18h00.59.795,MoralCondition_v2,2022.2.5,30.000398928016324,
12,0,12,0,1,0,1,0,,,,,,,,,,,,,,,,,,,,,,,,,,,,,,,,,,,,,,,,,,,,,,,,,,,,,,835.596792999655,835.596792999655,0.005967000499367714,0.09886159934103489,7.0,3.360453598201275,,,,,,,,,,,,,9647,Moral,2024-06-11_18h00.59.795,MoralCondition_v2,2022.2.5,30.000398928016324,
12,0,12,0,2,0,2,0,,,,,,,,,,,,,,,,,,,,,,,,,,,,,,,,,,,,,,,,,,,,,,,,,,,,,,838.996702298522,838.996702298522,0.007601600140333176,0.09800450131297112,7.0,4.0912574008107185,,,,,,,,,,,,,9647,Moral,2024-06-11_18h00.59.795,MoralCondition_v2,2022.2.5,30.000398928016324,
12,0,12,0,3,0,3,0,,,,,,,,,,,,,,,,,,,,,,,,,,,,,,,,,,,,,,,,,,,,,,,,,,,,,,843.130123399198,843.130123399198,0.006431300193071365,0.09908590093255043,6.0,3.727005399763584,,,,,,,,,,,,,9647,Moral,2024-06-11_18h00.59.795,MoralCondition_v2,2022.2.5,30.000398928016324,
12,0,12,0,4,0,4,0,,,,,,,,,,,,,,,,,,,,,,,,,,,,,,,,,,,,,,,,,,,,,,,,,,,,,,846.8969021998346,846.8969021998346,0.008252600207924843,0.09751630015671253,5.0,8.557325899600983,,,,,,,,,,,,,9647,Moral,2024-06-11_18h00.59.795,MoralCondition_v2,2022.2.5,30.000398928016324,
12,0,12,0,5,0,5,0,,,,,,,,,,,,,,,,,,,,,,,,,,,,,,,,,,,,,,,,,,,,,,,,,,,,,,855.4967537000775,855.4967537000775,0.0055114999413490295,0.09761889837682247,6.0,3.5944756008684635,,,,,,,,,,,,,9647,Moral,2024-06-11_18h00.59.795,MoralCondition_v2,2022.2.5,30.000398928016324,
12,0,12,0,6,0,6,0,,,,,,,,,,,,,,,,,,,,,,,,,,,,,,,,,,,,,,,,,,,,,,,,,,,,,,859.1300539989024,859.1300539989024,0.007547199726104736,0.09793969988822937,5.0,2.9581640996038914,,,,,,,,,,,,,9647,Moral,2024-06-11_18h00.59.795,MoralCondition_v2,2022.2.5,30.000398928016324,
12,0,12,0,,,,,,,,,,,,,,,,,,,,,,,,,,,,,,,,,,,,,,,,,,,,,,,,,,,,,,,,,,,,,,,,862.1299730986357,862.1299730986357,0.0013521015644073486,0.09789020009338856,1.0,5.0642451997846365,,,,,,,9647,Moral,2024-06-11_18h00.59.795,MoralCondition_v2,2022.2.5,30.000398928016324,
13,0,13,0,0,0,0,0,,,,,,,,,,,,,,,,,,,,,,867.2303589992225,0.0003081001341342926,0.09763950109481812,873.2466450985521,6.014052400365472,873.4132460001856,873.4132460001856,0.07322260178625584,0.18073900043964386,6.014293201267719,879.5134908985347,879.5134908985347,879.5134908985347,0.07241260260343552,0.18066040240228176,885.2132897991687,885.4132634997368,6.0140143018215895,6.1140311025083065,891.4134080000222,12.014211300760508,891.4964979998767,891.4964979998767,891.5297646000981,891.5297646000981,0.01389630138874054,0.0975602027028799,down,2.4446440003812313,894.0132499989122,4.579871892929077e-05,0.09785410016775131,900.0299244001508,900.0299244001508,0.024770399555563927,0.11431839875876904,6.0,3.92421249859035,,,,,,,,879.413286998868,879.413286998868,,,,9647,Moral,2024-06-11_18h00.59.795,MoralCondition_v2,2022.2.5,30.000398928016324,
13,0,13,0,1,0,1,0,,,,,,,,,,,,,,,,,,,,,,,,,,,,,,,,,,,,,,,,,,,,,,,,,,,,,,903.9964432995766,903.9964432995766,0.007875898852944374,0.09813709929585457,6.0,6.0916226003319025,,,,,,,,,,,,,9647,Moral,2024-06-11_18h00.59.795,MoralCondition_v2,2022.2.5,30.000398928016324,
13,0,13,0,2,0,2,0,,,,,,,,,,,,,,,,,,,,,,,,,,,,,,,,,,,,,,,,,,,,,,,,,,,,,,910.1467957999557,910.1467957999557,0.008501200005412102,0.11448829993605614,5.0,5.474061900749803,,,,,,,,,,,,,9647,Moral,2024-06-11_18h00.59.795,MoralCondition_v2,2022.2.5,30.000398928016324,
13,0,13,0,3,0,3,0,,,,,,,,,,,,,,,,,,,,,,,,,,,,,,,,,,,,,,,,,,,,,,,,,,,,,,915.6465974003077,915.6465974003077,0.007181199267506599,0.09799609892070293,7.0,2.525230299681425,,,,,,,,,,,,,9647,Moral,2024-06-11_18h00.59.795,MoralCondition_v2,2022.2.5,30.000398928016324,
13,0,13,0,4,0,4,0,,,,,,,,,,,,,,,,,,,,,,,,,,,,,,,,,,,,,,,,,,,,,,,,,,,,,,918.2131031993777,918.2131031993777,0.007720699533820152,0.09732119925320148,1.0,2.2240861002355814,,,,,,,,,,,,,9647,Moral,2024-06-11_18h00.59.795,MoralCondition_v2,2022.2.5,30.000398928016324,
13,0,13,0,5,0,5,0,,,,,,,,,,,,,,,,,,,,,,,,,,,,,,,,,,,,,,,,,,,,,,,,,,,,,,920.496815700084,920.496815700084,0.007969500496983528,0.11449840106070042,6.0,3.6741305999457836,,,,,,,,,,,,,9647,Moral,2024-06-11_18h00.59.795,MoralCondition_v2,2022.2.5,30.000398928016324,
13,0,13,0,6,0,6,0,,,,,,,,,,,,,,,,,,,,,,,,,,,,,,,,,,,,,,,,,,,,,,,,,,,,,,924.1965251993388,924.1965251993388,0.007345698773860931,0.09786850027740002,5.0,5.291610600426793,,,,,,,,,,,,,9647,Moral,2024-06-11_18h00.59.795,MoralCondition_v2,2022.2.5,30.000398928016324,
13,0,13,0,,,,,,,,,,,,,,,,,,,,,,,,,,,,,,,,,,,,,,,,,,,,,,,,,,,,,,,,,,,,,,,,929.529930299148,929.529930299148,0.001315699890255928,0.09806039929389954,1.0,5.098229099065065,,,,,,,9647,Moral,2024-06-11_18h00.59.795,MoralCondition_v2,2022.2.5,30.000398928016324,
14,0,14,0,0,0,0,0,,,,,,,,,,,,,,,,,,,,,,934.6634449996054,0.00015570037066936493,0.09966189973056316,940.6630651000887,5.999198999255896,940.8296528998762,940.8296528998762,0.059718599542975426,0.16610229946672916,5.999169500544667,946.9295544996858,946.9295544996858,946.9295544996858,0.057101400569081306,0.1658434011042118,952.6298002991825,952.8298332989216,5.999314300715923,6.099171901121736,958.8296595998108,11.999172300100327,958.9296805001795,958.9296805001795,958.9631262999028,958.9631262999028,-2.319924533367157e-05,0.0989869013428688,up,0.7877382021397352,959.8130098991096,4.789978265762329e-05,0.09753580018877983,965.846350999549,965.846350999549,0.025036800652742386,0.130995100364089,2.0,4.906862000003457,,,,,,,,946.8297051992267,946.8297051992267,6.099189899861813,6.099220899865031,12.099167801439762,9647,Moral,2024-06-11_18h00.59.795,MoralCondition_v2,2022.2.5,30.000398928016324,
14,0,14,0,1,0,1,0,,,,,,,,,,,,,,,,,,,,,,,,,,,,,,,,,,,,,,,,,,,,,,,,,,,,,,970.7798186987638,970.7798186987638,0.0066443998366594315,0.09902250021696091,7.0,1.9602527003735304,,,,,,,,,,,,,9647,Moral,2024-06-11_18h00.59.795,MoralCondition_v2,2022.2.5,30.000398928016324,
14,0,14,0,2,0,2,0,,,,,,,,,,,,,,,,,,,,,,,,,,,,,,,,,,,,,,,,,,,,,,,,,,,,,,972.7797523997724,972.7797523997724,0.006706399843096733,0.09937619976699352,2.0,2.226903600618243,,,,,,,,,,,,,9647,Moral,2024-06-11_18h00.59.795,MoralCondition_v2,2022.2.5,30.000398928016324,
14,0,14,0,3,0,3,0,,,,,,,,,,,,,,,,,,,,,,,,,,,,,,,,,,,,,,,,,,,,,,,,,,,,,,975.063070198521,975.063070198521,0.008065801113843918,0.11387220025062561,2.0,3.2066019009798765,,,,,,,,,,,,,9647,Moral,2024-06-11_18h00.59.795,MoralCondition_v2,2022.2.5,30.000398928016324,
14,0,14,0,4,0,4,0,,,,,,,,,,,,,,,,,,,,,,,,,,,,,,,,,,,,,,,,,,,,,,,,,,,,,,978.2963590994477,978.2963590994477,0.007219100371003151,0.09805979952216148,1.0,5.258549800142646,,,,,,,,,,,,,9647,Moral,2024-06-11_18h00.59.795,MoralCondition_v2,2022.2.5,30.000398928016324,
14,0,14,0,5,0,5,0,,,,,,,,,,,,,,,,,,,,,,,,,,,,,,,,,,,,,,,,,,,,,,,,,,,,,,983.5962990988046,983.5962990988046,0.00761830061674118,0.09798570163547993,2.0,1.724999899044633,,,,,,,,,,,,,9647,Moral,2024-06-11_18h00.59.795,MoralCondition_v2,2022.2.5,30.000398928016324,
14,0,14,0,6,0,6,0,,,,,,,,,,,,,,,,,,,,,,,,,,,,,,,,,,,,,,,,,,,,,,,,,,,,,,985.3627313990146,985.3627313990146,0.007589299231767654,0.09938229992985725,1.0,1.7260677013546228,,,,,,,,,,,,,9647,Moral,2024-06-11_18h00.59.795,MoralCondition_v2,2022.2.5,30.000398928016324,
14,0,14,0,,,,,,,,,,,,,,,,,,,,,,,,,,,,,,,,,,,,,,,,,,,,,,,,,,,,,,,,,,,,,,,,987.1297148000449,987.1297148000449,0.0006815008819103241,0.09917039982974529,7.0,4.132768599316478,,,,,,,9647,Moral,2024-06-11_18h00.59.795,MoralCondition_v2,2022.2.5,30.000398928016324,
15,0,15,0,0,0,0,0,,,,,,,,,,,,,,,,,,,,,,991.2965866997838,0.00013360008597373962,0.09926669858396053,997.2961435001343,5.9990954995155334,997.4628796987236,997.4628796987236,0.051887400448322296,0.16589259915053844,5.999035399407148,1003.5628628991544,1003.5628628991544,1003.5628628991544,0.05054580047726631,0.16546370089054108,1009.2628156002611,1009.4961454998702,6.032373800873756,6.132437400519848,1015.4961826987565,11.999218000099063,1015.5627905000001,1015.5627905000001,1015.5961102992296,1015.5961102992296,-0.00010059960186481476,0.09895670041441917,up,1.2508857026696205,1016.8961852993816,4.910118877887726e-05,0.09804479964077473,1022.9131246991456,1022.9131246991456,0.009472699835896492,0.11481340043246746,2.0,3.47291730158031,,,,,,,1022.9131246991456,1003.4628211986274,1003.4628211986274,6.098894199356437,6.0990541987121105,12.099024999886751,9647,Moral,2024-06-11_18h00.59.795,MoralCondition_v2,2022.2.5,30.000398928016324,
15,0,15,0,1,0,1,0,,,,,,,,,,,,,,,,,,,,,,,,,,,,,,,,,,,,,,,,,,,,,,,,,,,,,,1026.41314329952,1026.41314329952,0.00839649885892868,0.0972278993576765,7.0,2.323291100561619,,,,,,,,,,,,,9647,Moral,2024-06-11_18h00.59.795,MoralCondition_v2,2022.2.5,30.000398928016324,
15,0,15,0,2,0,2,0,,,,,,,,,,,,,,,,,,,,,,,,,,,,,,,,,,,,,,,,,,,,,,,,,,,,,,1028.7795107997954,1028.7795107997954,0.010070500895380974,0.09710590168833733,2.0,3.254712499678135,,,,,,,,,,,,,9647,Moral,2024-06-11_18h00.59.795,MoralCondition_v2,2022.2.5,30.000398928016324,
15,0,15,0,3,0,3,0,,,,,,,,,,,,,,,,,,,,,,,,,,,,,,,,,,,,,,,,,,,,,,,,,,,,,,1032.079168399796,1032.079168399796,0.007594101130962372,0.09759810008108616,1.0,2.1913426015526056,,,,,,,,,,,,,9647,Moral,2024-06-11_18h00.59.795,MoralCondition_v2,2022.2.5,30.000398928016324,
15,0,15,0,4,0,4,0,,,,,,,,,,,,,,,,,,,,,,,,,,,,,,,,,,,,,,,,,,,,,,,,,,,,,,1034.3126734998077,1034.3126734998077,0.007227400317788124,0.09787949919700623,2.0,2.6581484992057085,,,,,,,,,,,,,9647,Moral,2024-06-11_18h00.59.795,MoralCondition_v2,2022.2.5,30.000398928016324,
15,0,15,0,5,0,5,0,,,,,,,,,,,,,,,,,,,,,,,,,,,,,,,,,,,,,,,,,,,,,,,,,,,,,,1037.0295447986573,1037.0295447986573,0.00900229997932911,0.11465440131723881,2.0,3.0065384991467,,,,,,,,,,,,,9647,Moral,2024-06-11_18h00.59.795,MoralCondition_v2,2022.2.5,30.000398928016324,
15,0,15,0,6,0,6,0,,,,,,,,,,,,,,,,,,,,,,,,,,,,,,,,,,,,,,,,,,,,,,,,,,,,,,1040.0626446995884,1040.0626446995884,0.0070032998919487,0.09827109985053539,3.0,2.6922842990607023,,,,,,,,,,,,,9647,Moral,2024-06-11_18h00.59.795,MoralCondition_v2,2022.2.5,30.000398928016324,
15,0,15,0,,,,,,,,,,,,,,,,,,,,,,,,,,,,,,,,,,,,,,,,,,,,,,,,,,,,,,,,,,,,,,,,1042.7963159997016,1042.7963159997016,0.0015443991869688034,0.09768800064921379,7.0,6.197424899786711,,,,,,,9647,Moral,2024-06-11_18h00.59.795,MoralCondition_v2,2022.2.5,30.000398928016324,
16,0,16,0,0,0,0,0,,,,,,,,,,,,,,,,,,,,,,1049.0293108001351,0.000591600313782692,0.09702990017831326,1055.0458864998072,6.01363200135529,1055.2290874999017,1055.2290874999017,0.0933684017509222,0.19718090072274208,6.030375201255083,1061.3291023001075,1061.3291023001075,1061.3291023001075,0.09229190088808537,0.19693870097398758,1067.0294504985213,1067.229226399213,6.0303101018071175,6.1305060014128685,1073.229167399928,12.03028380125761,1073.3291797991842,1073.3291797991842,1073.362518100068,1073.362518100068,0.030449701473116875,0.13024000264704227,up,1.460384901612997,1074.8791768997908,4.769861698150635e-05,0.09789459966123104,1080.9127925988287,1080.9127925988287,0.025445500388741493,0.1313227992504835,7.0,2.073549799621105,,,,,,,,1061.229208799079,1061.229208799079,,,,9647,Moral,2024-06-11_18h00.59.795,MoralCondition_v2,2022.2.5,30.000398928016324,
16,0,16,0,1,0,1,0,,,,,,,,,,,,,,,,,,,,,,,,,,,,,,,,,,,,,,,,,,,,,,,,,,,,,,1083.012388098985,1083.012388098985,0.006559999659657478,0.09841639921069145,3.0,4.79275800101459,,,,,,,,,,,,,9647,Moral,2024-06-11_18h00.59.795,MoralCondition_v2,2022.2.5,30.000398928016324,
16,0,16,0,2,0,2,0,,,,,,,,,,,,,,,,,,,,,,,,,,,,,,,,,,,,,,,,,,,,,,,,,,,,,,1087.8459923993796,1087.8459923993796,0.00714229978621006,0.09782359935343266,2.0,2.058373101055622,,,,,,,,,,,,,9647,Moral,2024-06-11_18h00.59.795,MoralCondition_v2,2022.2.5,30.000398928016324,
16,0,16,0,3,0,3,0,,,,,,,,,,,,,,,,,,,,,,,,,,,,,,,,,,,,,,,,,,,,,,,,,,,,,,1089.9458561986685,1089.9458561986685,0.007885199040174484,0.097665099427104,3.0,2.057473300024867,,,,,,,,,,,,,9647,Moral,2024-06-11_18h00.59.795,MoralCondition_v2,2022.2.5,30.000398928016324,
16,0,16,0,4,0,4,0,,,,,,,,,,,,,,,,,,,,,,,,,,,,,,,,,,,,,,,,,,,,,,,,,,,,,,1092.045657299459,1092.045657299459,0.007181499153375626,0.09788179956376553,2.0,2.1248359996825457,,,,,,,,,,,,,9647,Moral,2024-06-11_18h00.59.795,MoralCondition_v2,2022.2.5,30.000398928016324,
16,0,16,0,5,0,5,0,,,,,,,,,,,,,,,,,,,,,,,,,,,,,,,,,,,,,,,,,,,,,,,,,,,,,,1094.22927749902,1094.22927749902,0.008213900029659271,0.11441100016236305,2.0,2.173762099817395,,,,,,,,,,,,,9647,Moral,2024-06-11_18h00.59.795,MoralCondition_v2,2022.2.5,30.000398928016324,
16,0,16,0,6,0,6,0,,,,,,,,,,,,,,,,,,,,,,,,,,,,,,,,,,,,,,,,,,,,,,,,,,,,,,1096.4291733000427,1096.4291733000427,0.006848400458693504,0.09830870106816292,1.0,1.4590884000062943,,,,,,,,,,,,,9647,Moral,2024-06-11_18h00.59.795,MoralCondition_v2,2022.2.5,30.000398928016324,
16,0,16,0,,,,,,,,,,,,,,,,,,,,,,,,,,,,,,,,,,,,,,,,,,,,,,,,,,,,,,,,,,,,,,,,1097.9291941002011,1097.9291941002011,0.0013443995267152786,0.09795119985938072,7.0,2.364504599943757,,,,,,,9647,Moral,2024-06-11_18h00.59.795,MoralCondition_v2,2022.2.5,30.000398928016324,
17,0,17,0,0,0,0,0,,,,,,,,,,,,,,,,,,,,,,1100.329454800114,0.0002663005143404007,0.09783930145204067,1106.329188099131,6.031298300251365,1106.5288976002485,1106.5288976002485,0.08669640123844147,0.19784120097756386,6.031047400087118,1112.6293920986354,1112.6293920986354,1112.6293920986354,0.08535810187458992,0.19801230169832706,1118.3291458990425,1118.5291218999773,6.03121430054307,6.131139801815152,1124.5289690997452,12.031073400750756,1124.612237200141,1124.612237200141,1124.6456495989114,1124.6456495989114,0.014471601694822311,0.11435610242187977,up,0.681027002632618,1125.3790070991963,4.359893500804901e-05,0.09773479960858822,1131.3955900985748,1131.3955900985748,0.011118698865175247,0.11447810009121895,3.0,4.871051101014018,,,,,,,1131.3955900985748,1112.5290779992938,1112.5290779992938,,,,9647,Moral,2024-06-11_18h00.59.795,MoralCondition_v2,2022.2.5,30.000398928016324,
17,0,17,0,1,0,1,0,,,,,,,,,,,,,,,,,,,,,,,,,,,,,,,,,,,,,,,,,,,,,,,,,,,,,,1136.29573540017,1136.29573540017,0.007064599543809891,0.09764249995350838,2.0,2.1582590993493795,,,,,,,,,,,,,9647,Moral,2024-06-11_18h00.59.795,MoralCondition_v2,2022.2.5,30.000398928016324,
17,0,17,0,2,0,2,0,,,,,,,,,,,,,,,,,,,,,,,,,,,,,,,,,,,,,,,,,,,,,,,,,,,,,,1138.4955936986953,1138.4955936986953,0.006811199709773064,0.09920349903404713,7.0,2.226816801354289,,,,,,,,,,,,,9647,Moral,2024-06-11_18h00.59.795,MoralCondition_v2,2022.2.5,30.000398928016324,
17,0,17,0,3,0,3,0,,,,,,,,,,,,,,,,,,,,,,,,,,,,,,,,,,,,,,,,,,,,,,,,,,,,,,1140.7621786985546,1140.7621786985546,0.005977001041173935,0.09905000030994415,1.0,2.227532498538494,,,,,,,,,,,,,9647,Moral,2024-06-11_18h00.59.795,MoralCondition_v2,2022.2.5,30.000398928016324,
17,0,17,0,4,0,4,0,,,,,,,,,,,,,,,,,,,,,,,,,,,,,,,,,,,,,,,,,,,,,,,,,,,,,,1143.0458546001464,1143.0458546001464,0.008010700345039368,0.11471740156412125,1.0,2.7740468997508287,,,,,,,,,,,,,9647,Moral,2024-06-11_18h00.59.795,MoralCondition_v2,2022.2.5,30.000398928016324,
17,0,17,0,5,0,5,0,,,,,,,,,,,,,,,,,,,,,,,,,,,,,,,,,,,,,,,,,,,,,,,,,,,,,,1145.8625069987029,1145.8625069987029,0.0074300989508628845,0.11410100013017654,2.0,2.474041499197483,,,,,,,,,,,,,9647,Moral,2024-06-11_18h00.59.795,MoralCondition_v2,2022.2.5,30.000398928016324,
17,0,17,0,6,0,6,0,,,,,,,,,,,,,,,,,,,,,,,,,,,,,,,,,,,,,,,,,,,,,,,,,,,,,,1148.3792655989528,1148.3792655989528,0.008672500029206276,0.11425499990582466,2.0,1.7400116007775068,,,,,,,,,,,,,9647,Moral,2024-06-11_18h00.59.795,MoralCondition_v2,2022.2.5,30.000398928016324,
17,0,17,0,,,,,,,,,,,,,,,,,,,,,,,,,,,,,,,,,,,,,,,,,,,,,,,,,,,,,,,,,,,,,,,,1150.145844699815,1150.145844699815,0.001440100371837616,0.09749360010027885,7.0,5.297664800658822,,,,,,,9647,Moral,2024-06-11_18h00.59.795,MoralCondition_v2,2022.2.5,30.000398928016324,
18,0,18,0,0,0,0,0,,,,,,,,,,,,,,,,,,,,,,1155.4790675994009,0.0003258008509874344,0.09740700013935566,1161.4788450989872,6.030694400891662,1161.6789887994528,1161.6789887994528,0.08615639992058277,0.19738890044391155,6.030612701550126,1167.7454010993242,1167.7454010993242,1167.7454010993242,0.06363210082054138,0.1641439013183117,1173.4454453997314,1173.678887899965,6.030753200873733,6.130584701895714,1179.6787573993206,12.030610401183367,1179.7453559990972,1179.7453559990972,1179.7954309992492,1179.7954309992492,0.013899700716137886,0.1139977015554905,up,0.6828742008656263,1180.5287563987076,4.3898820877075195e-05,0.0979520995169878,1186.5456296987832,1186.5456296987832,0.009396098554134369,0.11467589996755123,2.0,3.639536401256919,,,,,,,1186.5456296987832,1167.6620271988213,1167.6620271988213,,,,9647,Moral,2024-06-11_18h00.59.795,MoralCondition_v2,2022.2.5,30.000398928016324,
18,0,18,0,1,0,1,0,,,,,,,,,,,,,,,,,,,,,,,,,,,,,,,,,,,,,,,,,,,,,,,,,,,,,,1190.2120264992118,1190.2120264992118,0.006387099623680115,0.09918909892439842,2.0,4.093765199184418,,,,,,,,,,,,,9647,Moral,2024-06-11_18h00.59.795,MoralCondition_v2,2022.2.5,30.000398928016324,
18,0,18,0,2,0,2,0,,,,,,,,,,,,,,,,,,,,,,,,,,,,,,,,,,,,,,,,,,,,,,,,,,,,,,1194.3623347003013,1194.3623347003013,0.008297700434923172,0.11458029970526695,2.0,2.7071991991251707,,,,,,,,,,,,,9647,Moral,2024-06-11_18h00.59.795,MoralCondition_v2,2022.2.5,30.000398928016324,
18,0,18,0,3,0,3,0,,,,,,,,,,,,,,,,,,,,,,,,,,,,,,,,,,,,,,,,,,,,,,,,,,,,,,1197.0952191986144,1197.0952191986144,0.006641101092100143,0.09909040108323097,1.0,3.4269347991794348,,,,,,,,,,,,,9647,Moral,2024-06-11_18h00.59.795,MoralCondition_v2,2022.2.5,30.000398928016324,
18,0,18,0,4,0,4,0,,,,,,,,,,,,,,,,,,,,,,,,,,,,,,,,,,,,,,,,,,,,,,,,,,,,,,1200.5789510998875,1200.5789510998875,0.007733099162578583,0.11423689872026443,1.0,0.8742113001644611,,,,,,,,,,,,,9647,Moral,2024-06-11_18h00.59.795,MoralCondition_v2,2022.2.5,30.000398928016324,
18,0,18,0,5,0,5,0,,,,,,,,,,,,,,,,,,,,,,,,,,,,,,,,,,,,,,,,,,,,,,,,,,,,,,1201.4786919988692,1201.4786919988692,0.006972799077630043,0.09908099845051765,7.0,1.8932968005537987,,,,,,,,,,,,,9647,Moral,2024-06-11_18h00.59.795,MoralCondition_v2,2022.2.5,30.000398928016324,
18,0,18,0,6,0,6,0,,,,,,,,,,,,,,,,,,,,,,,,,,,,,,,,,,,,,,,,,,,,,,,,,,,,,,1203.4120818991214,1203.4120818991214,0.007451999932527542,0.09763339906930923,2.0,3.5246571004390717,,,,,,,,,,,,,9647,Moral,2024-06-11_18h00.59.795,MoralCondition_v2,2022.2.5,30.000398928016324,
18,0,18,0,,,,,,,,,,,,,,,,,,,,,,,,,,,,,,,,,,,,,,,,,,,,,,,,,,,,,,,,,,,,,,,,1206.9786082990468,1206.9786082990468,0.0015261005610227585,0.09815469942986965,7.0,5.59815870039165,,,,,,,9647,Moral,2024-06-11_18h00.59.795,MoralCondition_v2,2022.2.5,30.000398928016324,
19,0,19,0,0,0,0,0,,,,,,,,,,,,,,,,,,,,,,1212.6119885984808,0.00013590045273303986,0.09943570010364056,1218.6119381003082,5.999281400814652,1218.7787036001682,1218.7787036001682,0.05770130082964897,0.16601950116455555,5.999109601601958,1224.878604799509,1224.878604799509,1224.878604799509,0.05777300149202347,0.16601860150694847,1230.5785390995443,1230.7785422001034,5.999207301065326,6.099119801074266,1236.7785046994686,11.999170800670981,1236.8784942999482,1236.8784942999482,1236.9118459001184,1236.9118459001184,-5.3297728300094604e-05,0.0990660022944212,up,0.927309200167656,1237.8785180989653,5.579926073551178e-05,0.09817159920930862,1243.895298499614,1243.895298499614,0.008788099512457848,0.11493420042097569,2.0,5.740219801664352,,,,,,,1243.895298499614,1224.7785374000669,1224.7785374000669,6.099122300744057,6.09915710054338,12.099095100536942,9647,Moral,2024-06-11_18h00.59.795,MoralCondition_v2,2022.2.5,30.000398928016324,
19,0,19,0,1,0,1,0,,,,,,,,,,,,,,,,,,,,,,,,,,,,,,,,,,,,,,,,,,,,,,,,,,,,,,1249.678709698841,1249.678709698841,0.008281098678708076,0.1145922988653183,2.0,2.607269799336791,,,,,,,,,,,,,9647,Moral,2024-06-11_18h00.59.795,MoralCondition_v2,2022.2.5,30.000398928016324,
19,0,19,0,2,0,2,0,,,,,,,,,,,,,,,,,,,,,,,,,,,,,,,,,,,,,,,,,,,,,,,,,,,,,,1252.328722499311,1252.328722499311,0.008811000734567642,0.11454910039901733,3.0,2.6401690002530813,,,,,,,,,,,,,9647,Moral,2024-06-11_18h00.59.795,MoralCondition_v2,2022.2.5,30.000398928016324,
19,0,19,0,3,0,3,0,,,,,,,,,,,,,,,,,,,,,,,,,,,,,,,,,,,,,,,,,,,,,,,,,,,,,,1254.9952655993402,1254.9952655993402,0.007338499650359154,0.09814709983766079,7.0,2.291627399623394,,,,,,,,,,,,,9647,Moral,2024-06-11_18h00.59.795,MoralCondition_v2,2022.2.5,30.000398928016324,
19,0,19,0,4,0,4,0,,,,,,,,,,,,,,,,,,,,,,,,,,,,,,,,,,,,,,,,,,,,,,,,,,,,,,1257.3285038992763,1257.3285038992763,0.007198899984359741,0.09764030016958714,3.0,4.058430200442672,,,,,,,,,,,,,9647,Moral,2024-06-11_18h00.59.795,MoralCondition_v2,2022.2.5,30.000398928016324,
19,0,19,0,5,0,5,0,,,,,,,,,,,,,,,,,,,,,,,,,,,,,,,,,,,,,,,,,,,,,,,,,,,,,,1261.4284840989858,1261.4284840989858,0.007327999919652939,0.09820069931447506,1.0,2.791907699778676,,,,,,,,,,,,,9647,Moral,2024-06-11_18h00.59.795,MoralCondition_v2,2022.2.5,30.000398928016324,
19,0,19,0,6,0,6,0,,,,,,,,,,,,,,,,,,,,,,,,,,,,,,,,,,,,,,,,,,,,,,,,,,,,,,1264.2617380991578,1264.2617380991578,0.007578101009130478,0.09774560108780861,1.0,0.6915993001312017,,,,,,,,,,,,,9647,Moral,2024-06-11_18h00.59.795,MoralCondition_v2,2022.2.5,30.000398928016324,
19,0,19,0,,,,,,,,,,,,,,,,,,,,,,,,,,,,,,,,,,,,,,,,,,,,,,,,,,,,,,,,,,,,,,,,1264.9952782001346,1264.9952782001346,0.000501999631524086,0.09908309951424599,7.0,2.8330272994935513,,,,,,,9647,Moral,2024-06-11_18h00.59.795,MoralCondition_v2,2022.2.5,30.000398928016324,
