loop.thisRepN,loop.thisTrialN,loop.thisN,loop.thisIndex,evaluate_all_emotions.thisRepN,evaluate_all_emotions.thisTrialN,evaluate_all_emotions.thisN,evaluate_all_emotions.thisIndex,sync_beep_1.started,p_port.started,p_port.stopped,sync_beep_2.started,sync_beep_2.stopped,sync_beep_3.started,sync_beep_3.stopped,sync_beep_4.started,sync_beep_4.stopped,baseline.started,p_port_2.started,p_port_2.stopped,baseline.stopped,p_port_3.started,Game_Start_Text.started,p_port_4.started,p_port_4.stopped,key_resp.started,key_resp.keys,key_resp.rt,fixation_cross.started,p_port_5.started,p_port_5.stopped,fixation_cross.stopped,p_port_6.started,player_image_intro.started,player_name_intro.started,p_port_7.started,p_port_7.stopped,p_port_8.started,player_image_offer.started,player_name_offer.started,proposed_split.started,p_port_9.started,p_port_9.stopped,proposed_split.stopped,accept_reject.started,p_port_15.started,p_port_15.stopped,accept_reject.stopped,p_port_10.started,arrow_instructions.started,offer_choice.started,p_port_11.started,p_port_11.stopped,offer_choice.keys,offer_choice.rt,Instructions_Affinity_Score.started,p_port_12.started,p_port_12.stopped,Instructions_Affinity_Score.stopped,Emotion_Image.started,AffinityScore.started,p_port_13.started,p_port_13.stopped,AffinityScore.response,AffinityScore.rt,Instruction.started,Moral_Disgust_Score.started,p_port_14.started,p_port_14.stopped,Moral_Disgust_Score.response,Moral_Disgust_Score.rt,player_image_offer.stopped,player_name_offer.stopped,player_image_intro.stopped,player_name_intro.stopped,p_port_6.stopped,p_port_10.stopped,p_port_8.stopped,participant,session,date,expName,psychopyVersion,frameRate,
,,,,,,,,19.825152000645176,0.000804500188678503,0.1156141001265496,20.422546599968335,20.73929900000803,21.023054999974555,21.339251399971545,21.622699500038287,21.939221299951896,21.939221299951896,0.0017999999690800905,0.09878399991430342,36.93926789984107,15.032206099946052,37.07248650002293,0.03228899999521673,0.13195870001800358,37.52258719992824,space,0.8024176000617445,,,,,,,,,,,,,,,,,,,,,,,,,,,,,,,,,,,,,,,,,,,,,,,,,,,9966,Moral,2025-03-09_14h34.03.255,MoralCondition_v2,2022.2.5,29.940998272662426,
0,0,0,0,0,0,0,0,,,,,,,,,,,,,,,,,,,,,38.38926690001972,0.0016496998723596334,0.09835650003515184,44.405884800013155,6.0150122998747975,44.65602499991655,44.65602499991655,0.12302949978038669,0.2649950997438282,6.0316874999552965,50.70578749990091,50.70578749990091,50.70578749990091,0.09303839970380068,0.2149983998388052,56.40605009999126,56.57258419995196,6.01504289964214,6.115018599666655,62.57251610001549,12.014971299795434,62.70584009983577,62.70584009983577,0.015182399656623602,0.11492939968593419,up,0.5631673999596387,63.30588510003872,5.3799943998456e-05,0.09766660002060235,69.32265480002388,69.32265480002388,69.32265480002388,0.010964300017803907,0.11439840006642044,1.0,4.02130310004577,,,,,,,,,,,,,,9966,Moral,2025-03-09_14h34.03.255,MoralCondition_v2,2022.2.5,29.940998272662426,
0,0,0,0,1,0,1,0,,,,,,,,,,,,,,,,,,,,,,,,,,,,,,,,,,,,,,,,,,,,,,,,,,,,73.38952119997703,73.38952119997703,0.010507600149139762,0.11511740018613636,5.0,6.50585599988699,,,,,,,,,,,,,,9966,Moral,2025-03-09_14h34.03.255,MoralCondition_v2,2022.2.5,29.940998272662426,
0,0,0,0,2,0,2,0,,,,,,,,,,,,,,,,,,,,,,,,,,,,,,,,,,,,,,,,,,,,,,,,,,,,79.9393943999894,79.9393943999894,0.009804199915379286,0.11450790008530021,7.0,6.972369099967182,,,,,,,,,,,,,,9966,Moral,2025-03-09_14h34.03.255,MoralCondition_v2,2022.2.5,29.940998272662426,
0,0,0,0,3,0,3,0,,,,,,,,,,,,,,,,,,,,,,,,,,,,,,,,,,,,,,,,,,,,,,,,,,,,86.95595639990643,86.95595639990643,0.011708599980920553,0.11491329991258681,1.0,2.037634199950844,,,,,,,,,,,,,,9966,Moral,2025-03-09_14h34.03.255,MoralCondition_v2,2022.2.5,29.940998272662426,
0,0,0,0,4,0,4,0,,,,,,,,,,,,,,,,,,,,,,,,,,,,,,,,,,,,,,,,,,,,,,,,,,,,89.022583700018,89.022583700018,0.009058400057256222,0.09931370010599494,1.0,1.8247423998545855,,,,,,,,,,,,,,9966,Moral,2025-03-09_14h34.03.255,MoralCondition_v2,2022.2.5,29.940998272662426,
0,0,0,0,5,0,5,0,,,,,,,,,,,,,,,,,,,,,,,,,,,,,,,,,,,,,,,,,,,,,,,,,,,,90.90609559998848,90.90609559998848,0.011926200008019805,0.11424370016902685,3.0,5.403355000074953,,,,,,,,,,,,,,9966,Moral,2025-03-09_14h34.03.255,MoralCondition_v2,2022.2.5,29.940998272662426,
0,0,0,0,6,0,6,0,,,,,,,,,,,,,,,,,,,,,,,,,,,,,,,,,,,,,,,,,,,,,,,,,,,,96.35613149986602,96.35613149986602,0.009389200014993548,0.11586749996058643,2.0,1.4406705000437796,,,,,,,,,,,,,,9966,Moral,2025-03-09_14h34.03.255,MoralCondition_v2,2022.2.5,29.940998272662426,
0,0,0,0,,,,,,,,,,,,,,,,,,,,,,,,,,,,,,,,,,,,,,,,,,,,,,,,,,,,,,,,,,,,,,97.8224875999149,97.8224875999149,0.001356600085273385,0.09779130015522242,7.0,8.097709299996495,,,,,,,,9966,Moral,2025-03-09_14h34.03.255,MoralCondition_v2,2022.2.5,29.940998272662426,
1,0,1,0,0,0,0,0,,,,,,,,,,,,,,,,,,,,,105.95599759998731,0.0002631999086588621,0.09808699996210635,111.95574589981697,6.031304300064221,112.18945239996538,112.18945239996538,0.11529349978081882,0.2314575999043882,6.031292699975893,118.25583549984731,118.25583549984731,118.25583549984731,0.09093679976649582,0.19813389983028173,123.95577499992214,124.15574039984494,6.031286899698898,6.131293599726632,130.15571630001068,12.03125309990719,130.2890496000182,130.2890496000182,0.03135559963993728,0.13125159963965416,up,0.5636426000855863,130.88904749997891,3.709993325173855e-05,0.09758549998514354,136.8888886999339,136.8888886999339,136.8888886999339,0.00937809981405735,0.09766860003583133,1.0,2.022726000053808,,,,,,,130.25565349985845,130.25565349985845,,,,,,9966,Moral,2025-03-09_14h34.03.255,MoralCondition_v2,2022.2.5,29.940998272662426,
1,0,1,0,1,0,1,0,,,,,,,,,,,,,,,,,,,,,,,,,,,,,,,,,,,,,,,,,,,,,,,,,,,,138.9557460998185,138.9557460998185,0.006738899974152446,0.09901680005714297,1.0,0.9935202000197023,,,,,,,,,,,,,,9966,Moral,2025-03-09_14h34.03.255,MoralCondition_v2,2022.2.5,29.940998272662426,
1,0,1,0,2,0,2,0,,,,,,,,,,,,,,,,,,,,,,,,,,,,,,,,,,,,,,,,,,,,,,,,,,,,140.00594389997423,140.00594389997423,0.008438799995929003,0.11506280000321567,7.0,5.907772999955341,,,,,,,,,,,,,,9966,Moral,2025-03-09_14h34.03.255,MoralCondition_v2,2022.2.5,29.940998272662426,
1,0,1,0,3,0,3,0,,,,,,,,,,,,,,,,,,,,,,,,,,,,,,,,,,,,,,,,,,,,,,,,,,,,145.93909460003488,145.93909460003488,0.007732300087809563,0.09820039989426732,5.0,1.924731200095266,,,,,,,,,,,,,,9966,Moral,2025-03-09_14h34.03.255,MoralCondition_v2,2022.2.5,29.940998272662426,
1,0,1,0,4,0,4,0,,,,,,,,,,,,,,,,,,,,,,,,,,,,,,,,,,,,,,,,,,,,,,,,,,,,147.9056168999523,147.9056168999523,0.0072484000120311975,0.09842050005681813,2.0,2.325740500120446,,,,,,,,,,,,,,9966,Moral,2025-03-09_14h34.03.255,MoralCondition_v2,2022.2.5,29.940998272662426,
1,0,1,0,5,0,5,0,,,,,,,,,,,,,,,,,,,,,,,,,,,,,,,,,,,,,,,,,,,,,,,,,,,,150.27232660003938,150.27232660003938,0.007236299803480506,0.09780479990877211,1.0,1.5584684000350535,,,,,,,,,,,,,,9966,Moral,2025-03-09_14h34.03.255,MoralCondition_v2,2022.2.5,29.940998272662426,
1,0,1,0,6,0,6,0,,,,,,,,,,,,,,,,,,,,,,,,,,,,,,,,,,,,,,,,,,,,,,,,,,,,151.87236889987253,151.87236889987253,0.00744380010291934,0.09797390014864504,3.0,1.3248787999618798,,,,,,,,,,,,,,9966,Moral,2025-03-09_14h34.03.255,MoralCondition_v2,2022.2.5,29.940998272662426,
1,0,1,0,,,,,,,,,,,,,,,,,,,,,,,,,,,,,,,,,,,,,,,,,,,,,,,,,,,,,,,,,,,,,,153.23912739986554,153.23912739986554,0.0006905999034643173,0.09911639988422394,7.0,7.066325800027698,,,,,,,,9966,Moral,2025-03-09_14h34.03.255,MoralCondition_v2,2022.2.5,29.940998272662426,
2,0,2,0,0,0,0,0,,,,,,,,,,,,,,,,,,,,,160.33921359991655,0.0003942998591810465,0.09822479984723032,166.33910400001332,6.031615699874237,166.52215359988622,166.52215359988622,0.07465159986168146,0.1814281998667866,6.014841799857095,172.62225599982776,172.62225599982776,172.62225599982776,0.07202009973116219,0.18209019978530705,178.3223224999383,178.52229939983226,6.0148000998888165,6.114773399662226,184.52224139985628,12.014700199710205,184.65564360003918,184.65564360003918,0.015066099585965276,0.11484779976308346,up,0.7569899002555758,185.45567759987898,5.479995161294937e-05,0.09780809981748462,191.47238649986684,191.47238649986684,191.47238649986684,0.009503799956291914,0.11455930001102388,7.0,2.0393000000622123,,,,,,,184.6224213000387,184.6224213000387,172.50546679995023,172.50546679995023,,,,9966,Moral,2025-03-09_14h34.03.255,MoralCondition_v2,2022.2.5,29.940998272662426,
2,0,2,0,1,0,1,0,,,,,,,,,,,,,,,,,,,,,,,,,,,,,,,,,,,,,,,,,,,,,,,,,,,,193.55565469991416,193.55565469991416,0.007943699834868312,0.11413679993711412,2.0,2.8739630000200123,,,,,,,,,,,,,,9966,Moral,2025-03-09_14h34.03.255,MoralCondition_v2,2022.2.5,29.940998272662426,
2,0,2,0,2,0,2,0,,,,,,,,,,,,,,,,,,,,,,,,,,,,,,,,,,,,,,,,,,,,,,,,,,,,196.45559050003067,196.45559050003067,0.007224299944937229,0.09787409985437989,3.0,1.2251808000728488,,,,,,,,,,,,,,9966,Moral,2025-03-09_14h34.03.255,MoralCondition_v2,2022.2.5,29.940998272662426,
2,0,2,0,3,0,3,0,,,,,,,,,,,,,,,,,,,,,,,,,,,,,,,,,,,,,,,,,,,,,,,,,,,,197.72222689981572,197.72222689981572,0.007993899984285235,0.09774530003778636,3.0,10.690715100150555,,,,,,,,,,,,,,9966,Moral,2025-03-09_14h34.03.255,MoralCondition_v2,2022.2.5,29.940998272662426,
2,0,2,0,4,0,4,0,,,,,,,,,,,,,,,,,,,,,,,,,,,,,,,,,,,,,,,,,,,,,,,,,,,,208.4554691000376,208.4554691000376,0.007215599995106459,0.09805530006997287,3.0,6.758764200145379,,,,,,,,,,,,,,9966,Moral,2025-03-09_14h34.03.255,MoralCondition_v2,2022.2.5,29.940998272662426,
2,0,2,0,5,0,5,0,,,,,,,,,,,,,,,,,,,,,,,,,,,,,,,,,,,,,,,,,,,,,,,,,,,,215.25568749988452,215.25568749988452,0.007051500026136637,0.09932960011065006,1.0,2.2598357999231666,,,,,,,,,,,,,,9966,Moral,2025-03-09_14h34.03.255,MoralCondition_v2,2022.2.5,29.940998272662426,
2,0,2,0,6,0,6,0,,,,,,,,,,,,,,,,,,,,,,,,,,,,,,,,,,,,,,,,,,,,,,,,,,,,217.57257519988343,217.57257519988343,0.007535299984738231,0.11410310002975166,1.0,2.2742303998675197,,,,,,,,,,,,,,9966,Moral,2025-03-09_14h34.03.255,MoralCondition_v2,2022.2.5,29.940998272662426,
2,0,2,0,,,,,,,,,,,,,,,,,,,,,,,,,,,,,,,,,,,,,,,,,,,,,,,,,,,,,,,,,,,,,,219.87209569988772,219.87209569988772,0.001399200176820159,0.09749369998462498,7.0,3.7975143999792635,,,,,,,,9966,Moral,2025-03-09_14h34.03.255,MoralCondition_v2,2022.2.5,29.940998272662426,
3,0,3,0,0,0,0,0,,,,,,,,,,,,,,,,,,,,,223.70590699999593,0.00015380000695586205,0.09930119989439845,229.7221768000163,6.015742599964142,229.92244390002452,229.92244390002452,0.10007499996572733,0.21567039983347058,6.016083699883893,235.98869899986312,235.98869899986312,235.98869899986312,0.06908749975264072,0.1823764997534454,241.6888035000302,241.88880309998058,6.015708199702203,6.115738799795508,247.88882879982702,12.015731699764729,248.0221567999106,248.0221567999106,0.01597689976915717,0.11563719972036779,up,0.3669665001798421,248.42215869994834,2.369983121752739e-05,0.09821129986084998,,254.43868559994735,254.43868559994735,0.025146199855953455,0.11477779992856085,3.0,2.4907277999445796,,,,,,,247.98879810003564,247.98879810003564,,,,,,9966,Moral,2025-03-09_14h34.03.255,MoralCondition_v2,2022.2.5,29.940998272662426,
3,0,3,0,1,0,1,0,,,,,,,,,,,,,,,,,,,,,,,,,,,,,,,,,,,,,,,,,,,,,,,,,,,,256.9890456998255,256.9890456998255,0.008322800043970346,0.1145758000202477,2.0,2.1402907001320273,,,,,,,,,,,,,,9966,Moral,2025-03-09_14h34.03.255,MoralCondition_v2,2022.2.5,29.940998272662426,
3,0,3,0,2,0,2,0,,,,,,,,,,,,,,,,,,,,,,,,,,,,,,,,,,,,,,,,,,,,,,,,,,,,259.1721709999256,259.1721709999256,0.007622499950230122,0.11445190012454987,2.0,1.1414928000885993,,,,,,,,,,,,,,9966,Moral,2025-03-09_14h34.03.255,MoralCondition_v2,2022.2.5,29.940998272662426,
3,0,3,0,3,0,3,0,,,,,,,,,,,,,,,,,,,,,,,,,,,,,,,,,,,,,,,,,,,,,,,,,,,,260.3554815000389,260.3554815000389,0.008679399965330958,0.11429769988171756,6.0,2.6402082999702543,,,,,,,,,,,,,,9966,Moral,2025-03-09_14h34.03.255,MoralCondition_v2,2022.2.5,29.940998272662426,
3,0,3,0,4,0,4,0,,,,,,,,,,,,,,,,,,,,,,,,,,,,,,,,,,,,,,,,,,,,,,,,,,,,263.02195589989424,263.02195589989424,0.007538000121712685,0.09802490007132292,2.0,3.824763200012967,,,,,,,,,,,,,,9966,Moral,2025-03-09_14h34.03.255,MoralCondition_v2,2022.2.5,29.940998272662426,
3,0,3,0,5,0,5,0,,,,,,,,,,,,,,,,,,,,,,,,,,,,,,,,,,,,,,,,,,,,,,,,,,,,266.8886769998353,266.8886769998353,0.007039999822154641,0.09914759988896549,1.0,0.9267025000881404,,,,,,,,,,,,,,9966,Moral,2025-03-09_14h34.03.255,MoralCondition_v2,2022.2.5,29.940998272662426,
3,0,3,0,6,0,6,0,,,,,,,,,,,,,,,,,,,,,,,,,,,,,,,,,,,,,,,,,,,,,,,,,,,,267.8553674998693,267.8553674998693,0.00727790012024343,0.09798660012893379,3.0,1.424848600057885,,,,,,,,,,,,,,9966,Moral,2025-03-09_14h34.03.255,MoralCondition_v2,2022.2.5,29.940998272662426,
3,0,3,0,,,,,,,,,,,,,,,,,,,,,,,,,,,,,,,,,,,,,,,,,,,,,,,,,,,,,,,,,,,,,,269.3221294998657,269.3221294998657,0.0014233000110834837,0.09751830017194152,7.0,4.830610299948603,,,,,,,,9966,Moral,2025-03-09_14h34.03.255,MoralCondition_v2,2022.2.5,29.940998272662426,
4,0,4,0,0,0,0,0,,,,,,,,,,,,,,,,,,,,,274.18894869997166,0.0002498000394552946,0.0981529001146555,280.1887914999388,6.031579199945554,280.3886169998441,280.3886169998441,0.09404039988294244,0.1981130000203848,6.031363599933684,286.48876209999435,286.48876209999435,286.48876209999435,0.09792709979228675,0.19831739994697273,292.18848839984275,292.3885625998955,6.031191499903798,6.1311186999082565,298.3886904998217,12.031425499822944,298.5220013000071,298.5220013000071,0.031519899843260646,0.131328699644655,down,0.442642800277099,299.02198179997504,4.6999892219901085e-05,0.09777579992078245,305.02186480001546,305.02186480001546,305.02186480001546,0.008832700084894896,0.09789950004778802,2.0,3.123458300018683,,,,,,,298.48864689981565,298.48864689981565,286.3887208998203,286.3887208998203,,,,9966,Moral,2025-03-09_14h34.03.255,MoralCondition_v2,2022.2.5,29.940998272662426,
4,0,4,0,1,0,1,0,,,,,,,,,,,,,,,,,,,,,,,,,,,,,,,,,,,,,,,,,,,,,,,,,,,,308.18861239985563,308.18861239985563,0.00654420000500977,0.09907129989005625,6.0,2.9933952998835593,,,,,,,,,,,,,,9966,Moral,2025-03-09_14h34.03.255,MoralCondition_v2,2022.2.5,29.940998272662426,
4,0,4,0,2,0,2,0,,,,,,,,,,,,,,,,,,,,,,,,,,,,,,,,,,,,,,,,,,,,,,,,,,,,311.22218879987486,311.22218879987486,0.007859000004827976,0.09752429998479784,1.0,1.49082179996185,,,,,,,,,,,,,,9966,Moral,2025-03-09_14h34.03.255,MoralCondition_v2,2022.2.5,29.940998272662426,
4,0,4,0,3,0,3,0,,,,,,,,,,,,,,,,,,,,,,,,,,,,,,,,,,,,,,,,,,,,,,,,,,,,312.7552983998321,312.7552983998321,0.00654849992133677,0.09908019984140992,5.0,2.193906799890101,,,,,,,,,,,,,,9966,Moral,2025-03-09_14h34.03.255,MoralCondition_v2,2022.2.5,29.940998272662426,
4,0,4,0,4,0,4,0,,,,,,,,,,,,,,,,,,,,,,,,,,,,,,,,,,,,,,,,,,,,,,,,,,,,314.9886803999543,314.9886803999543,0.0070547000505030155,0.09795169997960329,5.0,1.9918955999892205,,,,,,,,,,,,,,9966,Moral,2025-03-09_14h34.03.255,MoralCondition_v2,2022.2.5,29.940998272662426,
4,0,4,0,5,0,5,0,,,,,,,,,,,,,,,,,,,,,,,,,,,,,,,,,,,,,,,,,,,,,,,,,,,,317.02196779986843,317.02196779986843,0.006569999968633056,0.09898759983479977,1.0,2.3603331001941115,,,,,,,,,,,,,,9966,Moral,2025-03-09_14h34.03.255,MoralCondition_v2,2022.2.5,29.940998272662426,
4,0,4,0,6,0,6,0,,,,,,,,,,,,,,,,,,,,,,,,,,,,,,,,,,,,,,,,,,,,,,,,,,,,319.4385746999178,319.4385746999178,0.010219699935987592,0.1139909999910742,3.0,6.104635800002143,,,,,,,,,,,,,,9966,Moral,2025-03-09_14h34.03.255,MoralCondition_v2,2022.2.5,29.940998272662426,
4,0,4,0,,,,,,,,,,,,,,,,,,,,,,,,,,,,,,,,,,,,,,,,,,,,,,,,,,,,,,,,,,,,,,325.57182980002835,325.57182980002835,0.0006969999521970749,0.09959100000560284,1.0,4.799485299969092,,,,,,,,9966,Moral,2025-03-09_14h34.03.255,MoralCondition_v2,2022.2.5,29.940998272662426,
5,0,5,0,0,0,0,0,,,,,,,,,,,,,,,,,,,,,330.4054431999102,0.00013770000077784061,0.09950729995034635,336.40520589984953,5.9991673999466,336.58875699993223,336.58875699993223,0.06770209991373122,0.18245279975235462,6.015765699790791,342.6719799998682,342.6719799998682,342.6719799998682,0.06452179979532957,0.16618369962088764,348.3718307998497,348.57183259981684,5.999117999803275,6.099213199689984,354.5718350999523,11.999155999626964,354.70519339991733,354.70519339991733,-1.5100464224815369e-05,0.09911589953117073,down,0.4036856002639979,355.1718533998355,4.2800093069672585e-05,0.09802050003781915,,361.18869879981503,361.18869879981503,0.025464100064709783,0.11489970004186034,5.0,4.590321599971503,,,,,,,354.67186479992233,354.67186479992233,342.57173740002327,342.57173740002327,6.09913789993152,12.09916519979015,,9966,Moral,2025-03-09_14h34.03.255,MoralCondition_v2,2022.2.5,29.940998272662426,
5,0,5,0,1,0,1,0,,,,,,,,,,,,,,,,,,,,,,,,,,,,,,,,,,,,,,,,,,,,,,,,,,,,365.8386421999894,365.8386421999894,0.009171799989417195,0.11439220001921058,3.0,3.773228900041431,,,,,,,,,,,,,,9966,Moral,2025-03-09_14h34.03.255,MoralCondition_v2,2022.2.5,29.940998272662426,
5,0,5,0,2,0,2,0,,,,,,,,,,,,,,,,,,,,,,,,,,,,,,,,,,,,,,,,,,,,,,,,,,,,369.63833869993687,369.63833869993687,0.007473000092431903,0.0992807000875473,5.0,2.3596373999025673,,,,,,,,,,,,,,9966,Moral,2025-03-09_14h34.03.255,MoralCondition_v2,2022.2.5,29.940998272662426,
5,0,5,0,3,0,3,0,,,,,,,,,,,,,,,,,,,,,,,,,,,,,,,,,,,,,,,,,,,,,,,,,,,,372.05527859996073,372.05527859996073,0.007688299985602498,0.11433909996412694,3.0,2.341299199964851,,,,,,,,,,,,,,9966,Moral,2025-03-09_14h34.03.255,MoralCondition_v2,2022.2.5,29.940998272662426,
5,0,5,0,4,0,4,0,,,,,,,,,,,,,,,,,,,,,,,,,,,,,,,,,,,,,,,,,,,,,,,,,,,,374.4219041999895,374.4219041999895,0.007210999960079789,0.09821500000543892,6.0,3.192086499882862,,,,,,,,,,,,,,9966,Moral,2025-03-09_14h34.03.255,MoralCondition_v2,2022.2.5,29.940998272662426,
5,0,5,0,5,0,5,0,,,,,,,,,,,,,,,,,,,,,,,,,,,,,,,,,,,,,,,,,,,,,,,,,,,,377.65501259989105,377.65501259989105,0.0060217001009732485,0.09903830010443926,6.0,1.7274921999778599,,,,,,,,,,,,,,9966,Moral,2025-03-09_14h34.03.255,MoralCondition_v2,2022.2.5,29.940998272662426,
5,0,5,0,6,0,6,0,,,,,,,,,,,,,,,,,,,,,,,,,,,,,,,,,,,,,,,,,,,,,,,,,,,,379.4384585998487,379.4384585998487,0.008088500006124377,0.1145038001704961,2.0,2.1408323000650853,,,,,,,,,,,,,,9966,Moral,2025-03-09_14h34.03.255,MoralCondition_v2,2022.2.5,29.940998272662426,
5,0,5,0,,,,,,,,,,,,,,,,,,,,,,,,,,,,,,,,,,,,,,,,,,,,,,,,,,,,,,,,,,,,,,381.6052309998777,381.6052309998777,0.0006887998897582293,0.09908559988252819,1.0,2.4330686999019235,,,,,,,,9966,Moral,2025-03-09_14h34.03.255,MoralCondition_v2,2022.2.5,29.940998272662426,
6,0,6,0,0,0,0,0,,,,,,,,,,,,,,,,,,,,,384.071803299943,0.00013539986684918404,0.09938000002875924,390.0884942000266,6.015859700040892,390.27213159995154,390.27213159995154,0.09224639995954931,0.19939279975369573,5.999169399961829,396.32159309997223,396.32159309997223,396.32159309997223,0.05418279976584017,0.14920809981413186,402.02166430000216,402.2552290998865,6.016080599743873,6.115847299806774,408.2549878999125,12.015826699789613,408.38850490003824,408.38850490003824,0.01596479956060648,0.11577469971962273,down,0.6560915999580175,409.0884284998756,4.419987089931965e-05,0.09810709999874234,,415.1048735999502,415.1048735999502,0.025682799983769655,0.11476040002889931,2.0,3.323543000034988,,,,,,,408.3218729000073,408.3218729000073,396.32159309997223,396.32159309997223,,,6.0992247997783124,9966,Moral,2025-03-09_14h34.03.255,MoralCondition_v2,2022.2.5,29.940998272662426,
6,0,6,0,1,0,1,0,,,,,,,,,,,,,,,,,,,,,,,,,,,,,,,,,,,,,,,,,,,,,,,,,,,,418.4716932999436,418.4716932999436,0.006760199787095189,0.09910509991459548,5.0,4.226712600095198,,,,,,,,,,,,,,9966,Moral,2025-03-09_14h34.03.255,MoralCondition_v2,2022.2.5,29.940998272662426,
6,0,6,0,2,0,2,0,,,,,,,,,,,,,,,,,,,,,,,,,,,,,,,,,,,,,,,,,,,,,,,,,,,,422.75504289986566,422.75504289986566,0.00901000015437603,0.11396870017051697,6.0,2.572573399869725,,,,,,,,,,,,,,9966,Moral,2025-03-09_14h34.03.255,MoralCondition_v2,2022.2.5,29.940998272662426,
6,0,6,0,3,0,3,0,,,,,,,,,,,,,,,,,,,,,,,,,,,,,,,,,,,,,,,,,,,,,,,,,,,,425.3717916000169,425.3717916000169,0.008543299976736307,0.11447950010187924,5.0,1.8403033998329192,,,,,,,,,,,,,,9966,Moral,2025-03-09_14h34.03.255,MoralCondition_v2,2022.2.5,29.940998272662426,
6,0,6,0,4,0,4,0,,,,,,,,,,,,,,,,,,,,,,,,,,,,,,,,,,,,,,,,,,,,,,,,,,,,427.2549356999807,427.2549356999807,0.010303199989721179,0.11375679983757436,5.0,1.9710095999762416,,,,,,,,,,,,,,9966,Moral,2025-03-09_14h34.03.255,MoralCondition_v2,2022.2.5,29.940998272662426,
6,0,6,0,5,0,5,0,,,,,,,,,,,,,,,,,,,,,,,,,,,,,,,,,,,,,,,,,,,,,,,,,,,,429.2549759999383,429.2549759999383,0.006908399984240532,0.09843520005233586,2.0,1.75903860013932,,,,,,,,,,,,,,9966,Moral,2025-03-09_14h34.03.255,MoralCondition_v2,2022.2.5,29.940998272662426,
6,0,6,0,6,0,6,0,,,,,,,,,,,,,,,,,,,,,,,,,,,,,,,,,,,,,,,,,,,,,,,,,,,,431.05506839999,431.05506839999,0.007207500049844384,0.09797980007715523,4.0,3.05839079990983,,,,,,,,,,,,,,9966,Moral,2025-03-09_14h34.03.255,MoralCondition_v2,2022.2.5,29.940998272662426,
6,0,6,0,,,,,,,,,,,,,,,,,,,,,,,,,,,,,,,,,,,,,,,,,,,,,,,,,,,,,,,,,,,,,,434.1551577998325,434.1551577998325,0.0007390000391751528,0.09948679991066456,2.0,5.483177599962801,,,,,,,,9966,Moral,2025-03-09_14h34.03.255,MoralCondition_v2,2022.2.5,29.940998272662426,
7,0,7,0,0,0,0,0,,,,,,,,,,,,,,,,,,,,,439.67149450001307,9.380001574754715e-05,0.09914030018262565,445.67151369992644,5.999381700064987,445.83815929992124,445.83815929992124,0.05295119993388653,0.16607620008289814,5.999446999980137,451.9383954999503,451.9383954999503,451.9383954999503,0.05936169996857643,0.1663454999215901,457.6381484998856,457.8381013998296,5.999356299871579,6.099485599901527,463.83814839995466,11.999400399858132,463.97144560003653,463.97144560003653,0.00021409988403320312,0.09929969976656139,up,0.5924247999209911,464.6047908999026,4.079984501004219e-05,0.09797669993713498,,470.6381973999087,470.6381973999087,0.02548209996894002,0.1312895999290049,6.0,4.173490999964997,,,,,,,463.9381511998363,463.9381511998363,451.83837220002897,451.83837220002897,6.099222300108522,12.099422899773344,6.099625299917534,9966,Moral,2025-03-09_14h34.03.255,MoralCondition_v2,2022.2.5,29.940998272662426,
7,0,7,0,1,0,1,0,,,,,,,,,,,,,,,,,,,,,,,,,,,,,,,,,,,,,,,,,,,,,,,,,,,,474.85505929985084,474.85505929985084,0.008323999820277095,0.11432469985447824,3.0,2.907555199926719,,,,,,,,,,,,,,9966,Moral,2025-03-09_14h34.03.255,MoralCondition_v2,2022.2.5,29.940998272662426,
7,0,7,0,2,0,2,0,,,,,,,,,,,,,,,,,,,,,,,,,,,,,,,,,,,,,,,,,,,,,,,,,,,,477.7879142998718,477.7879142998718,0.007426499854773283,0.09789979993365705,2.0,3.224685600027442,,,,,,,,,,,,,,9966,Moral,2025-03-09_14h34.03.255,MoralCondition_v2,2022.2.5,29.940998272662426,
7,0,7,0,3,0,3,0,,,,,,,,,,,,,,,,,,,,,,,,,,,,,,,,,,,,,,,,,,,,,,,,,,,,481.05461489991285,481.05461489991285,0.007027599960565567,0.09835290000773966,2.0,1.2926700999960303,,,,,,,,,,,,,,9966,Moral,2025-03-09_14h34.03.255,MoralCondition_v2,2022.2.5,29.940998272662426,
7,0,7,0,4,0,4,0,,,,,,,,,,,,,,,,,,,,,,,,,,,,,,,,,,,,,,,,,,,,,,,,,,,,482.40469420002773,482.40469420002773,0.008519200142472982,0.11439290014095604,1.0,0.8404818000271916,,,,,,,,,,,,,,9966,Moral,2025-03-09_14h34.03.255,MoralCondition_v2,2022.2.5,29.940998272662426,
7,0,7,0,5,0,5,0,,,,,,,,,,,,,,,,,,,,,,,,,,,,,,,,,,,,,,,,,,,,,,,,,,,,483.2714410999324,483.2714410999324,0.007030299864709377,0.09801089996472001,1.0,1.89234790019691,,,,,,,,,,,,,,9966,Moral,2025-03-09_14h34.03.255,MoralCondition_v2,2022.2.5,29.940998272662426,
7,0,7,0,6,0,6,0,,,,,,,,,,,,,,,,,,,,,,,,,,,,,,,,,,,,,,,,,,,,,,,,,,,,485.2046643998474,485.2046643998474,0.0067368000745773315,0.0992425000295043,4.0,3.4603689000941813,,,,,,,,,,,,,,9966,Moral,2025-03-09_14h34.03.255,MoralCondition_v2,2022.2.5,29.940998272662426,
7,0,7,0,,,,,,,,,,,,,,,,,,,,,,,,,,,,,,,,,,,,,,,,,,,,,,,,,,,,,,,,,,,,,,488.70471760001965,488.70471760001965,0.0007372000254690647,0.09938920009881258,7.0,2.0998080000281334,,,,,,,,9966,Moral,2025-03-09_14h34.03.255,MoralCondition_v2,2022.2.5,29.940998272662426,
8,0,8,0,0,0,0,0,,,,,,,,,,,,,,,,,,,,,490.8383805998601,0.0001368001103401184,0.09916940005496144,496.8213511998765,6.01579220010899,497.0048362999223,497.0048362999223,0.0606046998873353,0.16600039997138083,5.999066299991682,503.10467589995824,503.10467589995824,503.10467589995824,0.0599354999139905,0.1659450998995453,508.8046058998443,509.03805279987864,5.999037700006738,6.099071299890056,515.0379388998263,11.999105499824509,515.1379446999636,515.1379446999636,-0.00013810023665428162,0.09899979969486594,up,0.32258820021525025,515.5046027000062,4.37998678535223e-05,0.0979728999081999,,521.5212787999772,521.5212787999772,0.024739899905398488,0.11459149979054928,3.0,3.190876299981028,,,,,,,515.1045675999485,515.1045675999485,503.00462329993024,503.00462329993024,6.099021699978039,12.099047799827531,6.0991030998993665,9966,Moral,2025-03-09_14h34.03.255,MoralCondition_v2,2022.2.5,29.940998272662426,
8,0,8,0,1,0,1,0,,,,,,,,,,,,,,,,,,,,,,,,,,,,,,,,,,,,,,,,,,,,,,,,,,,,524.7547332998365,524.7547332998365,0.006591999903321266,0.09908179985359311,1.0,3.5602520001120865,,,,,,,,,,,,,,9966,Moral,2025-03-09_14h34.03.255,MoralCondition_v2,2022.2.5,29.940998272662426,
8,0,8,0,2,0,2,0,,,,,,,,,,,,,,,,,,,,,,,,,,,,,,,,,,,,,,,,,,,,,,,,,,,,528.3545561998617,528.3545561998617,0.008685299893841147,0.0976726000662893,1.0,0.6901840001810342,,,,,,,,,,,,,,9966,Moral,2025-03-09_14h34.03.255,MoralCondition_v2,2022.2.5,29.940998272662426,
8,0,8,0,3,0,3,0,,,,,,,,,,,,,,,,,,,,,,,,,,,,,,,,,,,,,,,,,,,,,,,,,,,,529.1046109998133,529.1046109998133,0.008970900205895305,0.11410210002213717,7.0,2.1393494999501854,,,,,,,,,,,,,,9966,Moral,2025-03-09_14h34.03.255,MoralCondition_v2,2022.2.5,29.940998272662426,
8,0,8,0,4,0,4,0,,,,,,,,,,,,,,,,,,,,,,,,,,,,,,,,,,,,,,,,,,,,,,,,,,,,531.2711954000406,531.2711954000406,0.00765990000218153,0.0979218001011759,1.0,2.3580587999895215,,,,,,,,,,,,,,9966,Moral,2025-03-09_14h34.03.255,MoralCondition_v2,2022.2.5,29.940998272662426,
8,0,8,0,5,0,5,0,,,,,,,,,,,,,,,,,,,,,,,,,,,,,,,,,,,,,,,,,,,,,,,,,,,,533.6715015999507,533.6715015999507,0.00644939998164773,0.0983235000167042,1.0,1.1599298999644816,,,,,,,,,,,,,,9966,Moral,2025-03-09_14h34.03.255,MoralCondition_v2,2022.2.5,29.940998272662426,
8,0,8,0,6,0,6,0,,,,,,,,,,,,,,,,,,,,,,,,,,,,,,,,,,,,,,,,,,,,,,,,,,,,534.8717163999099,534.8717163999099,0.007299400167539716,0.09841420012526214,3.0,3.125200599897653,,,,,,,,,,,,,,9966,Moral,2025-03-09_14h34.03.255,MoralCondition_v2,2022.2.5,29.940998272662426,
8,0,8,0,,,,,,,,,,,,,,,,,,,,,,,,,,,,,,,,,,,,,,,,,,,,,,,,,,,,,,,,,,,,,,538.0379458998796,538.0379458998796,0.0014256001450121403,0.09725900017656386,7.0,3.0309301000088453,,,,,,,,9966,Moral,2025-03-09_14h34.03.255,MoralCondition_v2,2022.2.5,29.940998272662426,
9,0,9,0,0,0,0,0,,,,,,,,,,,,,,,,,,,,,541.1045170999132,0.0004398999735713005,0.09745010011829436,547.1211084998213,6.014076699968427,547.2880742999259,547.2880742999259,0.07684889994561672,0.1809313998091966,6.0143902997951955,553.3877734998241,553.3877734998241,553.3877734998241,0.07360839983448386,0.18091589980758727,559.0877331998199,559.2877274998464,6.013978699920699,6.114003899740055,565.2877540998161,12.01402789982967,565.4210337998811,565.4210337998811,0.014301599701866508,0.11397609976120293,down,1.543512700125575,567.0211421998683,4.630000330507755e-05,0.09798640012741089,,573.0379673999269,573.0379673999269,0.02550600003451109,0.1147241999860853,6.0,3.3900194000452757,,,,,,,565.3878533998504,565.3878533998504,553.2709931000136,553.2709931000136,,,,9966,Moral,2025-03-09_14h34.03.255,MoralCondition_v2,2022.2.5,29.940998272662426,
9,0,9,0,1,0,1,0,,,,,,,,,,,,,,,,,,,,,,,,,,,,,,,,,,,,,,,,,,,,,,,,,,,,576.4710217998363,576.4710217998363,0.006714599905535579,0.09930659993551672,1.0,2.1267296001315117,,,,,,,,,,,,,,9966,Moral,2025-03-09_14h34.03.255,MoralCondition_v2,2022.2.5,29.940998272662426,
9,0,9,0,2,0,2,0,,,,,,,,,,,,,,,,,,,,,,,,,,,,,,,,,,,,,,,,,,,,,,,,,,,,578.654446600005,578.654446600005,0.007895000046119094,0.11431430000811815,3.0,2.207280399976298,,,,,,,,,,,,,,9966,Moral,2025-03-09_14h34.03.255,MoralCondition_v2,2022.2.5,29.940998272662426,
9,0,9,0,3,0,3,0,,,,,,,,,,,,,,,,,,,,,,,,,,,,,,,,,,,,,,,,,,,,,,,,,,,,580.9044584999792,580.9044584999792,0.007744200062006712,0.1141586999874562,1.0,2.040805400116369,,,,,,,,,,,,,,9966,Moral,2025-03-09_14h34.03.255,MoralCondition_v2,2022.2.5,29.940998272662426,
9,0,9,0,4,0,4,0,,,,,,,,,,,,,,,,,,,,,,,,,,,,,,,,,,,,,,,,,,,,,,,,,,,,582.9711176999845,582.9711176999845,0.006660799961537123,0.09905769978649914,5.0,2.12673749984242,,,,,,,,,,,,,,9966,Moral,2025-03-09_14h34.03.255,MoralCondition_v2,2022.2.5,29.940998272662426,
9,0,9,0,5,0,5,0,,,,,,,,,,,,,,,,,,,,,,,,,,,,,,,,,,,,,,,,,,,,,,,,,,,,585.1377967998851,585.1377967998851,0.0070050000213086605,0.09850879991427064,6.0,4.292268599849194,,,,,,,,,,,,,,9966,Moral,2025-03-09_14h34.03.255,MoralCondition_v2,2022.2.5,29.940998272662426,
9,0,9,0,6,0,6,0,,,,,,,,,,,,,,,,,,,,,,,,,,,,,,,,,,,,,,,,,,,,,,,,,,,,589.48792149988,589.48792149988,0.008198900148272514,0.1141160000115633,5.0,2.4401810001581907,,,,,,,,,,,,,,9966,Moral,2025-03-09_14h34.03.255,MoralCondition_v2,2022.2.5,29.940998272662426,
9,0,9,0,,,,,,,,,,,,,,,,,,,,,,,,,,,,,,,,,,,,,,,,,,,,,,,,,,,,,,,,,,,,,,591.9541686000302,591.9541686000302,0.0013150000013411045,0.09771969984285533,1.0,2.5312091999221593,,,,,,,,9966,Moral,2025-03-09_14h34.03.255,MoralCondition_v2,2022.2.5,29.940998272662426,
10,0,10,0,0,0,0,0,,,,,,,,,,,,,,,,,,,,,594.5212399999145,0.00014359992928802967,0.09924090001732111,600.5376015999354,6.015839600004256,600.7043822000269,600.7043822000269,0.07063199998810887,0.1827777000144124,6.0158563000150025,606.7876252999995,606.7876252999995,606.7876252999995,0.07054839981719851,0.165990199893713,612.4876461999957,612.6875636000186,5.999222899787128,6.099102299893275,618.6875100999605,11.99914349988103,618.8208353999071,618.8208353999071,-0.00040790019556879997,0.09910299978218973,down,0.49506330001167953,619.3541659999173,4.5000109821558e-05,0.09751550015062094,625.3539634000044,625.3539634000044,625.3539634000044,0.007663000142201781,0.09762890008278191,3.0,6.52443110011518,,,,,,,618.7706742999144,618.7706742999144,606.7042219999712,606.7042219999712,,12.098965499782935,,9966,Moral,2025-03-09_14h34.03.255,MoralCondition_v2,2022.2.5,29.940998272662426,
10,0,10,0,1,0,1,0,,,,,,,,,,,,,,,,,,,,,,,,,,,,,,,,,,,,,,,,,,,,,,,,,,,,631.9208589999471,631.9208589999471,0.0062790000811219215,0.09901350014843047,3.0,3.894010500051081,,,,,,,,,,,,,,9966,Moral,2025-03-09_14h34.03.255,MoralCondition_v2,2022.2.5,29.940998272662426,
10,0,10,0,2,0,2,0,,,,,,,,,,,,,,,,,,,,,,,,,,,,,,,,,,,,,,,,,,,,,,,,,,,,635.853945299983,635.853945299983,0.006368899950757623,0.09919979982078075,1.0,1.4938999000005424,,,,,,,,,,,,,,9966,Moral,2025-03-09_14h34.03.255,MoralCondition_v2,2022.2.5,29.940998272662426,
10,0,10,0,3,0,3,0,,,,,,,,,,,,,,,,,,,,,,,,,,,,,,,,,,,,,,,,,,,,,,,,,,,,637.3875209998805,637.3875209998805,0.008116899989545345,0.09752340009436011,5.0,3.5906644999049604,,,,,,,,,,,,,,9966,Moral,2025-03-09_14h34.03.255,MoralCondition_v2,2022.2.5,29.940998272662426,
10,0,10,0,4,0,4,0,,,,,,,,,,,,,,,,,,,,,,,,,,,,,,,,,,,,,,,,,,,,,,,,,,,,641.0207558998372,641.0207558998372,0.007126400014385581,0.09908409998752177,6.0,2.326723299920559,,,,,,,,,,,,,,9966,Moral,2025-03-09_14h34.03.255,MoralCondition_v2,2022.2.5,29.940998272662426,
10,0,10,0,5,0,5,0,,,,,,,,,,,,,,,,,,,,,,,,,,,,,,,,,,,,,,,,,,,,,,,,,,,,643.387285299832,643.387285299832,0.006650800118222833,0.09919620002619922,7.0,1.7268882000353187,,,,,,,,,,,,,,9966,Moral,2025-03-09_14h34.03.255,MoralCondition_v2,2022.2.5,29.940998272662426,
10,0,10,0,6,0,6,0,,,,,,,,,,,,,,,,,,,,,,,,,,,,,,,,,,,,,,,,,,,,,,,,,,,,645.15402180003,645.15402180003,0.006364300148561597,0.09900819999165833,2.0,2.8937049000523984,,,,,,,,,,,,,,9966,Moral,2025-03-09_14h34.03.255,MoralCondition_v2,2022.2.5,29.940998272662426,
10,0,10,0,,,,,,,,,,,,,,,,,,,,,,,,,,,,,,,,,,,,,,,,,,,,,,,,,,,,,,,,,,,,,,648.0874675000086,648.0874675000086,0.0010850999969989061,0.09808410005643964,2.0,2.598198499996215,,,,,,,,9966,Moral,2025-03-09_14h34.03.255,MoralCondition_v2,2022.2.5,29.940998272662426,
11,0,11,0,0,0,0,0,,,,,,,,,,,,,,,,,,,,,650.7209788998589,0.00030780001543462276,0.09794649994000793,656.7206517998129,6.031264699995518,656.9042984999251,656.9042984999251,0.06918409978970885,0.1813255997840315,6.014597599860281,663.0042375000194,663.0042375000194,663.0042375000194,0.06978419981896877,0.18143829982727766,668.7040118000004,668.9039024999365,6.014418899780139,6.114527099765837,674.904065700015,12.014684899710119,675.0372492999304,675.0372492999304,0.014680999564006925,0.11461859964765608,down,0.4550256000366062,675.5373233000282,4.3899985030293465e-05,0.09800229989923537,,681.5705559998751,681.5705559998751,0.0271440998185426,0.1314184998627752,7.0,3.0385906000155956,,,,,,,675.003936199937,675.003936199937,662.903978999937,662.903978999937,,,,9966,Moral,2025-03-09_14h34.03.255,MoralCondition_v2,2022.2.5,29.940998272662426,
11,0,11,0,1,0,1,0,,,,,,,,,,,,,,,,,,,,,,,,,,,,,,,,,,,,,,,,,,,,,,,,,,,,684.6371108000167,684.6371108000167,0.007115799933671951,0.09828769997693598,6.0,1.492145200027153,,,,,,,,,,,,,,9966,Moral,2025-03-09_14h34.03.255,MoralCondition_v2,2022.2.5,29.940998272662426,
11,0,11,0,2,0,2,0,,,,,,,,,,,,,,,,,,,,,,,,,,,,,,,,,,,,,,,,,,,,,,,,,,,,686.1704082998913,686.1704082998913,0.006639299914240837,0.09944519982673228,2.0,2.027347299968824,,,,,,,,,,,,,,9966,Moral,2025-03-09_14h34.03.255,MoralCondition_v2,2022.2.5,29.940998272662426,
11,0,11,0,3,0,3,0,,,,,,,,,,,,,,,,,,,,,,,,,,,,,,,,,,,,,,,,,,,,,,,,,,,,688.2373038998339,688.2373038998339,0.0064875001553446054,0.09905329998582602,1.0,1.0936301001347601,,,,,,,,,,,,,,9966,Moral,2025-03-09_14h34.03.255,MoralCondition_v2,2022.2.5,29.940998272662426,
11,0,11,0,4,0,4,0,,,,,,,,,,,,,,,,,,,,,,,,,,,,,,,,,,,,,,,,,,,,,,,,,,,,689.3704329999164,689.3704329999164,0.00664520007558167,0.09902269998565316,3.0,1.6267256001010537,,,,,,,,,,,,,,9966,Moral,2025-03-09_14h34.03.255,MoralCondition_v2,2022.2.5,29.940998272662426,
11,0,11,0,5,0,5,0,,,,,,,,,,,,,,,,,,,,,,,,,,,,,,,,,,,,,,,,,,,,,,,,,,,,691.0374300000258,691.0374300000258,0.007389300037175417,0.09765599993988872,2.0,1.1912686999421567,,,,,,,,,,,,,,9966,Moral,2025-03-09_14h34.03.255,MoralCondition_v2,2022.2.5,29.940998272662426,
11,0,11,0,6,0,6,0,,,,,,,,,,,,,,,,,,,,,,,,,,,,,,,,,,,,,,,,,,,,,,,,,,,,692.2705455999821,692.2705455999821,0.007385799894109368,0.0982661999296397,2.0,2.2583183001261204,,,,,,,,,,,,,,9966,Moral,2025-03-09_14h34.03.255,MoralCondition_v2,2022.2.5,29.940998272662426,
11,0,11,0,,,,,,,,,,,,,,,,,,,,,,,,,,,,,,,,,,,,,,,,,,,,,,,,,,,,,,,,,,,,,,694.5705273000058,694.5705273000058,0.0007087001577019691,0.099160399986431,2.0,3.0330091998912394,,,,,,,,9966,Moral,2025-03-09_14h34.03.255,MoralCondition_v2,2022.2.5,29.940998272662426,
12,0,12,0,0,0,0,0,,,,,,,,,,,,,,,,,,,,,697.6375074998941,0.00027680001221597195,0.09775830013677478,703.637183799874,6.031242599943653,703.8372841998935,703.8372841998935,0.08903819997794926,0.1978873999323696,6.031225099926814,709.937201499939,709.937201499939,709.937201499939,0.09271179977804422,0.19799019978381693,715.6370157999918,715.8371627999004,6.031226199818775,6.131240299902856,721.8370789999608,12.031138599850237,721.970443499973,721.970443499973,0.03130469983443618,0.13110959972254932,down,0.3373855999670923,722.370467199944,4.109996370971203e-05,0.09769489988684654,728.3871649999637,728.3871649999637,728.3871649999637,0.0094628999941051,0.11441750009544194,5.0,3.439280599821359,,,,,,,721.9370772999246,721.9370772999246,709.837274099933,709.837274099933,,,,9966,Moral,2025-03-09_14h34.03.255,MoralCondition_v2,2022.2.5,29.940998272662426,
12,0,12,0,1,0,1,0,,,,,,,,,,,,,,,,,,,,,,,,,,,,,,,,,,,,,,,,,,,,,,,,,,,,731.8537708998192,731.8537708998192,0.006993799936026335,0.09829830005764961,7.0,1.658894799882546,,,,,,,,,,,,,,9966,Moral,2025-03-09_14h34.03.255,MoralCondition_v2,2022.2.5,29.940998272662426,
12,0,12,0,2,0,2,0,,,,,,,,,,,,,,,,,,,,,,,,,,,,,,,,,,,,,,,,,,,,,,,,,,,,733.5706441998482,733.5706441998482,0.00761430012062192,0.114174900110811,3.0,5.240933999884874,,,,,,,,,,,,,,9966,Moral,2025-03-09_14h34.03.255,MoralCondition_v2,2022.2.5,29.940998272662426,
12,0,12,0,3,0,3,0,,,,,,,,,,,,,,,,,,,,,,,,,,,,,,,,,,,,,,,,,,,,,,,,,,,,738.8368475998286,738.8368475998286,0.007692600134760141,0.0979452000465244,5.0,1.891253599897027,,,,,,,,,,,,,,9966,Moral,2025-03-09_14h34.03.255,MoralCondition_v2,2022.2.5,29.940998272662426,
12,0,12,0,4,0,4,0,,,,,,,,,,,,,,,,,,,,,,,,,,,,,,,,,,,,,,,,,,,,,,,,,,,,740.7871365998872,740.7871365998872,0.008079299936071038,0.11438619997352362,1.0,1.97392989997752,,,,,,,,,,,,,,9966,Moral,2025-03-09_14h34.03.255,MoralCondition_v2,2022.2.5,29.940998272662426,
12,0,12,0,5,0,5,0,,,,,,,,,,,,,,,,,,,,,,,,,,,,,,,,,,,,,,,,,,,,,,,,,,,,742.7870088999625,742.7870088999625,0.007326500024646521,0.09718000004068017,1.0,0.6576482998207211,,,,,,,,,,,,,,9966,Moral,2025-03-09_14h34.03.255,MoralCondition_v2,2022.2.5,29.940998272662426,
12,0,12,0,6,0,6,0,,,,,,,,,,,,,,,,,,,,,,,,,,,,,,,,,,,,,,,,,,,,,,,,,,,,743.5038099999074,743.5038099999074,0.00779619999229908,0.11451700003817677,1.0,0.974293400067836,,,,,,,,,,,,,,9966,Moral,2025-03-09_14h34.03.255,MoralCondition_v2,2022.2.5,29.940998272662426,
12,0,12,0,,,,,,,,,,,,,,,,,,,,,,,,,,,,,,,,,,,,,,,,,,,,,,,,,,,,,,,,,,,,,,744.5037538998295,744.5037538998295,0.0016645998694002628,0.09775299998000264,1.0,2.7972881000023335,,,,,,,,9966,Moral,2025-03-09_14h34.03.255,MoralCondition_v2,2022.2.5,29.940998272662426,
13,0,13,0,0,0,0,0,,,,,,,,,,,,,,,,,,,,,747.3372686000075,0.0002707999665290117,0.09795259987004101,753.3369257999584,6.031079899985343,753.5202822999563,753.5202822999563,0.07675769994966686,0.1810699999332428,6.014398499857634,759.6203254000284,759.6203254000284,759.6203254000284,0.07347549963742495,0.18109359964728355,765.3202523998916,765.520235999953,6.014410799834877,6.114362999796867,771.5202003000304,12.014447099762037,771.6533774000127,771.6533774000127,0.014539799652993679,0.11432629963383079,down,0.2224652001168579,771.920240300009,5.279993638396263e-05,0.09777779993601143,777.9200744999107,777.9200744999107,777.9200744999107,0.009206099901348352,0.09763649990782142,6.0,3.756085499888286,,,,,,,771.6201950998511,771.6201950998511,759.5202609999105,759.5202609999105,,,,9966,Moral,2025-03-09_14h34.03.255,MoralCondition_v2,2022.2.5,29.940998272662426,
13,0,13,0,1,0,1,0,,,,,,,,,,,,,,,,,,,,,,,,,,,,,,,,,,,,,,,,,,,,,,,,,,,,781.7200800999999,781.7200800999999,0.006809599930420518,0.09914279985241592,5.0,1.59347779978998,,,,,,,,,,,,,,9966,Moral,2025-03-09_14h34.03.255,MoralCondition_v2,2022.2.5,29.940998272662426,
13,0,13,0,2,0,2,0,,,,,,,,,,,,,,,,,,,,,,,,,,,,,,,,,,,,,,,,,,,,,,,,,,,,783.3533514998853,783.3533514998853,0.007471299963071942,0.0978252999484539,5.0,1.1247624000534415,,,,,,,,,,,,,,9966,Moral,2025-03-09_14h34.03.255,MoralCondition_v2,2022.2.5,29.940998272662426,
13,0,13,0,3,0,3,0,,,,,,,,,,,,,,,,,,,,,,,,,,,,,,,,,,,,,,,,,,,,,,,,,,,,784.5370565999765,784.5370565999765,0.008917500032112002,0.113704799907282,1.0,1.972636800026521,,,,,,,,,,,,,,9966,Moral,2025-03-09_14h34.03.255,MoralCondition_v2,2022.2.5,29.940998272662426,
13,0,13,0,4,0,4,0,,,,,,,,,,,,,,,,,,,,,,,,,,,,,,,,,,,,,,,,,,,,,,,,,,,,786.5367256000172,786.5367256000172,0.006379400147125125,0.09928119997493923,4.0,1.693833899917081,,,,,,,,,,,,,,9966,Moral,2025-03-09_14h34.03.255,MoralCondition_v2,2022.2.5,29.940998272662426,
13,0,13,0,5,0,5,0,,,,,,,,,,,,,,,,,,,,,,,,,,,,,,,,,,,,,,,,,,,,,,,,,,,,788.2699549000245,788.2699549000245,0.007423299830406904,0.0978649000171572,1.0,1.2248555000405759,,,,,,,,,,,,,,9966,Moral,2025-03-09_14h34.03.255,MoralCondition_v2,2022.2.5,29.940998272662426,
13,0,13,0,6,0,6,0,,,,,,,,,,,,,,,,,,,,,,,,,,,,,,,,,,,,,,,,,,,,,,,,,,,,789.5367183999624,789.5367183999624,0.006428500171750784,0.09920300007797778,5.0,2.6938403001986444,,,,,,,,,,,,,,9966,Moral,2025-03-09_14h34.03.255,MoralCondition_v2,2022.2.5,29.940998272662426,
13,0,13,0,,,,,,,,,,,,,,,,,,,,,,,,,,,,,,,,,,,,,,,,,,,,,,,,,,,,,,,,,,,,,,792.2702360998373,792.2702360998373,0.000723700039088726,0.09901100001297891,1.0,5.399470599833876,,,,,,,,9966,Moral,2025-03-09_14h34.03.255,MoralCondition_v2,2022.2.5,29.940998272662426,
14,0,14,0,0,0,0,0,,,,,,,,,,,,,,,,,,,,,797.703646699898,0.0002919000107795,0.097697600023821,803.703487599967,6.03102339990437,803.9032061998732,803.9032061998732,0.09504309995099902,0.19760729977861047,6.030867299763486,810.0035468998831,810.0035468998831,810.0035468998831,0.09414909966289997,0.19779039965942502,815.7034258998465,815.9033754998818,6.030916899675503,6.130995699670166,821.9033560999669,12.030899699777365,822.0366886998527,822.0366886998527,0.031067699659615755,0.13085049972869456,up,0.41495010000653565,822.5034874998964,2.8900103643536568e-05,0.09879010007716715,828.5200133000035,828.5200133000035,828.5200133000035,0.010649500181898475,0.11543730017729104,5.0,3.8057311000302434,,,,,,,822.0033285999671,822.0033285999671,809.9034710000269,809.9034710000269,,,,9966,Moral,2025-03-09_14h34.03.255,MoralCondition_v2,2022.2.5,29.940998272662426,
14,0,14,0,1,0,1,0,,,,,,,,,,,,,,,,,,,,,,,,,,,,,,,,,,,,,,,,,,,,,,,,,,,,832.3702725998592,832.3702725998592,0.008066700072959065,0.11444059992209077,1.0,1.6407796000130475,,,,,,,,,,,,,,9966,Moral,2025-03-09_14h34.03.255,MoralCondition_v2,2022.2.5,29.940998272662426,
14,0,14,0,2,0,2,0,,,,,,,,,,,,,,,,,,,,,,,,,,,,,,,,,,,,,,,,,,,,,,,,,,,,834.0364153999835,834.0364153999835,0.006667700130492449,0.09893520013429224,6.0,2.22692389995791,,,,,,,,,,,,,,9966,Moral,2025-03-09_14h34.03.255,MoralCondition_v2,2022.2.5,29.940998272662426,
14,0,14,0,3,0,3,0,,,,,,,,,,,,,,,,,,,,,,,,,,,,,,,,,,,,,,,,,,,,,,,,,,,,836.3034508000128,836.3034508000128,0.006527200108394027,0.0990788999479264,1.0,1.4272641001734883,,,,,,,,,,,,,,9966,Moral,2025-03-09_14h34.03.255,MoralCondition_v2,2022.2.5,29.940998272662426,
14,0,14,0,4,0,4,0,,,,,,,,,,,,,,,,,,,,,,,,,,,,,,,,,,,,,,,,,,,,,,,,,,,,837.7869351999834,837.7869351999834,0.008473699912428856,0.11407399992458522,1.0,1.173505499958992,,,,,,,,,,,,,,9966,Moral,2025-03-09_14h34.03.255,MoralCondition_v2,2022.2.5,29.940998272662426,
14,0,14,0,5,0,5,0,,,,,,,,,,,,,,,,,,,,,,,,,,,,,,,,,,,,,,,,,,,,,,,,,,,,838.9865242999513,838.9865242999513,0.006483200006186962,0.09923509997315705,1.0,0.9935916000977159,,,,,,,,,,,,,,9966,Moral,2025-03-09_14h34.03.255,MoralCondition_v2,2022.2.5,29.940998272662426,
14,0,14,0,6,0,6,0,,,,,,,,,,,,,,,,,,,,,,,,,,,,,,,,,,,,,,,,,,,,,,,,,,,,840.0368844999466,840.0368844999466,0.008344799978658557,0.11419680016115308,3.0,2.3068825001828372,,,,,,,,,,,,,,9966,Moral,2025-03-09_14h34.03.255,MoralCondition_v2,2022.2.5,29.940998272662426,
14,0,14,0,,,,,,,,,,,,,,,,,,,,,,,,,,,,,,,,,,,,,,,,,,,,,,,,,,,,,,,,,,,,,,842.3698354999069,842.3698354999069,0.0007005000952631235,0.09904120001010597,7.0,4.46622240007855,,,,,,,,9966,Moral,2025-03-09_14h34.03.255,MoralCondition_v2,2022.2.5,29.940998272662426,
15,0,15,0,0,0,0,0,,,,,,,,,,,,,,,,,,,,,846.8701130999252,0.00013899989426136017,0.09949379996396601,852.8698835000396,6.032392399851233,853.0698778999504,853.0698778999504,0.09297679970040917,0.19915189989842474,5.9990899998229,859.1363810999319,859.1363810999319,859.1363810999319,0.0640632996801287,0.16562489978969097,864.8365535000339,865.0698309999425,6.032353799790144,6.132315899711102,871.0697826000396,11.999056399799883,871.1698183999397,871.1698183999397,-0.00011890032328665257,0.1156345997005701,down,0.7541270002257079,871.9864552998915,4.529999569058418e-05,0.09819009993225336,,878.0032776999287,878.0032776999287,0.02556609991006553,0.11471069999970496,1.0,2.2233853000216186,,,,,,,871.1364607999567,871.1364607999567,859.1363810999319,859.1363810999319,,12.098974599735811,6.098988399840891,9966,Moral,2025-03-09_14h34.03.255,MoralCondition_v2,2022.2.5,29.940998272662426,
15,0,15,0,1,0,1,0,,,,,,,,,,,,,,,,,,,,,,,,,,,,,,,,,,,,,,,,,,,,,,,,,,,,880.269757800037,880.269757800037,0.006706599844619632,0.09908179985359311,6.0,1.8267848000396043,,,,,,,,,,,,,,9966,Moral,2025-03-09_14h34.03.255,MoralCondition_v2,2022.2.5,29.940998272662426,
15,0,15,0,2,0,2,0,,,,,,,,,,,,,,,,,,,,,,,,,,,,,,,,,,,,,,,,,,,,,,,,,,,,882.1364541999064,882.1364541999064,0.007329899817705154,0.09823499992489815,5.0,1.3922807001508772,,,,,,,,,,,,,,9966,Moral,2025-03-09_14h34.03.255,MoralCondition_v2,2022.2.5,29.940998272662426,
15,0,15,0,3,0,3,0,,,,,,,,,,,,,,,,,,,,,,,,,,,,,,,,,,,,,,,,,,,,,,,,,,,,883.5695766999852,883.5695766999852,0.007029499858617783,0.09946960001252592,2.0,3.126659599831328,,,,,,,,,,,,,,9966,Moral,2025-03-09_14h34.03.255,MoralCondition_v2,2022.2.5,29.940998272662426,
15,0,15,0,4,0,4,0,,,,,,,,,,,,,,,,,,,,,,,,,,,,,,,,,,,,,,,,,,,,,,,,,,,,886.7366514999885,886.7366514999885,0.006771800108253956,0.09912130003795028,3.0,2.0269619999453425,,,,,,,,,,,,,,9966,Moral,2025-03-09_14h34.03.255,MoralCondition_v2,2022.2.5,29.940998272662426,
15,0,15,0,5,0,5,0,,,,,,,,,,,,,,,,,,,,,,,,,,,,,,,,,,,,,,,,,,,,,,,,,,,,888.8029465998989,888.8029465998989,0.006754300091415644,0.09861700003966689,6.0,1.6263623000122607,,,,,,,,,,,,,,9966,Moral,2025-03-09_14h34.03.255,MoralCondition_v2,2022.2.5,29.940998272662426,
15,0,15,0,6,0,6,0,,,,,,,,,,,,,,,,,,,,,,,,,,,,,,,,,,,,,,,,,,,,,,,,,,,,890.4696017999668,890.4696017999668,0.00766750006005168,0.09779610019177198,2.0,4.0576039999723434,,,,,,,,,,,,,,9966,Moral,2025-03-09_14h34.03.255,MoralCondition_v2,2022.2.5,29.940998272662426,
15,0,15,0,,,,,,,,,,,,,,,,,,,,,,,,,,,,,,,,,,,,,,,,,,,,,,,,,,,,,,,,,,,,,,894.5696474998258,894.5696474998258,0.0007885000668466091,0.09930770006030798,1.0,4.73273010016419,,,,,,,,9966,Moral,2025-03-09_14h34.03.255,MoralCondition_v2,2022.2.5,29.940998272662426,
16,0,16,0,0,0,0,0,,,,,,,,,,,,,,,,,,,,,899.3365558998194,0.0001175999641418457,0.0992004000581801,905.3529838998802,6.0157997000496835,905.5196995998267,905.5196995998267,0.07452619983814657,0.18245079996995628,6.0157775999978185,911.6199701998848,911.6199701998848,911.6199701998848,0.07239319989457726,0.18252829974517226,917.3195799000096,917.5196018000133,6.015837099868804,6.115765599766746,923.5195927999448,12.015766199911013,923.6529169999994,923.6529169999994,0.015808499651029706,0.11569149978458881,up,0.4630267000757158,924.1530994998757,5.13000413775444e-05,0.09789370000362396,930.169773099944,930.169773099944,930.169773099944,0.009142300114035606,0.1145556999836117,2.0,3.0395471998490393,,,,,,,923.6028543999419,923.6028543999419,911.519606199814,911.519606199814,,,,9966,Moral,2025-03-09_14h34.03.255,MoralCondition_v2,2022.2.5,29.940998272662426,
16,0,16,0,1,0,1,0,,,,,,,,,,,,,,,,,,,,,,,,,,,,,,,,,,,,,,,,,,,,,,,,,,,,933.2363260998391,933.2363260998391,0.006938999984413385,0.09910869994200766,2.0,1.1932602000888437,,,,,,,,,,,,,,9966,Moral,2025-03-09_14h34.03.255,MoralCondition_v2,2022.2.5,29.940998272662426,
16,0,16,0,2,0,2,0,,,,,,,,,,,,,,,,,,,,,,,,,,,,,,,,,,,,,,,,,,,,,,,,,,,,934.4695733999833,934.4695733999833,0.006625800160691142,0.09940320020541549,4.0,5.827018300071359,,,,,,,,,,,,,,9966,Moral,2025-03-09_14h34.03.255,MoralCondition_v2,2022.2.5,29.940998272662426,
16,0,16,0,3,0,3,0,,,,,,,,,,,,,,,,,,,,,,,,,,,,,,,,,,,,,,,,,,,,,,,,,,,,940.3361213998869,940.3361213998869,0.006700699916109443,0.09857259993441403,5.0,2.359482100000605,,,,,,,,,,,,,,9966,Moral,2025-03-09_14h34.03.255,MoralCondition_v2,2022.2.5,29.940998272662426,
16,0,16,0,4,0,4,0,,,,,,,,,,,,,,,,,,,,,,,,,,,,,,,,,,,,,,,,,,,,,,,,,,,,942.7361333998851,942.7361333998851,0.0076812999323010445,0.09760420001111925,4.0,1.6912056000437587,,,,,,,,,,,,,,9966,Moral,2025-03-09_14h34.03.255,MoralCondition_v2,2022.2.5,29.940998272662426,
16,0,16,0,5,0,5,0,,,,,,,,,,,,,,,,,,,,,,,,,,,,,,,,,,,,,,,,,,,,,,,,,,,,944.4695913998876,944.4695913998876,0.006737699965015054,0.09916609991341829,2.0,2.3271032001357526,,,,,,,,,,,,,,9966,Moral,2025-03-09_14h34.03.255,MoralCondition_v2,2022.2.5,29.940998272662426,
16,0,16,0,6,0,6,0,,,,,,,,,,,,,,,,,,,,,,,,,,,,,,,,,,,,,,,,,,,,,,,,,,,,946.8360418998636,946.8360418998636,0.007708200020715594,0.09768949984572828,2.0,0.991039999993518,,,,,,,,,,,,,,9966,Moral,2025-03-09_14h34.03.255,MoralCondition_v2,2022.2.5,29.940998272662426,
16,0,16,0,,,,,,,,,,,,,,,,,,,,,,,,,,,,,,,,,,,,,,,,,,,,,,,,,,,,,,,,,,,,,,947.8693044998217,947.8693044998217,0.0020498998928815126,0.09734959993511438,7.0,4.696535299997777,,,,,,,,9966,Moral,2025-03-09_14h34.03.255,MoralCondition_v2,2022.2.5,29.940998272662426,
17,0,17,0,0,0,0,0,,,,,,,,,,,,,,,,,,,,,952.6031918998342,0.00013560010120272636,0.09929020004346967,958.5859666999895,5.999428499955684,958.7530525999609,958.7530525999609,0.03491099993698299,0.14954419992864132,6.015979399904609,964.8859623998869,964.8859623998869,964.8859623998869,0.07205249974504113,0.18265129975043237,970.5860593998805,970.7860472998582,6.0159739998634905,6.115950099891052,976.786188099999,12.016073799692094,976.90252220002,976.90252220002,0.015866799745708704,0.09918919974006712,down,0.3971669003367424,977.3360164000187,4.509999416768551e-05,0.09770280006341636,,983.3526571998373,983.3526571998373,0.02281660004518926,0.11427469993941486,1.0,5.425764899933711,,,,,,,976.8859508000314,976.8859508000314,964.7528466000222,964.7528466000222,6.082499499898404,,,9966,Moral,2025-03-09_14h34.03.255,MoralCondition_v2,2022.2.5,29.940998272662426,
17,0,17,0,1,0,1,0,,,,,,,,,,,,,,,,,,,,,,,,,,,,,,,,,,,,,,,,,,,,,,,,,,,,988.8360788000282,988.8360788000282,0.0077905000653117895,0.11434780014678836,2.0,2.374000000068918,,,,,,,,,,,,,,9966,Moral,2025-03-09_14h34.03.255,MoralCondition_v2,2022.2.5,29.940998272662426,
17,0,17,0,2,0,2,0,,,,,,,,,,,,,,,,,,,,,,,,,,,,,,,,,,,,,,,,,,,,,,,,,,,,991.2359176999889,991.2359176999889,0.007172300014644861,0.09738350007683039,5.0,1.9579825999680907,,,,,,,,,,,,,,9966,Moral,2025-03-09_14h34.03.255,MoralCondition_v2,2022.2.5,29.940998272662426,
17,0,17,0,3,0,3,0,,,,,,,,,,,,,,,,,,,,,,,,,,,,,,,,,,,,,,,,,,,,,,,,,,,,993.2358489998151,993.2358489998151,0.006703400053083897,0.09872590005397797,6.0,2.0596959001850337,,,,,,,,,,,,,,9966,Moral,2025-03-09_14h34.03.255,MoralCondition_v2,2022.2.5,29.940998272662426,
17,0,17,0,4,0,4,0,,,,,,,,,,,,,,,,,,,,,,,,,,,,,,,,,,,,,,,,,,,,,,,,,,,,995.3360527998302,995.3360527998302,0.006630500080063939,0.0991617999970913,2.0,2.0268751000985503,,,,,,,,,,,,,,9966,Moral,2025-03-09_14h34.03.255,MoralCondition_v2,2022.2.5,29.940998272662426,
17,0,17,0,5,0,5,0,,,,,,,,,,,,,,,,,,,,,,,,,,,,,,,,,,,,,,,,,,,,,,,,,,,,997.4024887999985,997.4024887999985,0.0069321999326348305,0.09835919993929565,5.0,2.0924780000932515,,,,,,,,,,,,,,9966,Moral,2025-03-09_14h34.03.255,MoralCondition_v2,2022.2.5,29.940998272662426,
17,0,17,0,6,0,6,0,,,,,,,,,,,,,,,,,,,,,,,,,,,,,,,,,,,,,,,,,,,,,,,,,,,,999.5359237999655,999.5359237999655,0.007108199875801802,0.09813229995779693,6.0,1.4253585999831557,,,,,,,,,,,,,,9966,Moral,2025-03-09_14h34.03.255,MoralCondition_v2,2022.2.5,29.940998272662426,
17,0,17,0,,,,,,,,,,,,,,,,,,,,,,,,,,,,,,,,,,,,,,,,,,,,,,,,,,,,,,,,,,,,,,1001.0027498998679,1001.0027498998679,0.0015482001472264528,0.09735010005533695,1.0,3.830313199898228,,,,,,,,9966,Moral,2025-03-09_14h34.03.255,MoralCondition_v2,2022.2.5,29.940998272662426,
18,0,18,0,0,0,0,0,,,,,,,,,,,,,,,,,,,,,1004.8696299998555,0.0003488999791443348,0.09716340014711022,1010.8691888998728,6.030520700151101,1011.0691557000391,1011.0691557000391,0.09191149985417724,0.1973981000483036,6.030499299988151,1017.1690217999276,1017.1690217999276,1017.1690217999276,0.09410969982855022,0.19714859989471734,1022.8691587999929,1023.0691483998671,6.030496899737045,6.130470699863508,1029.0691104999278,12.030481899855658,1029.2024668999948,1029.2024668999948,0.03067009965889156,0.13046689983457327,down,0.641434500226751,1029.9023772999644,2.2300053387880325e-05,0.09902040008455515,,1035.9363843998872,1035.9363843998872,0.027375099947676063,0.13230509986169636,2.0,5.505976000102237,,,,,,,1029.1690995998215,1029.1690995998215,1017.0691784999799,1017.0691784999799,,,,9966,Moral,2025-03-09_14h34.03.255,MoralCondition_v2,2022.2.5,29.940998272662426,
18,0,18,0,1,0,1,0,,,,,,,,,,,,,,,,,,,,,,,,,,,,,,,,,,,,,,,,,,,,,,,,,,,,1041.4861683000345,1041.4861683000345,0.008032799931243062,0.11406049993820488,4.0,8.673740800004452,,,,,,,,,,,,,,9966,Moral,2025-03-09_14h34.03.255,MoralCondition_v2,2022.2.5,29.940998272662426,
18,0,18,0,2,0,2,0,,,,,,,,,,,,,,,,,,,,,,,,,,,,,,,,,,,,,,,,,,,,,,,,,,,,1050.1856235999148,1050.1856235999148,0.006647699978202581,0.09918139991350472,5.0,1.4269391999114305,,,,,,,,,,,,,,9966,Moral,2025-03-09_14h34.03.255,MoralCondition_v2,2022.2.5,29.940998272662426,
18,0,18,0,3,0,3,0,,,,,,,,,,,,,,,,,,,,,,,,,,,,,,,,,,,,,,,,,,,,,,,,,,,,1051.6524559999816,1051.6524559999816,0.007240800186991692,0.09794720006175339,5.0,2.225201099878177,,,,,,,,,,,,,,9966,Moral,2025-03-09_14h34.03.255,MoralCondition_v2,2022.2.5,29.940998272662426,
18,0,18,0,4,0,4,0,,,,,,,,,,,,,,,,,,,,,,,,,,,,,,,,,,,,,,,,,,,,,,,,,,,,1053.9188771999907,1053.9188771999907,0.00719449995085597,0.09799439995549619,3.0,3.4585184000898153,,,,,,,,,,,,,,9966,Moral,2025-03-09_14h34.03.255,MoralCondition_v2,2022.2.5,29.940998272662426,
18,0,18,0,5,0,5,0,,,,,,,,,,,,,,,,,,,,,,,,,,,,,,,,,,,,,,,,,,,,,,,,,,,,1057.4359579000156,1057.4359579000156,0.007712899940088391,0.11427380004897714,1.0,1.6742302998900414,,,,,,,,,,,,,,9966,Moral,2025-03-09_14h34.03.255,MoralCondition_v2,2022.2.5,29.940998272662426,
18,0,18,0,6,0,6,0,,,,,,,,,,,,,,,,,,,,,,,,,,,,,,,,,,,,,,,,,,,,,,,,,,,,1059.135837199865,1059.135837199865,0.00743320002220571,0.0978844000492245,1.0,1.525128799956292,,,,,,,,,,,,,,9966,Moral,2025-03-09_14h34.03.255,MoralCondition_v2,2022.2.5,29.940998272662426,
18,0,18,0,,,,,,,,,,,,,,,,,,,,,,,,,,,,,,,,,,,,,,,,,,,,,,,,,,,,,,,,,,,,,,1060.7025973999407,1060.7025973999407,0.0016131000593304634,0.0975929000414908,1.0,3.830436500022188,,,,,,,,9966,Moral,2025-03-09_14h34.03.255,MoralCondition_v2,2022.2.5,29.940998272662426,
19,0,19,0,0,0,0,0,,,,,,,,,,,,,,,,,,,,,1064.5690678998362,0.00039689987897872925,0.09748049988411367,1070.5857180999592,6.014036199776456,1070.7523089998867,1070.7523089998867,0.07442659977823496,0.1807398998644203,6.014031199738383,1076.8523797998205,1076.8523797998205,1076.8523797998205,0.07083939970470965,0.18084049969911575,1082.5522104999982,1082.7522470999975,6.0140292996075,6.114042399683967,1088.7522318998817,12.014010299695656,1088.885537999915,1088.885537999915,0.01437969971448183,0.1139270996209234,down,0.8148511000908911,1089.7522073998116,4.1899969801306725e-05,0.0979980998672545,1095.768997499952,1095.768997499952,1095.768997499952,0.009304699953645468,0.11474049999378622,2.0,4.173472400056198,,,,,,,1088.8524316998664,1088.8524316998664,1076.7522305999883,1076.7522305999883,,,,9966,Moral,2025-03-09_14h34.03.255,MoralCondition_v2,2022.2.5,29.940998272662426,
19,0,19,0,1,0,1,0,,,,,,,,,,,,,,,,,,,,,,,,,,,,,,,,,,,,,,,,,,,,,,,,,,,,1099.9686709998641,1099.9686709998641,0.007237500045448542,0.0979366002138704,1.0,7.891627300065011,,,,,,,,,,,,,,9966,Moral,2025-03-09_14h34.03.255,MoralCondition_v2,2022.2.5,29.940998272662426,
19,0,19,0,2,0,2,0,,,,,,,,,,,,,,,,,,,,,,,,,,,,,,,,,,,,,,,,,,,,,,,,,,,,1107.9022266999818,1107.9022266999818,0.007495499914512038,0.09772319998592138,5.0,3.35803690017201,,,,,,,,,,,,,,9966,Moral,2025-03-09_14h34.03.255,MoralCondition_v2,2022.2.5,29.940998272662426,
19,0,19,0,3,0,3,0,,,,,,,,,,,,,,,,,,,,,,,,,,,,,,,,,,,,,,,,,,,,,,,,,,,,1111.30217489996,1111.30217489996,0.006848999997600913,0.09919840004295111,1.0,1.6268837000243366,,,,,,,,,,,,,,9966,Moral,2025-03-09_14h34.03.255,MoralCondition_v2,2022.2.5,29.940998272662426,
19,0,19,0,4,0,4,0,,,,,,,,,,,,,,,,,,,,,,,,,,,,,,,,,,,,,,,,,,,,,,,,,,,,1112.968649999937,1112.968649999937,0.007771500153467059,0.09789410000666976,5.0,2.358006700174883,,,,,,,,,,,,,,9966,Moral,2025-03-09_14h34.03.255,MoralCondition_v2,2022.2.5,29.940998272662426,
19,0,19,0,5,0,5,0,,,,,,,,,,,,,,,,,,,,,,,,,,,,,,,,,,,,,,,,,,,,,,,,,,,,1115.3689029999077,1115.3689029999077,0.007502499967813492,0.09783510002307594,6.0,1.7245298998896033,,,,,,,,,,,,,,9966,Moral,2025-03-09_14h34.03.255,MoralCondition_v2,2022.2.5,29.940998272662426,
19,0,19,0,6,0,6,0,,,,,,,,,,,,,,,,,,,,,,,,,,,,,,,,,,,,,,,,,,,,,,,,,,,,1117.1352575998753,1117.1352575998753,0.00667180004529655,0.09920720010995865,7.0,1.7603484001010656,,,,,,,,,,,,,,9966,Moral,2025-03-09_14h34.03.255,MoralCondition_v2,2022.2.5,29.940998272662426,
19,0,19,0,,,,,,,,,,,,,,,,,,,,,,,,,,,,,,,,,,,,,,,,,,,,,,,,,,,,,,,,,,,,,,1118.9354174998589,1118.9354174998589,0.0006942001637071371,0.09916310012340546,1.0,7.166445800103247,,,,,,,,9966,Moral,2025-03-09_14h34.03.255,MoralCondition_v2,2022.2.5,29.940998272662426,
