loop.thisRepN,loop.thisTrialN,loop.thisN,loop.thisIndex,evaluate_all_emotions.thisRepN,evaluate_all_emotions.thisTrialN,evaluate_all_emotions.thisN,evaluate_all_emotions.thisIndex,sync_beep_1.started,p_port.started,p_port.stopped,sync_beep_1.stopped,sync_beep_2.started,sync_beep_2.stopped,sync_beep_3.started,sync_beep_3.stopped,sync_beep_4.started,sync_beep_4.stopped,baseline.started,p_port_2.started,p_port_2.stopped,p_port_3.started,baseline.stopped,Game_Start_Text.started,p_port_4.started,p_port_4.stopped,key_resp.started,key_resp.keys,key_resp.rt,fixation_cross.started,p_port_5.started,p_port_5.stopped,fixation_cross.stopped,p_port_6.started,player_image_intro.started,player_name_intro.started,p_port_7.started,p_port_7.stopped,p_port_8.started,player_image_offer.started,player_name_offer.started,proposed_split.started,p_port_9.started,p_port_9.stopped,proposed_split.stopped,accept_reject.started,p_port_15.started,p_port_15.stopped,accept_reject.stopped,p_port_10.started,arrow_instructions.started,offer_choice.started,p_port_11.started,p_port_11.stopped,offer_choice.keys,offer_choice.rt,Instructions_Affinity_Score.started,p_port_12.started,p_port_12.stopped,Instructions_Affinity_Score.stopped,Emotion_Image.started,AffinityScore.started,p_port_13.started,p_port_13.stopped,AffinityScore.response,AffinityScore.rt,Instruction.started,Moral_Disgust_Score.started,p_port_14.started,p_port_14.stopped,Moral_Disgust_Score.response,Moral_Disgust_Score.rt,player_image_intro.stopped,player_name_intro.stopped,player_image_offer.stopped,player_name_offer.stopped,p_port_6.stopped,p_port_8.stopped,p_port_10.stopped,participant,session,date,expName,psychopyVersion,frameRate,
,,,,,,,,23.40924401469529,0.0009039007127285004,0.11741719953715801,23.71091039851308,24.011027229204775,24.310974799096584,24.594477928429843,24.92792509868741,25.194352728500963,25.54438049905002,25.54438049905002,0.0015195012092590332,0.1174171008169651,15.000685701146722,40.56108140014112,40.627845499664545,0.0008739009499549866,0.10071430169045925,41.11109829880297,space,2.417017102241516,,,,,,,,,,,,,,,,,,,,,,,,,,,,,,,,,,,,,,,,,,,,,,,,,,,9978,Moral,2024-07-01_17h22.15.092,MoralCondition_v2,2022.2.5,29.96497987415232,
0,0,0,0,0,0,0,0,,,,,,,,,,,,,,,,,,,,,,43.56098559871316,0.007343100383877754,0.09777829982340336,49.57772129960358,6.014435600489378,49.84466119855642,49.84466119855642,0.12551419995725155,0.2812627013772726,6.014392601326108,55.87789439968765,55.87789439968765,55.87789439968765,0.07832310162484646,0.2144594006240368,61.57772249914706,61.74456749856472,6.014639200642705,6.114467201754451,67.74438989907503,12.014445800334215,67.87777119874954,67.87777119874954,0.014584101736545563,0.11437440104782581,down,2.0103136003017426,69.92761999927461,3.629922866821289e-05,0.08696769922971725,75.944246198982,75.944246198982,75.944246198982,0.0010972004383802414,0.10375759936869144,4.0,5.936850801110268,,,,,,,,,,,,,,9978,Moral,2024-07-01_17h22.15.092,MoralCondition_v2,2022.2.5,29.96497987415232,
0,0,0,0,1,0,1,0,,,,,,,,,,,,,,,,,,,,,,,,,,,,,,,,,,,,,,,,,,,,,,,,,,,,,81.91110789962113,81.91110789962113,0.009697198867797852,0.09712749905884266,2.0,7.438631199300289,,,,,,,,,,,,,,9978,Moral,2024-07-01_17h22.15.092,MoralCondition_v2,2022.2.5,29.96497987415232,
0,0,0,0,2,0,2,0,,,,,,,,,,,,,,,,,,,,,,,,,,,,,,,,,,,,,,,,,,,,,,,,,,,,,89.41133379936218,89.41133379936218,0.017070401459932327,0.1162062007933855,5.0,3.899947199970484,,,,,,,,,,,,,,9978,Moral,2024-07-01_17h22.15.092,MoralCondition_v2,2022.2.5,29.96497987415232,
0,0,0,0,3,0,3,0,,,,,,,,,,,,,,,,,,,,,,,,,,,,,,,,,,,,,,,,,,,,,,,,,,,,,93.34424799866974,93.34424799866974,0.008409399539232254,0.09893839992582798,1.0,5.291634699329734,,,,,,,,,,,,,,9978,Moral,2024-07-01_17h22.15.092,MoralCondition_v2,2022.2.5,29.96497987415232,
0,0,0,0,4,0,4,0,,,,,,,,,,,,,,,,,,,,,,,,,,,,,,,,,,,,,,,,,,,,,,,,,,,,,98.67765679955482,98.67765679955482,0.008168099448084831,0.0993248000741005,2.0,7.5587166007608175,,,,,,,,,,,,,,9978,Moral,2024-07-01_17h22.15.092,MoralCondition_v2,2022.2.5,29.96497987415232,
0,0,0,0,5,0,5,0,,,,,,,,,,,,,,,,,,,,,,,,,,,,,,,,,,,,,,,,,,,,,,,,,,,,,106.27755919843912,106.27755919843912,0.010040398687124252,0.09759159944951534,5.0,4.88845600001514,,,,,,,,,,,,,,9978,Moral,2024-07-01_17h22.15.092,MoralCondition_v2,2022.2.5,29.96497987415232,
0,0,0,0,6,0,6,0,,,,,,,,,,,,,,,,,,,,,,,,,,,,,,,,,,,,,,,,,,,,,,,,,,,,,111.22781599871814,111.22781599871814,0.0111324992030859,0.11434770002961159,2.0,2.7377001997083426,,,,,,,,,,,,,,9978,Moral,2024-07-01_17h22.15.092,MoralCondition_v2,2022.2.5,29.96497987415232,
0,0,0,0,,,,,,,,,,,,,,,,,,,,,,,,,,,,,,,,,,,,,,,,,,,,,,,,,,,,,,,,,,,,,,,113.99429919943213,113.99429919943213,0.0015030000358819962,0.0977621991187334,2.0,6.430881900712848,,,,,,,,9978,Moral,2024-07-01_17h22.15.092,MoralCondition_v2,2022.2.5,29.96497987415232,
1,0,1,0,0,0,0,0,,,,,,,,,,,,,,,,,,,,,,120.46110959909856,0.00024800002574920654,0.09787379950284958,126.47765529900789,6.014548800885677,126.69468399882317,126.69468399882317,0.11554630100727081,0.23130310140550137,6.03125880099833,132.77763309888542,132.77763309888542,132.77763309888542,0.11301380023360252,0.2147729005664587,138.47769009880722,138.6444197986275,6.0146006010472775,6.114501401782036,144.64439819939435,12.014562100172043,144.77770089916885,144.77770089916885,0.014824101701378822,0.11448870226740837,down,1.0782916005700827,145.89434099942446,2.32011079788208e-05,0.1119781993329525,,151.9276588987559,151.9276588987559,0.028392300009727478,0.13231969997286797,2.0,2.9382077995687723,,,,,,,,,,,,,,9978,Moral,2024-07-01_17h22.15.092,MoralCondition_v2,2022.2.5,29.96497987415232,
1,0,1,0,1,0,1,0,,,,,,,,,,,,,,,,,,,,,,,,,,,,,,,,,,,,,,,,,,,,,,,,,,,,,154.89430169947445,154.89430169947445,0.007924100384116173,0.09764309972524643,5.0,2.2907204013317823,,,,,,,,,,,,,,9978,Moral,2024-07-01_17h22.15.092,MoralCondition_v2,2022.2.5,29.96497987415232,
1,0,1,0,2,0,2,0,,,,,,,,,,,,,,,,,,,,,,,,,,,,,,,,,,,,,,,,,,,,,,,,,,,,,157.2446826994419,157.2446826994419,0.008430000394582748,0.11442070081830025,2.0,1.940293300896883,,,,,,,,,,,,,,9978,Moral,2024-07-01_17h22.15.092,MoralCondition_v2,2022.2.5,29.96497987415232,
1,0,1,0,3,0,3,0,,,,,,,,,,,,,,,,,,,,,,,,,,,,,,,,,,,,,,,,,,,,,,,,,,,,,159.21107560023665,159.21107560023665,0.0067808013409376144,0.09919970110058784,1.0,3.060273800045252,,,,,,,,,,,,,,9978,Moral,2024-07-01_17h22.15.092,MoralCondition_v2,2022.2.5,29.96497987415232,
1,0,1,0,4,0,4,0,,,,,,,,,,,,,,,,,,,,,,,,,,,,,,,,,,,,,,,,,,,,,,,,,,,,,162.31100889854133,162.31100889854133,0.008241400122642517,0.09775799885392189,5.0,3.223979299888015,,,,,,,,,,,,,,9978,Moral,2024-07-01_17h22.15.092,MoralCondition_v2,2022.2.5,29.96497987415232,
1,0,1,0,5,0,5,0,,,,,,,,,,,,,,,,,,,,,,,,,,,,,,,,,,,,,,,,,,,,,,,,,,,,,165.57791639864445,165.57791639864445,0.00642940029501915,0.0985288005322218,2.0,2.7269898001104593,,,,,,,,,,,,,,9978,Moral,2024-07-01_17h22.15.092,MoralCondition_v2,2022.2.5,29.96497987415232,
1,0,1,0,6,0,6,0,,,,,,,,,,,,,,,,,,,,,,,,,,,,,,,,,,,,,,,,,,,,,,,,,,,,,168.34427809901536,168.34427809901536,0.006284799426794052,0.09896389953792095,2.0,3.52709829993546,,,,,,,,,,,,,,9978,Moral,2024-07-01_17h22.15.092,MoralCondition_v2,2022.2.5,29.96497987415232,
1,0,1,0,,,,,,,,,,,,,,,,,,,,,,,,,,,,,,,,,,,,,,,,,,,,,,,,,,,,,,,,,,,,,,,171.91101939976215,171.91101939976215,0.0017638001590967178,0.09738250076770782,2.0,9.996884798631072,,,,,,,,9978,Moral,2024-07-01_17h22.15.092,MoralCondition_v2,2022.2.5,29.96497987415232,
2,0,2,0,0,0,0,0,,,,,,,,,,,,,,,,,,,,,,181.94453079998493,0.00015529990196228027,0.09911059960722923,187.96102749928832,6.015734700486064,188.1277107987553,188.1277107987553,0.07833730056881905,0.1826447993516922,6.015815399587154,194.22762539982796,194.22762539982796,194.22762539982796,0.06891320087015629,0.1824118010699749,199.92797299847007,200.12776799872518,6.015844700857997,6.115725699812174,206.12754119932652,12.015499399974942,206.24413099884987,206.24413099884987,0.0154534000903368,0.09898630157113075,down,0.9553241021931171,207.24435979872942,3.5800039768218994e-05,0.09812209941446781,213.261291699484,213.261291699484,213.261291699484,0.009127698838710785,0.11463549919426441,5.0,3.839775498956442,,,,,,,194.12773139961064,194.12773139961064,206.21083599887788,206.21083599887788,,,,9978,Moral,2024-07-01_17h22.15.092,MoralCondition_v2,2022.2.5,29.96497987415232,
2,0,2,0,1,0,1,0,,,,,,,,,,,,,,,,,,,,,,,,,,,,,,,,,,,,,,,,,,,,,,,,,,,,,217.14433169923723,217.14433169923723,0.008112799376249313,0.11424550041556358,2.0,2.2404597997665405,,,,,,,,,,,,,,9978,Moral,2024-07-01_17h22.15.092,MoralCondition_v2,2022.2.5,29.96497987415232,
2,0,2,0,2,0,2,0,,,,,,,,,,,,,,,,,,,,,,,,,,,,,,,,,,,,,,,,,,,,,,,,,,,,,219.41095399856567,219.41095399856567,0.007528599351644516,0.09804509952664375,2.0,2.391820900142193,,,,,,,,,,,,,,9978,Moral,2024-07-01_17h22.15.092,MoralCondition_v2,2022.2.5,29.96497987415232,
2,0,2,0,3,0,3,0,,,,,,,,,,,,,,,,,,,,,,,,,,,,,,,,,,,,,,,,,,,,,,,,,,,,,221.8443149998784,221.8443149998784,0.006751200184226036,0.0987526997923851,2.0,3.726544199511409,,,,,,,,,,,,,,9978,Moral,2024-07-01_17h22.15.092,MoralCondition_v2,2022.2.5,29.96497987415232,
2,0,2,0,4,0,4,0,,,,,,,,,,,,,,,,,,,,,,,,,,,,,,,,,,,,,,,,,,,,,,,,,,,,,225.61107609979808,225.61107609979808,0.007225899025797844,0.09805469959974289,2.0,2.258611898869276,,,,,,,,,,,,,,9978,Moral,2024-07-01_17h22.15.092,MoralCondition_v2,2022.2.5,29.96497987415232,
2,0,2,0,5,0,5,0,,,,,,,,,,,,,,,,,,,,,,,,,,,,,,,,,,,,,,,,,,,,,,,,,,,,,227.91104600019753,227.91104600019753,0.006889300420880318,0.09828259982168674,2.0,3.525774199515581,,,,,,,,,,,,,,9978,Moral,2024-07-01_17h22.15.092,MoralCondition_v2,2022.2.5,29.96497987415232,
2,0,2,0,6,0,6,0,,,,,,,,,,,,,,,,,,,,,,,,,,,,,,,,,,,,,,,,,,,,,,,,,,,,,231.47777379862964,231.47777379862964,0.007443699985742569,0.0975101999938488,3.0,7.224540000781417,,,,,,,,,,,,,,9978,Moral,2024-07-01_17h22.15.092,MoralCondition_v2,2022.2.5,29.96497987415232,
2,0,2,0,,,,,,,,,,,,,,,,,,,,,,,,,,,,,,,,,,,,,,,,,,,,,,,,,,,,,,,,,,,,,,,238.74437709897757,238.74437709897757,0.001316700130701065,0.0976887010037899,1.0,8.031259000301361,,,,,,,,9978,Moral,2024-07-01_17h22.15.092,MoralCondition_v2,2022.2.5,29.96497987415232,
3,0,3,0,0,0,0,0,,,,,,,,,,,,,,,,,,,,,,246.8113612998277,0.0002955012023448944,0.09757880121469498,252.82770929858088,6.014179499819875,253.06128799915314,253.06128799915314,0.1331401001662016,0.2478277012705803,6.014220401644707,259.094421800226,259.094421800226,259.094421800226,0.08346300199627876,0.181020000949502,264.7942650988698,264.99439119920135,6.014263601973653,6.114085901528597,270.9943607002497,12.014170002192259,271.1276314985007,271.1276314985007,0.014301102608442307,0.11412770114839077,up,1.000380901619792,272.1611215993762,4.849955439567566e-05,0.09711950086057186,,278.19444399885833,278.19444399885833,0.0256981011480093,0.13056549988687038,5.0,3.5057811997830868,,,,,,,,,271.09435959905386,271.09435959905386,,,,9978,Moral,2024-07-01_17h22.15.092,MoralCondition_v2,2022.2.5,29.96497987415232,
3,0,3,0,1,0,1,0,,,,,,,,,,,,,,,,,,,,,,,,,,,,,,,,,,,,,,,,,,,,,,,,,,,,,281.74443960003555,281.74443960003555,0.010805400088429451,0.11434880085289478,1.0,2.9049561005085707,,,,,,,,,,,,,,9978,Moral,2024-07-01_17h22.15.092,MoralCondition_v2,2022.2.5,29.96497987415232,
3,0,3,0,2,0,2,0,,,,,,,,,,,,,,,,,,,,,,,,,,,,,,,,,,,,,,,,,,,,,,,,,,,,,284.69456049986184,284.69456049986184,0.00854329951107502,0.11436000093817711,1.0,3.5403901990503073,,,,,,,,,,,,,,9978,Moral,2024-07-01_17h22.15.092,MoralCondition_v2,2022.2.5,29.96497987415232,
3,0,3,0,3,0,3,0,,,,,,,,,,,,,,,,,,,,,,,,,,,,,,,,,,,,,,,,,,,,,,,,,,,,,288.2609349992126,288.2609349992126,0.009996399283409119,0.09772089868783951,6.0,2.221952499821782,,,,,,,,,,,,,,9978,Moral,2024-07-01_17h22.15.092,MoralCondition_v2,2022.2.5,29.96497987415232,
3,0,3,0,4,0,4,0,,,,,,,,,,,,,,,,,,,,,,,,,,,,,,,,,,,,,,,,,,,,,,,,,,,,,290.5443460997194,290.5443460997194,0.008913999423384666,0.1131667010486126,2.0,4.472161101177335,,,,,,,,,,,,,,9978,Moral,2024-07-01_17h22.15.092,MoralCondition_v2,2022.2.5,29.96497987415232,
3,0,3,0,5,0,5,0,,,,,,,,,,,,,,,,,,,,,,,,,,,,,,,,,,,,,,,,,,,,,,,,,,,,,295.0441429000348,295.0441429000348,0.007510300725698471,0.097579101100564,1.0,2.491786999627948,,,,,,,,,,,,,,9978,Moral,2024-07-01_17h22.15.092,MoralCondition_v2,2022.2.5,29.96497987415232,
3,0,3,0,6,0,6,0,,,,,,,,,,,,,,,,,,,,,,,,,,,,,,,,,,,,,,,,,,,,,,,,,,,,,297.5777272991836,297.5777272991836,0.008342700079083443,0.09751619957387447,3.0,5.223589899018407,,,,,,,,,,,,,,9978,Moral,2024-07-01_17h22.15.092,MoralCondition_v2,2022.2.5,29.96497987415232,
3,0,3,0,,,,,,,,,,,,,,,,,,,,,,,,,,,,,,,,,,,,,,,,,,,,,,,,,,,,,,,,,,,,,,,302.8442652989179,302.8442652989179,0.0011889990419149399,0.09793270006775856,7.0,5.431600799784064,,,,,,,,9978,Moral,2024-07-01_17h22.15.092,MoralCondition_v2,2022.2.5,29.96497987415232,
4,0,4,0,0,0,0,0,,,,,,,,,,,,,,,,,,,,,,308.31108650006354,0.000546799972653389,0.09748880006372929,314.294191500172,6.013997100293636,314.47802409902215,314.47802409902215,0.05673230066895485,0.1642781998962164,6.031024901196361,320.59449269995093,320.59449269995093,320.59449269995093,0.06985610164701939,0.1810832004994154,326.2943648993969,326.4944205991924,6.014261601492763,6.114042202010751,332.4943345990032,12.014176901429892,332.6276452988386,332.6276452988386,0.014342401176691055,0.11417720094323158,up,6.595832102000713,339.26106490008533,4.3800100684165955e-05,0.09779249876737595,345.2776900995523,345.2776900995523,345.2776900995523,0.007859699428081512,0.11443349905312061,3.0,7.141086898744106,,,,,,,320.46103929914534,320.46103929914534,332.59432209841907,332.59432209841907,6.097378900274634,,,9978,Moral,2024-07-01_17h22.15.092,MoralCondition_v2,2022.2.5,29.96497987415232,
4,0,4,0,1,0,1,0,,,,,,,,,,,,,,,,,,,,,,,,,,,,,,,,,,,,,,,,,,,,,,,,,,,,,352.44421299919486,352.44421299919486,0.006415700539946556,0.09914360009133816,2.0,3.39363850094378,,,,,,,,,,,,,,9978,Moral,2024-07-01_17h22.15.092,MoralCondition_v2,2022.2.5,29.96497987415232,
4,0,4,0,2,0,2,0,,,,,,,,,,,,,,,,,,,,,,,,,,,,,,,,,,,,,,,,,,,,,,,,,,,,,355.8776631001383,355.8776631001383,0.00862099975347519,0.09826900064945221,5.0,2.9911865014582872,,,,,,,,,,,,,,9978,Moral,2024-07-01_17h22.15.092,MoralCondition_v2,2022.2.5,29.96497987415232,
4,0,4,0,3,0,3,0,,,,,,,,,,,,,,,,,,,,,,,,,,,,,,,,,,,,,,,,,,,,,,,,,,,,,358.9109985996038,358.9109985996038,0.006213400512933731,0.09902780130505562,5.0,4.660419501364231,,,,,,,,,,,,,,9978,Moral,2024-07-01_17h22.15.092,MoralCondition_v2,2022.2.5,29.96497987415232,
4,0,4,0,4,0,4,0,,,,,,,,,,,,,,,,,,,,,,,,,,,,,,,,,,,,,,,,,,,,,,,,,,,,,363.6110152993351,363.6110152993351,0.007216401398181915,0.09773310087621212,2.0,4.158225601539016,,,,,,,,,,,,,,9978,Moral,2024-07-01_17h22.15.092,MoralCondition_v2,2022.2.5,29.96497987415232,
4,0,4,0,5,0,5,0,,,,,,,,,,,,,,,,,,,,,,,,,,,,,,,,,,,,,,,,,,,,,,,,,,,,,367.81096549890935,367.81096549890935,0.006339600309729576,0.09911900013685226,2.0,3.8272019010037184,,,,,,,,,,,,,,9978,Moral,2024-07-01_17h22.15.092,MoralCondition_v2,2022.2.5,29.96497987415232,
4,0,4,0,6,0,6,0,,,,,,,,,,,,,,,,,,,,,,,,,,,,,,,,,,,,,,,,,,,,,,,,,,,,,371.67754280008376,371.67754280008376,0.0063765998929739,0.09747730009257793,5.0,3.825644599273801,,,,,,,,,,,,,,9978,Moral,2024-07-01_17h22.15.092,MoralCondition_v2,2022.2.5,29.96497987415232,
4,0,4,0,,,,,,,,,,,,,,,,,,,,,,,,,,,,,,,,,,,,,,,,,,,,,,,,,,,,,,,,,,,,,,,375.5443548988551,375.5443548988551,0.0011906009167432785,0.09832410141825676,2.0,8.73158779926598,,,,,,,,9978,Moral,2024-07-01_17h22.15.092,MoralCondition_v2,2022.2.5,29.96497987415232,
5,0,5,0,0,0,0,0,,,,,,,,,,,,,,,,,,,,,,384.3110001999885,0.00028910115361213684,0.09809060022234917,390.2940924987197,6.0145164001733065,390.61083659902215,390.61083659902215,0.19564290158450603,0.29836740158498287,6.031551901251078,396.6110311988741,396.6110311988741,396.6110311988741,0.09533060155808926,0.19820060208439827,402.3109801989049,402.5109640993178,6.031472001224756,6.131378902122378,408.5108332987875,12.03131540119648,408.6442701984197,408.6442701984197,0.031595902517437935,0.1313995011150837,down,1.3548639006912708,410.0442893989384,4.62997704744339e-05,0.09776940010488033,416.04442279972136,416.04442279972136,416.04442279972136,0.008732398971915245,0.0977437999099493,2.0,7.32348470017314,,,,,,,,,408.61091359891,408.61091359891,6.09795780107379,,,9978,Moral,2024-07-01_17h22.15.092,MoralCondition_v2,2022.2.5,29.96497987415232,
5,0,5,0,1,0,1,0,,,,,,,,,,,,,,,,,,,,,,,,,,,,,,,,,,,,,,,,,,,,,,,,,,,,,423.41080280020833,423.41080280020833,0.007727399468421936,0.09908199869096279,4.0,4.125702099874616,,,,,,,,,,,,,,9978,Moral,2024-07-01_17h22.15.092,MoralCondition_v2,2022.2.5,29.96497987415232,
5,0,5,0,2,0,2,0,,,,,,,,,,,,,,,,,,,,,,,,,,,,,,,,,,,,,,,,,,,,,,,,,,,,,427.57782609947026,427.57782609947026,0.00704210065305233,0.0980370007455349,2.0,3.6921318992972374,,,,,,,,,,,,,,9978,Moral,2024-07-01_17h22.15.092,MoralCondition_v2,2022.2.5,29.96497987415232,
5,0,5,0,3,0,3,0,,,,,,,,,,,,,,,,,,,,,,,,,,,,,,,,,,,,,,,,,,,,,,,,,,,,,431.31075729988515,431.31075729988515,0.0075508002191782,0.09739989973604679,2.0,5.391241800040007,,,,,,,,,,,,,,9978,Moral,2024-07-01_17h22.15.092,MoralCondition_v2,2022.2.5,29.96497987415232,
5,0,5,0,4,0,4,0,,,,,,,,,,,,,,,,,,,,,,,,,,,,,,,,,,,,,,,,,,,,,,,,,,,,,436.74411650002,436.74411650002,0.007465800270438194,0.09769469872117043,2.0,3.6248845998197794,,,,,,,,,,,,,,9978,Moral,2024-07-01_17h22.15.092,MoralCondition_v2,2022.2.5,29.96497987415232,
5,0,5,0,5,0,5,0,,,,,,,,,,,,,,,,,,,,,,,,,,,,,,,,,,,,,,,,,,,,,,,,,,,,,440.41089789941907,440.41089789941907,0.0066276006400585175,0.09917050041258335,3.0,4.827011598274112,,,,,,,,,,,,,,9978,Moral,2024-07-01_17h22.15.092,MoralCondition_v2,2022.2.5,29.96497987415232,
5,0,5,0,6,0,6,0,,,,,,,,,,,,,,,,,,,,,,,,,,,,,,,,,,,,,,,,,,,,,,,,,,,,,445.2944459989667,445.2944459989667,0.007796298712491989,0.11428119987249374,5.0,7.474363099783659,,,,,,,,,,,,,,9978,Moral,2024-07-01_17h22.15.092,MoralCondition_v2,2022.2.5,29.96497987415232,
5,0,5,0,,,,,,,,,,,,,,,,,,,,,,,,,,,,,,,,,,,,,,,,,,,,,,,,,,,,,,,,,,,,,,,452.7941982988268,452.7941982988268,0.0008359998464584351,0.09856790117919445,1.0,10.065701801329851,,,,,,,,9978,Moral,2024-07-01_17h22.15.092,MoralCondition_v2,2022.2.5,29.96497987415232,
6,0,6,0,0,0,0,0,,,,,,,,,,,,,,,,,,,,,,462.8944175001234,0.0001625996083021164,0.09930229932069778,468.9108600988984,6.01589659973979,469.0941766984761,469.0941766984761,0.09291129931807518,0.19925909861922264,5.999209700152278,475.1608955990523,475.1608955990523,475.1608955990523,0.05696449987590313,0.16607609950006008,480.86088410019875,481.0608849991113,5.999260099604726,6.099207699298859,487.06098299846053,11.999347999691963,487.1942838001996,487.1942838001996,4.510022699832916e-05,0.09912900067865849,up,1.2690023016184568,488.5108601991087,4.4601038098335266e-05,0.09789960086345673,,494.5444443002343,494.5444443002343,0.0260281004011631,0.1313480008393526,5.0,5.506257200613618,,,,,,,475.1608955990523,475.1608955990523,487.1608812995255,487.1608812995255,,6.099186599254608,12.099258599802852,9978,Moral,2024-07-01_17h22.15.092,MoralCondition_v2,2022.2.5,29.96497987415232,
6,0,6,0,1,0,1,0,,,,,,,,,,,,,,,,,,,,,,,,,,,,,,,,,,,,,,,,,,,,,,,,,,,,,500.0772875994444,500.0772875994444,0.007333701476454735,0.09750710055232048,1.0,2.124704899266362,,,,,,,,,,,,,,9978,Moral,2024-07-01_17h22.15.092,MoralCondition_v2,2022.2.5,29.96497987415232,
6,0,6,0,2,0,2,0,,,,,,,,,,,,,,,,,,,,,,,,,,,,,,,,,,,,,,,,,,,,,,,,,,,,,502.24399549886584,502.24399549886584,0.006383700296282768,0.09924419969320297,6.0,2.528549399226904,,,,,,,,,,,,,,9978,Moral,2024-07-01_17h22.15.092,MoralCondition_v2,2022.2.5,29.96497987415232,
6,0,6,0,3,0,3,0,,,,,,,,,,,,,,,,,,,,,,,,,,,,,,,,,,,,,,,,,,,,,,,,,,,,,504.8106870986521,504.8106870986521,0.008005699142813683,0.09858609922230244,1.0,3.025082800537348,,,,,,,,,,,,,,9978,Moral,2024-07-01_17h22.15.092,MoralCondition_v2,2022.2.5,29.96497987415232,
6,0,6,0,4,0,4,0,,,,,,,,,,,,,,,,,,,,,,,,,,,,,,,,,,,,,,,,,,,,,,,,,,,,,507.8942428994924,507.8942428994924,0.008162399753928185,0.11367869935929775,4.0,3.7065757010132074,,,,,,,,,,,,,,9978,Moral,2024-07-01_17h22.15.092,MoralCondition_v2,2022.2.5,29.96497987415232,
6,0,6,0,5,0,5,0,,,,,,,,,,,,,,,,,,,,,,,,,,,,,,,,,,,,,,,,,,,,,,,,,,,,,511.6275928001851,511.6275928001851,0.007402200251817703,0.0977277010679245,1.0,8.891528500244021,,,,,,,,,,,,,,9978,Moral,2024-07-01_17h22.15.092,MoralCondition_v2,2022.2.5,29.96497987415232,
6,0,6,0,6,0,6,0,,,,,,,,,,,,,,,,,,,,,,,,,,,,,,,,,,,,,,,,,,,,,,,,,,,,,520.5608037002385,520.5608037002385,0.008045800030231476,0.09795179963111877,1.0,1.62437860108912,,,,,,,,,,,,,,9978,Moral,2024-07-01_17h22.15.092,MoralCondition_v2,2022.2.5,29.96497987415232,
6,0,6,0,,,,,,,,,,,,,,,,,,,,,,,,,,,,,,,,,,,,,,,,,,,,,,,,,,,,,,,,,,,,,,,522.2275547999889,522.2275547999889,0.001260301098227501,0.09843949973583221,7.0,2.7316871993243694,,,,,,,,9978,Moral,2024-07-01_17h22.15.092,MoralCondition_v2,2022.2.5,29.96497987415232,
7,0,7,0,0,0,0,0,,,,,,,,,,,,,,,,,,,,,,524.9942661002278,0.00016110017895698547,0.09927459992468357,530.9942901991308,5.999244399368763,531.1606888994575,531.1606888994575,0.06542870029807091,0.16609290055930614,5.9992231000214815,537.2606590986252,537.2606590986252,537.2606590986252,0.06301289983093739,0.16587219946086407,542.9607419986278,543.1607475988567,5.999251499772072,6.099247299134731,549.1607424989343,11.99928029999137,549.2940779998899,549.2940779998899,3.82009893655777e-05,0.099167600274086,down,2.2575779017060995,551.5940428990871,4.900060594081879e-05,0.09785979986190796,557.5945200994611,557.5945200994611,557.5945200994611,0.008985500782728195,0.09781539998948574,6.0,4.456680899485946,,,,,,,537.1607622988522,537.1607622988522,549.2607327997684,549.2607327997684,6.099250098690391,6.099275199696422,12.099261399358511,9978,Moral,2024-07-01_17h22.15.092,MoralCondition_v2,2022.2.5,29.96497987415232,
7,0,7,0,1,0,1,0,,,,,,,,,,,,,,,,,,,,,,,,,,,,,,,,,,,,,,,,,,,,,,,,,,,,,562.0940138995647,562.0940138995647,0.0062731001526117325,0.09908370114862919,3.0,2.6270263008773327,,,,,,,,,,,,,,9978,Moral,2024-07-01_17h22.15.092,MoralCondition_v2,2022.2.5,29.96497987415232,
7,0,7,0,2,0,2,0,,,,,,,,,,,,,,,,,,,,,,,,,,,,,,,,,,,,,,,,,,,,,,,,,,,,,564.7607194986194,564.7607194986194,0.00704289972782135,0.09787479974329472,2.0,1.992001000791788,,,,,,,,,,,,,,9978,Moral,2024-07-01_17h22.15.092,MoralCondition_v2,2022.2.5,29.96497987415232,
7,0,7,0,3,0,3,0,,,,,,,,,,,,,,,,,,,,,,,,,,,,,,,,,,,,,,,,,,,,,,,,,,,,,566.7939821984619,566.7939821984619,0.007659999653697014,0.09803799912333488,5.0,2.6914518009871244,,,,,,,,,,,,,,9978,Moral,2024-07-01_17h22.15.092,MoralCondition_v2,2022.2.5,29.96497987415232,
7,0,7,0,4,0,4,0,,,,,,,,,,,,,,,,,,,,,,,,,,,,,,,,,,,,,,,,,,,,,,,,,,,,,569.5271284990013,569.5271284990013,0.006905300542712212,0.09823969937860966,2.0,4.092560600489378,,,,,,,,,,,,,,9978,Moral,2024-07-01_17h22.15.092,MoralCondition_v2,2022.2.5,29.96497987415232,
7,0,7,0,5,0,5,0,,,,,,,,,,,,,,,,,,,,,,,,,,,,,,,,,,,,,,,,,,,,,,,,,,,,,573.6606412995607,573.6606412995607,0.007314501330256462,0.09787060134112835,4.0,3.3919702004641294,,,,,,,,,,,,,,9978,Moral,2024-07-01_17h22.15.092,MoralCondition_v2,2022.2.5,29.96497987415232,
7,0,7,0,6,0,6,0,,,,,,,,,,,,,,,,,,,,,,,,,,,,,,,,,,,,,,,,,,,,,,,,,,,,,577.0939616989344,577.0939616989344,0.006425600498914719,0.09914470091462135,2.0,1.9269728008657694,,,,,,,,,,,,,,9978,Moral,2024-07-01_17h22.15.092,MoralCondition_v2,2022.2.5,29.96497987415232,
7,0,7,0,,,,,,,,,,,,,,,,,,,,,,,,,,,,,,,,,,,,,,,,,,,,,,,,,,,,,,,,,,,,,,,579.0609297994524,579.0609297994524,0.0013043992221355438,0.09753059968352318,1.0,7.964234700426459,,,,,,,,9978,Moral,2024-07-01_17h22.15.092,MoralCondition_v2,2022.2.5,29.96497987415232,
8,0,8,0,0,0,0,0,,,,,,,,,,,,,,,,,,,,,,587.060822898522,0.00016020052134990692,0.0993649996817112,593.07727240026,6.015940999612212,593.2438512984663,593.2438512984663,0.0814862996339798,0.1827659998089075,6.015912199392915,599.3607585988939,599.3607585988939,599.3607585988939,0.09338789992034435,0.19951250031590462,605.0606886986643,605.2272434998304,5.999272100627422,6.099499700590968,611.2273059990257,11.999337799847126,611.3607096001506,611.3607096001506,0.0002837013453245163,0.0993668008595705,up,1.7108555007725954,613.110589299351,2.9200688004493713e-05,0.09848680160939693,619.1275702994317,619.1275702994317,619.1275702994317,0.008837100118398666,0.11510340124368668,1.0,5.007285799831152,,,,,,,599.2439318988472,599.2439318988472,611.3607096001506,611.3607096001506,,,12.099253000691533,9978,Moral,2024-07-01_17h22.15.092,MoralCondition_v2,2022.2.5,29.96497987415232,
8,0,8,0,1,0,1,0,,,,,,,,,,,,,,,,,,,,,,,,,,,,,,,,,,,,,,,,,,,,,,,,,,,,,624.1773816999048,624.1773816999048,0.009318199008703232,0.1138882003724575,5.0,2.472366599366069,,,,,,,,,,,,,,9978,Moral,2024-07-01_17h22.15.092,MoralCondition_v2,2022.2.5,29.96497987415232,
8,0,8,0,2,0,2,0,,,,,,,,,,,,,,,,,,,,,,,,,,,,,,,,,,,,,,,,,,,,,,,,,,,,,626.6773758996278,626.6773758996278,0.007389500737190247,0.09792819991707802,5.0,3.7248089015483856,,,,,,,,,,,,,,9978,Moral,2024-07-01_17h22.15.092,MoralCondition_v2,2022.2.5,29.96497987415232,
8,0,8,0,3,0,3,0,,,,,,,,,,,,,,,,,,,,,,,,,,,,,,,,,,,,,,,,,,,,,,,,,,,,,630.4605163987726,630.4605163987726,0.007696699351072311,0.11453199945390224,1.0,3.374701200053096,,,,,,,,,,,,,,9978,Moral,2024-07-01_17h22.15.092,MoralCondition_v2,2022.2.5,29.96497987415232,
8,0,8,0,4,0,4,0,,,,,,,,,,,,,,,,,,,,,,,,,,,,,,,,,,,,,,,,,,,,,,,,,,,,,633.8604376986623,633.8604376986623,0.006564298644661903,0.0991399995982647,1.0,1.6268645990639925,,,,,,,,,,,,,,9978,Moral,2024-07-01_17h22.15.092,MoralCondition_v2,2022.2.5,29.96497987415232,
8,0,8,0,5,0,5,0,,,,,,,,,,,,,,,,,,,,,,,,,,,,,,,,,,,,,,,,,,,,,,,,,,,,,635.5270798001438,635.5270798001438,0.006765400990843773,0.09924199990928173,5.0,1.860146600753069,,,,,,,,,,,,,,9978,Moral,2024-07-01_17h22.15.092,MoralCondition_v2,2022.2.5,29.96497987415232,
8,0,8,0,6,0,6,0,,,,,,,,,,,,,,,,,,,,,,,,,,,,,,,,,,,,,,,,,,,,,,,,,,,,,637.4270520992577,637.4270520992577,0.005406999960541725,0.09942120127379894,1.0,1.9283408988267183,,,,,,,,,,,,,,9978,Moral,2024-07-01_17h22.15.092,MoralCondition_v2,2022.2.5,29.96497987415232,
8,0,8,0,,,,,,,,,,,,,,,,,,,,,,,,,,,,,,,,,,,,,,,,,,,,,,,,,,,,,,,,,,,,,,,639.3938886001706,639.3938886001706,0.0010564997792243958,0.0981856007128954,7.0,3.0647873003035784,,,,,,,,9978,Moral,2024-07-01_17h22.15.092,MoralCondition_v2,2022.2.5,29.96497987415232,
9,0,9,0,0,0,0,0,,,,,,,,,,,,,,,,,,,,,,642.4942765999585,0.0002523008733987808,0.09832110069692135,648.5105050001293,6.014867899939418,648.6938298996538,648.6938298996538,0.08950830064713955,0.19831830076873302,6.0313717015087605,654.7938911989331,654.7938911989331,654.7938911989331,0.08519410155713558,0.19828930124640465,660.4937600996345,660.6937659997493,6.031403701752424,6.131442300975323,666.6939754001796,12.031602000817657,666.8101851996034,666.8101851996034,0.031508902087807655,0.11472080089151859,down,1.4692230001091957,668.3437796998769,5.710124969482422e-05,0.09804970026016235,,674.3602050989866,674.3602050989866,0.024232100695371628,0.11487800069153309,5.0,3.9248962998390198,,,,,,,654.6938009001315,654.6938009001315,666.7938171997666,666.7938171997666,,,,9978,Moral,2024-07-01_17h22.15.092,MoralCondition_v2,2022.2.5,29.96497987415232,
9,0,9,0,1,0,1,0,,,,,,,,,,,,,,,,,,,,,,,,,,,,,,,,,,,,,,,,,,,,,,,,,,,,,678.3272698000073,678.3272698000073,0.008360400795936584,0.09767360053956509,3.0,3.9238157011568546,,,,,,,,,,,,,,9978,Moral,2024-07-01_17h22.15.092,MoralCondition_v2,2022.2.5,29.96497987415232,
9,0,9,0,2,0,2,0,,,,,,,,,,,,,,,,,,,,,,,,,,,,,,,,,,,,,,,,,,,,,,,,,,,,,682.2937925998122,682.2937925998122,0.008400199934840202,0.09741980023682117,2.0,2.6901687998324633,,,,,,,,,,,,,,9978,Moral,2024-07-01_17h22.15.092,MoralCondition_v2,2022.2.5,29.96497987415232,
9,0,9,0,3,0,3,0,,,,,,,,,,,,,,,,,,,,,,,,,,,,,,,,,,,,,,,,,,,,,,,,,,,,,685.0270610991865,685.0270610991865,0.006764201447367668,0.09797240048646927,2.0,1.2922942992299795,,,,,,,,,,,,,,9978,Moral,2024-07-01_17h22.15.092,MoralCondition_v2,2022.2.5,29.96497987415232,
9,0,9,0,4,0,4,0,,,,,,,,,,,,,,,,,,,,,,,,,,,,,,,,,,,,,,,,,,,,,,,,,,,,,686.3771821986884,686.3771821986884,0.009263498708605766,0.11395539902150631,5.0,3.1725607998669147,,,,,,,,,,,,,,9978,Moral,2024-07-01_17h22.15.092,MoralCondition_v2,2022.2.5,29.96497987415232,
9,0,9,0,5,0,5,0,,,,,,,,,,,,,,,,,,,,,,,,,,,,,,,,,,,,,,,,,,,,,,,,,,,,,689.5770450998098,689.5770450998098,0.0071626994758844376,0.09791110083460808,4.0,8.558466199785471,,,,,,,,,,,,,,9978,Moral,2024-07-01_17h22.15.092,MoralCondition_v2,2022.2.5,29.96497987415232,
9,0,9,0,6,0,6,0,,,,,,,,,,,,,,,,,,,,,,,,,,,,,,,,,,,,,,,,,,,,,,,,,,,,,698.1770700998604,698.1770700998604,0.007074300199747086,0.09800500050187111,1.0,4.2584547996521,,,,,,,,,,,,,,9978,Moral,2024-07-01_17h22.15.092,MoralCondition_v2,2022.2.5,29.96497987415232,
9,0,9,0,,,,,,,,,,,,,,,,,,,,,,,,,,,,,,,,,,,,,,,,,,,,,,,,,,,,,,,,,,,,,,,702.4770409986377,702.4770409986377,0.001526201143860817,0.0980347003787756,1.0,3.5642019007354975,,,,,,,,9978,Moral,2024-07-01_17h22.15.092,MoralCondition_v2,2022.2.5,29.96497987415232,
10,0,10,0,0,0,0,0,,,,,,,,,,,,,,,,,,,,,,706.077245298773,0.0003044009208679199,0.09767610020935535,712.0936258994043,6.014303600415587,712.2600301001221,712.2600301001221,0.08114230073988438,0.18062280118465424,6.014183200895786,718.3604837991297,718.3604837991297,718.3604837991297,0.06610610149800777,0.18114970065653324,724.0604832991958,724.2603888995945,6.014378901571035,6.114271100610495,730.2600802984089,12.01419610157609,730.3767302986234,730.3767302986234,0.014021201059222221,0.11403960175812244,up,1.0714443027973175,731.4766741991043,1.1799857020378113e-05,0.08295479975640774,737.5104201994836,737.5104201994836,737.5104201994836,0.010815899819135666,0.11622939817607403,7.0,4.706512998789549,,,,,,,718.2602527998388,718.2602527998388,730.3433283995837,730.3433283995837,,,,9978,Moral,2024-07-01_17h22.15.092,MoralCondition_v2,2022.2.5,29.96497987415232,
10,0,10,0,1,0,1,0,,,,,,,,,,,,,,,,,,,,,,,,,,,,,,,,,,,,,,,,,,,,,,,,,,,,,742.2434347998351,742.2434347998351,0.006753500550985336,0.09915740042924881,7.0,1.6934281010180712,,,,,,,,,,,,,,9978,Moral,2024-07-01_17h22.15.092,MoralCondition_v2,2022.2.5,29.96497987415232,
10,0,10,0,2,0,2,0,,,,,,,,,,,,,,,,,,,,,,,,,,,,,,,,,,,,,,,,,,,,,,,,,,,,,743.9766750987619,743.9766750987619,0.007815798744559288,0.09764779917895794,1.0,2.4577244985848665,,,,,,,,,,,,,,9978,Moral,2024-07-01_17h22.15.092,MoralCondition_v2,2022.2.5,29.96497987415232,
10,0,10,0,3,0,3,0,,,,,,,,,,,,,,,,,,,,,,,,,,,,,,,,,,,,,,,,,,,,,,,,,,,,,746.4767988994718,746.4767988994718,0.007533499971032143,0.09769809991121292,1.0,1.2248855009675026,,,,,,,,,,,,,,9978,Moral,2024-07-01_17h22.15.092,MoralCondition_v2,2022.2.5,29.96497987415232,
10,0,10,0,4,0,4,0,,,,,,,,,,,,,,,,,,,,,,,,,,,,,,,,,,,,,,,,,,,,,,,,,,,,,747.743592299521,747.743592299521,0.006705800071358681,0.0990545004606247,1.0,2.626850800588727,,,,,,,,,,,,,,9978,Moral,2024-07-01_17h22.15.092,MoralCondition_v2,2022.2.5,29.96497987415232,
10,0,10,0,5,0,5,0,,,,,,,,,,,,,,,,,,,,,,,,,,,,,,,,,,,,,,,,,,,,,,,,,,,,,750.410041898489,750.410041898489,0.0074761006981134415,0.09751079976558685,5.0,2.7576805986464024,,,,,,,,,,,,,,9978,Moral,2024-07-01_17h22.15.092,MoralCondition_v2,2022.2.5,29.96497987415232,
10,0,10,0,6,0,6,0,,,,,,,,,,,,,,,,,,,,,,,,,,,,,,,,,,,,,,,,,,,,,,,,,,,,,753.2102902997285,753.2102902997285,0.007041499018669128,0.09805859997868538,2.0,4.192440900951624,,,,,,,,,,,,,,9978,Moral,2024-07-01_17h22.15.092,MoralCondition_v2,2022.2.5,29.96497987415232,
10,0,10,0,,,,,,,,,,,,,,,,,,,,,,,,,,,,,,,,,,,,,,,,,,,,,,,,,,,,,,,,,,,,,,,757.443322699517,757.443322699517,0.0012918002903461456,0.09877070039510727,7.0,6.4984496012330055,,,,,,,,9978,Moral,2024-07-01_17h22.15.092,MoralCondition_v2,2022.2.5,29.96497987415232,
11,0,11,0,0,0,0,0,,,,,,,,,,,,,,,,,,,,,,763.9768004994839,0.00013699941337108612,0.0990854986011982,769.9768110997975,5.999016599729657,770.1435834988952,770.1435834988952,0.05747959949076176,0.16576319932937622,6.032242599874735,776.2599134985358,776.2599134985358,776.2599134985358,0.07216400094330311,0.18223509937524796,781.9601977989078,782.1599472984672,6.01545980013907,6.115643799304962,788.1600409001112,12.01568610034883,788.2766037993133,788.2766037993133,0.015455000102519989,0.09899070113897324,down,1.7148378025740385,790.0267306994647,4.3800100684165955e-05,0.097724299877882,,796.0600441992283,796.0600441992283,0.025355400517582893,0.13106019981205463,2.0,4.939950801432133,,,,,,,776.126628799364,776.126628799364,788.2432559989393,788.2432559989393,6.098801299929619,,,9978,Moral,2024-07-01_17h22.15.092,MoralCondition_v2,2022.2.5,29.96497987415232,
11,0,11,0,1,0,1,0,,,,,,,,,,,,,,,,,,,,,,,,,,,,,,,,,,,,,,,,,,,,,,,,,,,,,801.0265806987882,801.0265806987882,0.007511800155043602,0.09795649908483028,5.0,2.524585299193859,,,,,,,,,,,,,,9978,Moral,2024-07-01_17h22.15.092,MoralCondition_v2,2022.2.5,29.96497987415232,
11,0,11,0,2,0,2,0,,,,,,,,,,,,,,,,,,,,,,,,,,,,,,,,,,,,,,,,,,,,,,,,,,,,,803.5932793002576,803.5932793002576,0.008006900548934937,0.09730430133640766,2.0,5.190469300374389,,,,,,,,,,,,,,9978,Moral,2024-07-01_17h22.15.092,MoralCondition_v2,2022.2.5,29.96497987415232,
11,0,11,0,3,0,3,0,,,,,,,,,,,,,,,,,,,,,,,,,,,,,,,,,,,,,,,,,,,,,,,,,,,,,808.8268707990646,808.8268707990646,0.009037800133228302,0.09734180010855198,2.0,2.289248701184988,,,,,,,,,,,,,,9978,Moral,2024-07-01_17h22.15.092,MoralCondition_v2,2022.2.5,29.96497987415232,
11,0,11,0,4,0,4,0,,,,,,,,,,,,,,,,,,,,,,,,,,,,,,,,,,,,,,,,,,,,,,,,,,,,,811.160021699965,811.160021699965,0.007550500333309174,0.09781510010361671,5.0,2.091158900409937,,,,,,,,,,,,,,9978,Moral,2024-07-01_17h22.15.092,MoralCondition_v2,2022.2.5,29.96497987415232,
11,0,11,0,5,0,5,0,,,,,,,,,,,,,,,,,,,,,,,,,,,,,,,,,,,,,,,,,,,,,,,,,,,,,813.2931639999151,813.2931639999151,0.006717199459671974,0.09919309988617897,1.0,2.3267272990196943,,,,,,,,,,,,,,9978,Moral,2024-07-01_17h22.15.092,MoralCondition_v2,2022.2.5,29.96497987415232,
11,0,11,0,6,0,6,0,,,,,,,,,,,,,,,,,,,,,,,,,,,,,,,,,,,,,,,,,,,,,,,,,,,,,815.6599599998444,815.6599599998444,0.007017400115728378,0.09931579977273941,2.0,3.793460300192237,,,,,,,,,,,,,,9978,Moral,2024-07-01_17h22.15.092,MoralCondition_v2,2022.2.5,29.96497987415232,
11,0,11,0,,,,,,,,,,,,,,,,,,,,,,,,,,,,,,,,,,,,,,,,,,,,,,,,,,,,,,,,,,,,,,,819.4934181999415,819.4934181999415,0.0007534008473157883,0.0992565006017685,1.0,2.4996493998914957,,,,,,,,9978,Moral,2024-07-01_17h22.15.092,MoralCondition_v2,2022.2.5,29.96497987415232,
12,0,12,0,0,0,0,0,,,,,,,,,,,,,,,,,,,,,,822.0268208999187,0.00027280114591121674,0.09833979979157448,828.0432878993452,6.015091400593519,828.2101962994784,828.2101962994784,0.07725290022790432,0.1817781012505293,6.014853600412607,834.309922600165,834.309922600165,834.309922600165,0.06690390035510063,0.1816479004919529,840.009930498898,840.2099337987602,6.014880301430821,6.114828100427985,846.2098982986063,12.014845600351691,846.3432492986321,846.3432492986321,0.015052702277898788,0.1150405015796423,down,1.4326869025826454,847.8100691996515,3.900006413459778e-05,0.09799890033900738,853.8098333999515,853.8098333999515,853.8098333999515,0.008156800642609596,0.0979309007525444,6.0,2.8573759999126196,,,,,,,834.2100602984428,834.2100602984428,846.3099172990769,846.3099172990769,,,,9978,Moral,2024-07-01_17h22.15.092,MoralCondition_v2,2022.2.5,29.96497987415232,
12,0,12,0,1,0,1,0,,,,,,,,,,,,,,,,,,,,,,,,,,,,,,,,,,,,,,,,,,,,,,,,,,,,,856.7097286991775,856.7097286991775,0.005636299028992653,0.09864329919219017,5.0,1.9607691001147032,,,,,,,,,,,,,,9978,Moral,2024-07-01_17h22.15.092,MoralCondition_v2,2022.2.5,29.96497987415232,
12,0,12,0,2,0,2,0,,,,,,,,,,,,,,,,,,,,,,,,,,,,,,,,,,,,,,,,,,,,,,,,,,,,,858.7098410986364,858.7098410986364,0.006629299372434616,0.09947879984974861,3.0,2.260470800101757,,,,,,,,,,,,,,9978,Moral,2024-07-01_17h22.15.092,MoralCondition_v2,2022.2.5,29.96497987415232,
12,0,12,0,3,0,3,0,,,,,,,,,,,,,,,,,,,,,,,,,,,,,,,,,,,,,,,,,,,,,,,,,,,,,861.009759100154,861.009759100154,0.006328100338578224,0.09906820021569729,2.0,2.927166700363159,,,,,,,,,,,,,,9978,Moral,2024-07-01_17h22.15.092,MoralCondition_v2,2022.2.5,29.96497987415232,
12,0,12,0,4,0,4,0,,,,,,,,,,,,,,,,,,,,,,,,,,,,,,,,,,,,,,,,,,,,,,,,,,,,,863.9934686999768,863.9934686999768,0.00793520174920559,0.114222701638937,2.0,0.8405636008828878,,,,,,,,,,,,,,9978,Moral,2024-07-01_17h22.15.092,MoralCondition_v2,2022.2.5,29.96497987415232,
12,0,12,0,5,0,5,0,,,,,,,,,,,,,,,,,,,,,,,,,,,,,,,,,,,,,,,,,,,,,,,,,,,,,864.8598844986409,864.8598844986409,0.006831500679254532,0.09924410097301006,5.0,2.96016369946301,,,,,,,,,,,,,,9978,Moral,2024-07-01_17h22.15.092,MoralCondition_v2,2022.2.5,29.96497987415232,
12,0,12,0,6,0,6,0,,,,,,,,,,,,,,,,,,,,,,,,,,,,,,,,,,,,,,,,,,,,,,,,,,,,,867.8599088992923,867.8599088992923,0.006476899608969688,0.09877519868314266,2.0,5.160089299082756,,,,,,,,,,,,,,9978,Moral,2024-07-01_17h22.15.092,MoralCondition_v2,2022.2.5,29.96497987415232,
12,0,12,0,,,,,,,,,,,,,,,,,,,,,,,,,,,,,,,,,,,,,,,,,,,,,,,,,,,,,,,,,,,,,,,873.0599462985992,873.0599462985992,0.0004850998520851135,0.09895740076899529,1.0,6.500059401616454,,,,,,,,9978,Moral,2024-07-01_17h22.15.092,MoralCondition_v2,2022.2.5,29.96497987415232,
13,0,13,0,0,0,0,0,,,,,,,,,,,,,,,,,,,,,,879.5934378001839,0.0001413002610206604,0.0993478000164032,885.609772099182,6.0158917009830475,885.7764858994633,885.7764858994633,0.08440100029110909,0.18277320079505444,6.0158156007528305,891.8765747994184,891.8765747994184,891.8765747994184,0.07250470109283924,0.18262780085206032,897.5765386987478,897.7764841001481,6.015979800373316,6.115817900747061,903.7766766995192,12.016062201932073,903.9097739998251,903.9097739998251,0.016317101195454597,0.11578980088233948,down,1.954058000817895,905.9265481997281,4.730001091957092e-05,0.09786619991064072,911.9430784992874,911.9430784992874,911.9430784992874,0.008103398606181145,0.11426269821822643,5.0,9.07385789975524,,,,,,,891.7764866985381,891.7764866985381,903.8766152001917,903.8766152001917,,,,9978,Moral,2024-07-01_17h22.15.092,MoralCondition_v2,2022.2.5,29.96497987415232,
13,0,13,0,1,0,1,0,,,,,,,,,,,,,,,,,,,,,,,,,,,,,,,,,,,,,,,,,,,,,,,,,,,,,921.0599198993295,921.0599198993295,0.008985599502921104,0.11435829848051071,2.0,20.572922000661492,,,,,,,,,,,,,,9978,Moral,2024-07-01_17h22.15.092,MoralCondition_v2,2022.2.5,29.96497987415232,
13,0,13,0,2,0,2,0,,,,,,,,,,,,,,,,,,,,,,,,,,,,,,,,,,,,,,,,,,,,,,,,,,,,,941.6594786997885,941.6594786997885,0.00695519894361496,0.09815019927918911,5.0,2.459127798676491,,,,,,,,,,,,,,9978,Moral,2024-07-01_17h22.15.092,MoralCondition_v2,2022.2.5,29.96497987415232,
13,0,13,0,3,0,3,0,,,,,,,,,,,,,,,,,,,,,,,,,,,,,,,,,,,,,,,,,,,,,,,,,,,,,944.1763049997389,944.1763049997389,0.008770201355218887,0.1151989996433258,1.0,2.574279598891735,,,,,,,,,,,,,,9978,Moral,2024-07-01_17h22.15.092,MoralCondition_v2,2022.2.5,29.96497987415232,
13,0,13,0,4,0,4,0,,,,,,,,,,,,,,,,,,,,,,,,,,,,,,,,,,,,,,,,,,,,,,,,,,,,,946.7763009984046,946.7763009984046,0.006612000986933708,0.09923719987273216,4.0,2.3936599995940924,,,,,,,,,,,,,,9978,Moral,2024-07-01_17h22.15.092,MoralCondition_v2,2022.2.5,29.96497987415232,
13,0,13,0,5,0,5,0,,,,,,,,,,,,,,,,,,,,,,,,,,,,,,,,,,,,,,,,,,,,,,,,,,,,,949.209433099255,949.209433099255,0.0055320002138614655,0.09954349882900715,2.0,10.46178949996829,,,,,,,,,,,,,,9978,Moral,2024-07-01_17h22.15.092,MoralCondition_v2,2022.2.5,29.96497987415232,
13,0,13,0,6,0,6,0,,,,,,,,,,,,,,,,,,,,,,,,,,,,,,,,,,,,,,,,,,,,,,,,,,,,,959.7093871999532,959.7093871999532,0.006783900782465935,0.09919820167124271,2.0,3.2267949990928173,,,,,,,,,,,,,,9978,Moral,2024-07-01_17h22.15.092,MoralCondition_v2,2022.2.5,29.96497987415232,
13,0,13,0,,,,,,,,,,,,,,,,,,,,,,,,,,,,,,,,,,,,,,,,,,,,,,,,,,,,,,,,,,,,,,,962.976336600259,962.976336600259,0.0016091987490653992,0.09778159856796265,1.0,3.8307945001870394,,,,,,,,9978,Moral,2024-07-01_17h22.15.092,MoralCondition_v2,2022.2.5,29.96497987415232,
14,0,14,0,0,0,0,0,,,,,,,,,,,,,,,,,,,,,,966.8428086992353,0.00041740015149116516,0.09715230017900467,972.8428938984871,6.030806299299002,973.0432040989399,973.0432040989399,0.08351870067417622,0.19776180014014244,6.030727900564671,979.1261902991682,979.1261902991682,979.1261902991682,0.06862280145287514,0.18093400076031685,984.826166799292,985.0261287987232,6.0140993017703295,6.113956501707435,991.0261238999665,12.014021400362253,991.1594099998474,991.1594099998474,0.014026401564478874,0.11392800137400627,down,2.0962349008768797,993.3094136994332,3.1400471925735474e-05,0.09833640046417713,,999.3429738990963,999.3429738990963,0.026038499549031258,0.13158310018479824,6.0,3.0733674000948668,,,,,,,979.0261281002313,979.0261281002313,991.1259996984154,991.1259996984154,,,,9978,Moral,2024-07-01_17h22.15.092,MoralCondition_v2,2022.2.5,29.96497987415232,
14,0,14,0,1,0,1,0,,,,,,,,,,,,,,,,,,,,,,,,,,,,,,,,,,,,,,,,,,,,,,,,,,,,,1002.4594136998057,1002.4594136998057,0.009581800550222397,0.11330129951238632,2.0,2.1382090002298355,,,,,,,,,,,,,,9978,Moral,2024-07-01_17h22.15.092,MoralCondition_v2,2022.2.5,29.96497987415232,
14,0,14,0,2,0,2,0,,,,,,,,,,,,,,,,,,,,,,,,,,,,,,,,,,,,,,,,,,,,,,,,,,,,,1004.6258808989078,1004.6258808989078,0.00838019885122776,0.09743589907884598,2.0,2.5233833994716406,,,,,,,,,,,,,,9978,Moral,2024-07-01_17h22.15.092,MoralCondition_v2,2022.2.5,29.96497987415232,
14,0,14,0,3,0,3,0,,,,,,,,,,,,,,,,,,,,,,,,,,,,,,,,,,,,,,,,,,,,,,,,,,,,,1007.1927402000874,1007.1927402000874,0.007216401398181915,0.09768160060048103,2.0,1.0916598998010159,,,,,,,,,,,,,,9978,Moral,2024-07-01_17h22.15.092,MoralCondition_v2,2022.2.5,29.96497987415232,
14,0,14,0,4,0,4,0,,,,,,,,,,,,,,,,,,,,,,,,,,,,,,,,,,,,,,,,,,,,,,,,,,,,,1008.3259621988982,1008.3259621988982,0.007101001217961311,0.09782779961824417,2.0,2.325154500082135,,,,,,,,,,,,,,9978,Moral,2024-07-01_17h22.15.092,MoralCondition_v2,2022.2.5,29.96497987415232,
14,0,14,0,5,0,5,0,,,,,,,,,,,,,,,,,,,,,,,,,,,,,,,,,,,,,,,,,,,,,,,,,,,,,1010.6927422992885,1010.6927422992885,0.006270399317145348,0.09894109889864922,5.0,2.4936934001743793,,,,,,,,,,,,,,9978,Moral,2024-07-01_17h22.15.092,MoralCondition_v2,2022.2.5,29.96497987415232,
14,0,14,0,6,0,6,0,,,,,,,,,,,,,,,,,,,,,,,,,,,,,,,,,,,,,,,,,,,,,,,,,,,,,1013.2261300999671,1013.2261300999671,0.007349299266934395,0.09806380048394203,3.0,4.891656199470162,,,,,,,,,,,,,,9978,Moral,2024-07-01_17h22.15.092,MoralCondition_v2,2022.2.5,29.96497987415232,
14,0,14,0,,,,,,,,,,,,,,,,,,,,,,,,,,,,,,,,,,,,,,,,,,,,,,,,,,,,,,,,,,,,,,,1018.1593586001545,1018.1593586001545,0.0007639005780220032,0.0992479994893074,1.0,2.4997896999120712,,,,,,,,9978,Moral,2024-07-01_17h22.15.092,MoralCondition_v2,2022.2.5,29.96497987415232,
15,0,15,0,0,0,0,0,,,,,,,,,,,,,,,,,,,,,,1020.6929764002562,0.00024659931659698486,0.0978763997554779,1026.692448399961,6.014564000070095,1026.87617889978,1026.87617889978,0.07960770092904568,0.1817099004983902,6.014528401196003,1032.976126600057,1032.976126600057,1032.976126600057,0.06969100050628185,0.18154080025851727,1038.6760271992534,1038.8759297989309,6.014495201408863,6.114483701065183,1044.875911898911,12.014483800157905,1045.0092342998832,1045.0092342998832,0.01469230093061924,0.11439610086381435,up,1.389943901449442,1046.4426442999393,4.299916326999664e-05,0.09780259989202023,1052.4593152999878,1052.4593152999878,1052.4593152999878,0.009209899231791496,0.11446139961481094,1.0,3.4061967004090548,,,,,,,1032.875972399488,1032.875972399488,1044.975931899622,1044.975931899622,,,,9978,Moral,2024-07-01_17h22.15.092,MoralCondition_v2,2022.2.5,29.96497987415232,
15,0,15,0,1,0,1,0,,,,,,,,,,,,,,,,,,,,,,,,,,,,,,,,,,,,,,,,,,,,,,,,,,,,,1055.892748799175,1055.892748799175,0.00656219944357872,0.09897859953343868,1.0,1.360173000022769,,,,,,,,,,,,,,9978,Moral,2024-07-01_17h22.15.092,MoralCondition_v2,2022.2.5,29.96497987415232,
15,0,15,0,2,0,2,0,,,,,,,,,,,,,,,,,,,,,,,,,,,,,,,,,,,,,,,,,,,,,,,,,,,,,1057.30941000022,1057.30941000022,0.008395200595259666,0.1142485998570919,6.0,3.1736378986388445,,,,,,,,,,,,,,9978,Moral,2024-07-01_17h22.15.092,MoralCondition_v2,2022.2.5,29.96497987415232,
15,0,15,0,3,0,3,0,,,,,,,,,,,,,,,,,,,,,,,,,,,,,,,,,,,,,,,,,,,,,,,,,,,,,1060.509431200102,1060.509431200102,0.006441900506615639,0.09934479929506779,5.0,2.927176298573613,,,,,,,,,,,,,,9978,Moral,2024-07-01_17h22.15.092,MoralCondition_v2,2022.2.5,29.96497987415232,
15,0,15,0,4,0,4,0,,,,,,,,,,,,,,,,,,,,,,,,,,,,,,,,,,,,,,,,,,,,,,,,,,,,,1063.4759529996663,1063.4759529996663,0.007941801100969315,0.09781640022993088,1.0,3.5911288000643253,,,,,,,,,,,,,,9978,Moral,2024-07-01_17h22.15.092,MoralCondition_v2,2022.2.5,29.96497987415232,
15,0,15,0,5,0,5,0,,,,,,,,,,,,,,,,,,,,,,,,,,,,,,,,,,,,,,,,,,,,,,,,,,,,,1067.1090410985053,1067.1090410985053,0.007186900824308395,0.09791729971766472,7.0,1.8585393000394106,,,,,,,,,,,,,,9978,Moral,2024-07-01_17h22.15.092,MoralCondition_v2,2022.2.5,29.96497987415232,
15,0,15,0,6,0,6,0,,,,,,,,,,,,,,,,,,,,,,,,,,,,,,,,,,,,,,,,,,,,,,,,,,,,,1069.009007299319,1069.009007299319,0.0077317990362644196,0.09738029912114143,1.0,1.824006799608469,,,,,,,,,,,,,,9978,Moral,2024-07-01_17h22.15.092,MoralCondition_v2,2022.2.5,29.96497987415232,
15,0,15,0,,,,,,,,,,,,,,,,,,,,,,,,,,,,,,,,,,,,,,,,,,,,,,,,,,,,,,,,,,,,,,,1070.8756390996277,1070.8756390996277,0.001989198848605156,0.09751039929687977,7.0,2.4300549998879433,,,,,,,,9978,Moral,2024-07-01_17h22.15.092,MoralCondition_v2,2022.2.5,29.96497987415232,
16,0,16,0,0,0,0,0,,,,,,,,,,,,,,,,,,,,,,1073.3426203988492,0.00022559985518455505,0.0983377993106842,1079.3425685986876,6.031711999326944,1079.5593538992107,1079.5593538992107,0.10423170030117035,0.2150854989886284,6.0149836000055075,1085.626259099692,1085.626259099692,1085.626259099692,0.07728820107877254,0.18179089948534966,1091.3257803991437,1091.525732299313,6.014860799536109,6.114981601014733,1097.525985699147,12.015133099630475,1097.659069199115,1097.659069199115,0.014916401356458664,0.11481120064854622,up,1.1966991014778614,1098.9090390987694,5.4700300097465515e-05,0.09793859906494617,1104.9092759992927,1104.9092759992927,1104.9092759992927,0.00901309959590435,0.09801439940929413,2.0,3.589919799938798,,,,,,,,,1097.6090821996331,1097.6090821996331,,,,9978,Moral,2024-07-01_17h22.15.092,MoralCondition_v2,2022.2.5,29.96497987415232,
16,0,16,0,1,0,1,0,,,,,,,,,,,,,,,,,,,,,,,,,,,,,,,,,,,,,,,,,,,,,,,,,,,,,1108.5423996988684,1108.5423996988684,0.006451699882745743,0.0990155003964901,2.0,1.3270542994141579,,,,,,,,,,,,,,9978,Moral,2024-07-01_17h22.15.092,MoralCondition_v2,2022.2.5,29.96497987415232,
16,0,16,0,2,0,2,0,,,,,,,,,,,,,,,,,,,,,,,,,,,,,,,,,,,,,,,,,,,,,,,,,,,,,1109.925662798807,1109.925662798807,0.010778499767184258,0.11512660048902035,5.0,3.3389581982046366,,,,,,,,,,,,,,9978,Moral,2024-07-01_17h22.15.092,MoralCondition_v2,2022.2.5,29.96497987415232,
16,0,16,0,3,0,3,0,,,,,,,,,,,,,,,,,,,,,,,,,,,,,,,,,,,,,,,,,,,,,,,,,,,,,1113.2923106998205,1113.2923106998205,0.0065612997859716415,0.09917169995605946,5.0,1.9936453998088837,,,,,,,,,,,,,,9978,Moral,2024-07-01_17h22.15.092,MoralCondition_v2,2022.2.5,29.96497987415232,
16,0,16,0,4,0,4,0,,,,,,,,,,,,,,,,,,,,,,,,,,,,,,,,,,,,,,,,,,,,,,,,,,,,,1115.3424119986594,1115.3424119986594,0.008086899295449257,0.11450779996812344,2.0,3.407532799988985,,,,,,,,,,,,,,9978,Moral,2024-07-01_17h22.15.092,MoralCondition_v2,2022.2.5,29.96497987415232,
16,0,16,0,5,0,5,0,,,,,,,,,,,,,,,,,,,,,,,,,,,,,,,,,,,,,,,,,,,,,,,,,,,,,1118.7756786998361,1118.7756786998361,0.0072512999176979065,0.09784059971570969,2.0,2.3250725008547306,,,,,,,,,,,,,,9978,Moral,2024-07-01_17h22.15.092,MoralCondition_v2,2022.2.5,29.96497987415232,
16,0,16,0,6,0,6,0,,,,,,,,,,,,,,,,,,,,,,,,,,,,,,,,,,,,,,,,,,,,,,,,,,,,,1121.1421326994896,1121.1421326994896,0.007712099701166153,0.09748269990086555,2.0,2.957583200186491,,,,,,,,,,,,,,9978,Moral,2024-07-01_17h22.15.092,MoralCondition_v2,2022.2.5,29.96497987415232,
16,0,16,0,,,,,,,,,,,,,,,,,,,,,,,,,,,,,,,,,,,,,,,,,,,,,,,,,,,,,,,,,,,,,,,1124.1424765996635,1124.1424765996635,0.0012755002826452255,0.09759780019521713,2.0,8.76464799977839,,,,,,,,9978,Moral,2024-07-01_17h22.15.092,MoralCondition_v2,2022.2.5,29.96497987415232,
17,0,17,0,0,0,0,0,,,,,,,,,,,,,,,,,,,,,,1132.942422799766,0.00044120103120803833,0.09758860059082508,1138.9422120992094,6.030869800597429,1139.1424136999995,1139.1424136999995,0.09515419974923134,0.19767840020358562,6.030825400725007,1145.2422345988452,1145.2422345988452,1145.2422345988452,0.08460010029375553,0.1978188008069992,1150.9422012995929,1151.1422049999237,6.030889801681042,6.130944000557065,1157.1421486996114,12.03080790117383,1157.2754977997392,1157.2754977997392,0.03110850229859352,0.13079220056533813,down,2.644480401650071,1159.9588095992804,1.940131187438965e-05,0.09937180019915104,,1165.9920904990286,1165.9920904990286,0.028249600902199745,0.13266370072960854,3.0,2.5718536991626024,,,,,,,1145.1421612985432,1145.1421612985432,1157.2421976998448,1157.2421976998448,,,,9978,Moral,2024-07-01_17h22.15.092,MoralCondition_v2,2022.2.5,29.96497987415232,
17,0,17,0,1,0,1,0,,,,,,,,,,,,,,,,,,,,,,,,,,,,,,,,,,,,,,,,,,,,,,,,,,,,,1168.592252800241,1168.592252800241,0.007184499874711037,0.09778989851474762,1.0,2.4583594985306263,,,,,,,,,,,,,,9978,Moral,2024-07-01_17h22.15.092,MoralCondition_v2,2022.2.5,29.96497987415232,
17,0,17,0,2,0,2,0,,,,,,,,,,,,,,,,,,,,,,,,,,,,,,,,,,,,,,,,,,,,,,,,,,,,,1171.1091089993715,1171.1091089993715,0.007954999804496765,0.11410459876060486,6.0,3.7074997015297413,,,,,,,,,,,,,,9978,Moral,2024-07-01_17h22.15.092,MoralCondition_v2,2022.2.5,29.96497987415232,
17,0,17,0,3,0,3,0,,,,,,,,,,,,,,,,,,,,,,,,,,,,,,,,,,,,,,,,,,,,,,,,,,,,,1174.8423830997199,1174.8423830997199,0.00761060044169426,0.09769880026578903,3.0,5.724493699148297,,,,,,,,,,,,,,9978,Moral,2024-07-01_17h22.15.092,MoralCondition_v2,2022.2.5,29.96497987415232,
17,0,17,0,4,0,4,0,,,,,,,,,,,,,,,,,,,,,,,,,,,,,,,,,,,,,,,,,,,,,,,,,,,,,1180.6088773999363,1180.6088773999363,0.006443599238991737,0.09935910068452358,2.0,4.96044160053134,,,,,,,,,,,,,,9978,Moral,2024-07-01_17h22.15.092,MoralCondition_v2,2022.2.5,29.96497987415232,
17,0,17,0,5,0,5,0,,,,,,,,,,,,,,,,,,,,,,,,,,,,,,,,,,,,,,,,,,,,,,,,,,,,,1185.6087988987565,1185.6087988987565,0.006403299048542976,0.09910750016570091,1.0,5.49374970048666,,,,,,,,,,,,,,9978,Moral,2024-07-01_17h22.15.092,MoralCondition_v2,2022.2.5,29.96497987415232,
17,0,17,0,6,0,6,0,,,,,,,,,,,,,,,,,,,,,,,,,,,,,,,,,,,,,,,,,,,,,,,,,,,,,1191.1418673992157,1191.1418673992157,0.006627099588513374,0.09915170073509216,2.0,4.160317100584507,,,,,,,,,,,,,,9978,Moral,2024-07-01_17h22.15.092,MoralCondition_v2,2022.2.5,29.96497987415232,
17,0,17,0,,,,,,,,,,,,,,,,,,,,,,,,,,,,,,,,,,,,,,,,,,,,,,,,,,,,,,,,,,,,,,,1195.3419867996126,1195.3419867996126,0.0007508993148803711,0.09904209896922112,2.0,4.233017601072788,,,,,,,,9978,Moral,2024-07-01_17h22.15.092,MoralCondition_v2,2022.2.5,29.96497987415232,
18,0,18,0,0,0,0,0,,,,,,,,,,,,,,,,,,,,,,1199.6089081000537,0.00038969889283180237,0.09770209901034832,1205.6252831984311,6.014287399128079,1205.7920383997262,1205.7920383997262,0.07763190008699894,0.1812044009566307,6.014310799539089,1211.8920144997537,1211.8920144997537,1211.8920144997537,0.0681897010654211,0.1808777004480362,1217.5918852984905,1217.7918253000826,6.014094900339842,6.1144396010786295,1223.792044999078,12.014377200976014,1223.9252662993968,1223.9252662993968,0.014373600482940674,0.11424540169537067,down,0.9701107013970613,1224.9420167990029,4.8201531171798706e-05,0.09777310118079185,1230.9416731987149,1230.9416731987149,1230.9416731987149,0.008496999740600586,0.09753770008683205,3.0,4.390134399756789,,,,,,,1211.7919627986848,1211.7919627986848,1223.891886498779,1223.891886498779,,,,9978,Moral,2024-07-01_17h22.15.092,MoralCondition_v2,2022.2.5,29.96497987415232,
18,0,18,0,1,0,1,0,,,,,,,,,,,,,,,,,,,,,,,,,,,,,,,,,,,,,,,,,,,,,,,,,,,,,1235.3752774000168,1235.3752774000168,0.00873200036585331,0.097223199903965,1.0,2.5232318993657827,,,,,,,,,,,,,,9978,Moral,2024-07-01_17h22.15.092,MoralCondition_v2,2022.2.5,29.96497987415232,
18,0,18,0,2,0,2,0,,,,,,,,,,,,,,,,,,,,,,,,,,,,,,,,,,,,,,,,,,,,,,,,,,,,,1237.9418417997658,1237.9418417997658,0.00653810054063797,0.09910370036959648,1.0,3.5935600996017456,,,,,,,,,,,,,,9978,Moral,2024-07-01_17h22.15.092,MoralCondition_v2,2022.2.5,29.96497987415232,
18,0,18,0,3,0,3,0,,,,,,,,,,,,,,,,,,,,,,,,,,,,,,,,,,,,,,,,,,,,,,,,,,,,,1241.5750557985157,1241.5750557985157,0.007249901071190834,0.09844190068542957,1.0,2.5584865994751453,,,,,,,,,,,,,,9978,Moral,2024-07-01_17h22.15.092,MoralCondition_v2,2022.2.5,29.96497987415232,
18,0,18,0,4,0,4,0,,,,,,,,,,,,,,,,,,,,,,,,,,,,,,,,,,,,,,,,,,,,,,,,,,,,,1244.1919671986252,1244.1919671986252,0.0076493993401527405,0.11381429992616177,1.0,5.1076141986995935,,,,,,,,,,,,,,9978,Moral,2024-07-01_17h22.15.092,MoralCondition_v2,2022.2.5,29.96497987415232,
18,0,18,0,5,0,5,0,,,,,,,,,,,,,,,,,,,,,,,,,,,,,,,,,,,,,,,,,,,,,,,,,,,,,1249.3421330992132,1249.3421330992132,0.007891600951552391,0.11408009938895702,3.0,5.607286600396037,,,,,,,,,,,,,,9978,Moral,2024-07-01_17h22.15.092,MoralCondition_v2,2022.2.5,29.96497987415232,
18,0,18,0,6,0,6,0,,,,,,,,,,,,,,,,,,,,,,,,,,,,,,,,,,,,,,,,,,,,,,,,,,,,,1254.9749985989183,1254.9749985989183,0.008297601714730263,0.09754900075495243,2.0,3.290362900123,,,,,,,,,,,,,,9978,Moral,2024-07-01_17h22.15.092,MoralCondition_v2,2022.2.5,29.96497987415232,
18,0,18,0,,,,,,,,,,,,,,,,,,,,,,,,,,,,,,,,,,,,,,,,,,,,,,,,,,,,,,,,,,,,,,,1258.308314498514,1258.308314498514,0.0013505015522241592,0.09789559990167618,2.0,2.3310953993350267,,,,,,,,9978,Moral,2024-07-01_17h22.15.092,MoralCondition_v2,2022.2.5,29.96497987415232,
19,0,19,0,0,0,0,0,,,,,,,,,,,,,,,,,,,,,,1260.6754847988486,0.00021499954164028168,0.09826700016856194,1266.6751044988632,6.031441500410438,1266.8583680000156,1266.8583680000156,0.0794938001781702,0.18130020052194595,6.01465880125761,1272.9585378002375,1272.9585378002375,1272.9585378002375,0.07308360002934933,0.18139170110225677,1278.6583610996604,1278.8583601992577,6.01470610126853,6.114762200042605,1284.8582275994122,12.014600800350308,1284.991667099297,1284.991667099297,0.014852501451969147,0.11463390104472637,down,1.6554737016558647,1286.7083406988531,6.919912993907928e-05,0.09792749956250191,,1292.7418157998472,1292.7418157998472,0.0254186000674963,0.13133149966597557,2.0,2.973614100366831,,,,,,,1272.8584088999778,1272.8584088999778,1284.9583145994693,1284.9583145994693,,,,9978,Moral,2024-07-01_17h22.15.092,MoralCondition_v2,2022.2.5,29.96497987415232,
19,0,19,0,1,0,1,0,,,,,,,,,,,,,,,,,,,,,,,,,,,,,,,,,,,,,,,,,,,,,,,,,,,,,1295.741490200162,1295.741490200162,0.006923699751496315,0.098064498975873,1.0,2.3930826988071203,,,,,,,,,,,,,,9978,Moral,2024-07-01_17h22.15.092,MoralCondition_v2,2022.2.5,29.96497987415232,
19,0,19,0,2,0,2,0,,,,,,,,,,,,,,,,,,,,,,,,,,,,,,,,,,,,,,,,,,,,,,,,,,,,,1298.1749801002443,1298.1749801002443,0.00688599981367588,0.09815559908747673,1.0,1.8590051997452974,,,,,,,,,,,,,,9978,Moral,2024-07-01_17h22.15.092,MoralCondition_v2,2022.2.5,29.96497987415232,
19,0,19,0,3,0,3,0,,,,,,,,,,,,,,,,,,,,,,,,,,,,,,,,,,,,,,,,,,,,,,,,,,,,,1300.074864499271,1300.074864499271,0.005868600681424141,0.09904780052602291,3.0,4.694256000220776,,,,,,,,,,,,,,9978,Moral,2024-07-01_17h22.15.092,MoralCondition_v2,2022.2.5,29.96497987415232,
19,0,19,0,4,0,4,0,,,,,,,,,,,,,,,,,,,,,,,,,,,,,,,,,,,,,,,,,,,,,,,,,,,,,1304.808271098882,1304.808271098882,0.006999999284744263,0.09927649982273579,5.0,3.89333420060575,,,,,,,,,,,,,,9978,Moral,2024-07-01_17h22.15.092,MoralCondition_v2,2022.2.5,29.96497987415232,
19,0,19,0,5,0,5,0,,,,,,,,,,,,,,,,,,,,,,,,,,,,,,,,,,,,,,,,,,,,,,,,,,,,,1308.7417805995792,1308.7417805995792,0.006651699542999268,0.09955479949712753,2.0,5.360253000631928,,,,,,,,,,,,,,9978,Moral,2024-07-01_17h22.15.092,MoralCondition_v2,2022.2.5,29.96497987415232,
19,0,19,0,6,0,6,0,,,,,,,,,,,,,,,,,,,,,,,,,,,,,,,,,,,,,,,,,,,,,,,,,,,,,1314.141666598618,1314.141666598618,0.00788789987564087,0.0975917000323534,2.0,2.2905967999249697,,,,,,,,,,,,,,9978,Moral,2024-07-01_17h22.15.092,MoralCondition_v2,2022.2.5,29.96497987415232,
19,0,19,0,,,,,,,,,,,,,,,,,,,,,,,,,,,,,,,,,,,,,,,,,,,,,,,,,,,,,,,,,,,,,,,1316.4751007985324,1316.4751007985324,0.001360500231385231,0.09766039997339249,2.0,2.06401089951396,,,,,,,,9978,Moral,2024-07-01_17h22.15.092,MoralCondition_v2,2022.2.5,29.96497987415232,
